time,seconds_elapsed,z,y,x
1759160708521858000,0.044858154296875,1.9000982925415038,-9.3730002243042,1.85790048828125
1759160708531917000,0.0549169921875,1.8552070114135741,-9.386617246246338,1.7995418228149413
1759160708541975000,0.06497509765625,1.912069300842285,-9.379584278869629,1.7260697593688963
1759160708552034000,0.075033935546875,1.9985598358154295,-9.357138638305663,1.6665139930725097
1759160708562093000,0.085093017578125,2.0228011276245117,-9.337985025024414,1.6757915245056152
1759160708572151000,0.095151123046875,1.9783587593078613,-9.297882147216797,1.6980875274658203
1759160708582210000,0.1052099609375,1.9141642272949217,-9.312247357177734,1.7405846069335937
1759160708592269000,0.11526904296875,1.8212392753601072,-9.376292251586914,1.7814356727600096
1759160708602327000,0.1253271484375,1.767070462799072,-9.443629173278808,1.797147621154785
1759160708612386000,0.135385986328125,1.7340005523681639,-9.472509230804443,1.7992425476074219
1759160708622445000,0.145445068359375,1.760187133026123,-9.454103805541992,1.806125877380371
1759160708632504000,0.155504150390625,1.8510171585083006,-9.437194756317139,1.8216881881713867
1759160708642562000,0.16556201171875,1.9258359603881834,-9.364919793701171,1.8212392753601072
1759160708652621000,0.17562109375,1.970128691101074,-9.345167630004882,1.8429367279052733
1759160708662680000,0.18568017578125,2.0370166999816894,-9.36596725692749,1.8652327308654784
1759160708672738000,0.195738037109375,2.092083338165283,-9.357737188720703,1.877652651977539
1759160708682797000,0.205797119140625,2.1101894882202146,-9.376142613983154,1.8781015647888182
1759160708692856000,0.21585595703125,2.1160253547668457,-9.40397520828247,1.9009961181640624
1759160708702914000,0.2259140625,2.1709423553466793,-9.438691132354736,1.9237410339355467
1759160708712973000,0.23597314453125,2.1953332847595215,-9.481936399841308,1.926135235595703
1759160708723032000,0.246031982421875,2.15777424621582,-9.470713579559325,1.8996493797302245
1759160708733091000,0.256091064453125,2.09402862701416,-9.456348369598388,1.885882720184326
1759160708743149000,0.266149169921875,2.062604730224609,-9.431059614562988,1.8854338073730468
1759160708753208000,0.2762080078125,2.0026000511169433,-9.388861810302734,1.8531120849609375
1759160708763267000,0.28626708984375,1.9907786804199217,-9.329605319213867,1.8094179046630858
1759160708773325000,0.296324951171875,1.9699790534973143,-9.305812940216065,1.791461392211914
1759160708783384000,0.306384033203125,1.9904794052124022,-9.339182125854492,1.7863737136840818
1759160708793443000,0.316443115234375,1.999008748626709,-9.384372682189941,1.8251298530578612
1759160708803501000,0.3265009765625,1.9943699829101562,-9.38482159500122,1.859097589111328
1759160708813560000,0.33656005859375,1.9702783287048338,-9.37195276107788,1.8795979408264158
1759160708823619000,0.346619140625,1.9542671051025389,-9.366865082550047,1.8745102622985839
1759160708833677000,0.356677001953125,1.9532196418762207,-9.384522319793701,1.8689736709594726
1759160708843736000,0.366736083984375,1.9825486122131346,-9.434052366638182,1.880196491241455
1759160708853795000,0.376795166015625,1.9964649093627929,-9.427917224884032,1.862239978790283
1759160708863853000,0.38685302734375,2.035819599151611,-9.413252739715576,1.8613421531677246
1759160708873912000,0.396912109375,2.116923180389404,-9.422380633544922,1.894262425994873
1759160708883971000,0.40697119140625,2.1594202598571774,-9.427019399261473,1.8936638755798338
1759160708894029000,0.417029052734375,2.134281142425537,-9.419387881469726,1.8637363548278807
1759160708904088000,0.427088134765625,2.0958242782592773,-9.437344393920897,1.8420389022827148
1759160708914147000,0.43714697265625,2.048838070678711,-9.418789331054686,1.83859723739624
1759160708924205000,0.447205078125,1.9885341163635253,-9.40367593307495,1.8535609977722167
1759160708934264000,0.45726416015625,2.0006547622680664,-9.393051663208007,1.8743606246948241
1759160708944323000,0.467322998046875,2.0031986015319823,-9.367463632965087,1.8758570007324218
1759160708954381800,0.4773818359375,1.999008748626709,-9.35249987258911,1.8626888916015625
1759160708964440000,0.487440185546875,1.986139914703369,-9.368062183380127,1.880196491241455
1759160708974499000,0.4974990234375,1.9726725303649901,-9.34741219406128,1.9017443061828612
1759160708984558000,0.50755810546875,1.9642928245544433,-9.380033191680907,1.9463363121032713
1759160708994616000,0.517615966796875,2.0214543891906738,-9.430909976959228,2.0126257705688477
1759160709004675000,0.527675048828125,2.071582986450195,-9.424774835205078,2.0145710594177246
1759160709014734000,0.537734130859375,2.0591630653381348,-9.361627766418456,1.9488801513671874
1759160709024792000,0.5477919921875,2.054973212432861,-9.346664006042479,1.8656816436767576
1759160709034851000,0.55785107421875,2.0694880599975587,-9.369558559417724,1.8046295013427733
1759160709044910000,0.56791015625,2.074426100921631,-9.38512087020874,1.7992425476074219
1759160709054968000,0.577968017578125,2.129642376708984,-9.367613270568848,1.827823329925537
1759160709065027000,0.588027099609375,2.13862063293457,-9.366116894531249,1.8397943382263182
1759160709075086000,0.598086181640625,2.1124340522766114,-9.407117597961426,1.8432360031127928
1759160709085144000,0.60814404296875,2.0896891365051267,-9.44213279724121,1.8773533767700195
1759160709095203000,0.618203125,2.062604730224609,-9.441085334014891,1.9137153144836425
1759160709105262000,0.628261962890625,2.0313304710388183,-9.405321946716308,1.9425953720092772
1759160709115320000,0.638320068359375,1.996913822174072,-9.355193349456787,1.9309236389160156
1759160709125379000,0.648379150390625,1.9690812278747558,-9.33349589691162,1.9135656768798828
1759160709135438000,0.65843798828125,1.982847887420654,-9.34082813949585,1.913416039276123
1759160709145496000,0.66849609375,2.014122146606445,-9.354744436645507,1.9436428352355957
1759160709155555000,0.67855517578125,2.0317793838500977,-9.349058207702637,1.9607015220642088
1759160709165614000,0.688614013671875,2.0491373458862303,-9.34681364364624,1.99182614364624
1759160709175672300,0.69867236328125,2.0682909591674803,-9.361328491210937,2.0006547622680664
1759160709185731000,0.70873095703125,2.037166337585449,-9.38571942062378,1.9725228927612304
1759160709195790300,0.718790283203125,2.0217536643981933,-9.427169036865234,1.925536685180664
1759160709205848300,0.728848388671875,2.0198083755493164,-9.457844745635986,1.8570026626586913
1759160709215907300,0.7389072265625,2.0522797355651856,-9.457994383239745,1.8005892860412596
1759160709225965300,0.74896533203125,2.093579714202881,-9.452607429504393,1.7803882095336914
1759160709236024000,0.759024169921875,2.122160496520996,-9.372850586700439,1.7604864082336424
1759160709246083300,0.769083251953125,2.082656169128418,-9.324218365478515,1.750011775970459
1759160709256141300,0.779141357421875,2.025195329284668,-9.316137934875488,1.7580922065734863
1759160709266200300,0.789200439453125,2.005293527984619,-9.377788627624511,1.8173486976623534
1759160709276259000,0.799259033203125,2.020107650756836,-9.4105592628479,1.877652651977539
1759160709286317000,0.809317138671875,2.0361188743591305,-9.41744259262085,1.9256863227844236
1759160709296376300,0.819376220703125,2.090736599731445,-9.431807802581787,1.9310732765197753
1759160709306435000,0.82943505859375,2.0980688423156737,-9.432406352996825,1.9128174888610838
1759160709316493300,0.839493408203125,2.0847510955810544,-9.421931720733642,1.890371848297119
1759160709326552000,0.849552001953125,2.0600608909606932,-9.398588254547118,1.8631378044128417
1759160709336611300,0.859611328125,2.0374656127929685,-9.401431369018555,1.854758098602295
1759160709346669300,0.86966943359375,2.0293851821899414,-9.415497303771971,1.853411360168457
1759160709356728300,0.879728271484375,2.060809078979492,-9.428964688110351,1.8703204093933103
1759160709366787000,0.889787109375,2.079813054656982,-9.440935696411133,1.891718586730957
1759160709376845000,0.899844970703125,2.0688895095825193,-9.438092581939697,1.8924667747497557
1759160709386904300,0.909904296875,2.0956746406555173,-9.449913952636718,1.8698714965820311
1759160709396963000,0.919963134765625,2.0841525451660154,-9.449315402221679,1.8414403518676756
1759160709407021300,0.930021240234375,2.0834043571472165,-9.434351641845703,1.8353052101135252
1759160709417080000,0.940080078125,2.09417826461792,-9.40472339630127,1.858499038696289
1759160709427138300,0.95013818359375,2.089539498901367,-9.390657461547852,1.8734627990722654
1759160709437197300,0.960197265625,2.076221752166748,-9.364919793701171,1.8972551780700682
1759160709447256300,0.97025634765625,2.043451116943359,-9.35324806060791,1.8809446792602538
1759160709457314300,0.980314208984375,2.024896054077148,-9.377040439605713,1.8843863441467283
1759160709467373000,0.990373046875,2.0317793838500977,-9.4496146774292,1.899948654937744
1759160709477432300,1.000432373046875,2.0241478660583496,-9.489418280029296,1.885882720184326
1759160709487490300,1.010490234375,1.9915268684387206,-9.494356320953369,1.8694225837707519
1759160709497549300,1.02054931640625,1.9823989746093749,-9.473407056427002,1.8918682243347167
1759160709507608000,1.030608154296875,1.969530140686035,-9.473407056427002,1.931222914123535
1759160709517666300,1.040666259765625,1.9897312171936035,-9.46143604812622,1.9443910232543944
1759160709527725300,1.050725341796875,1.9994576614379882,-9.45485199356079,1.9707272415161132
1759160709537783000,1.060782958984375,2.0108301193237303,-9.479841473388671,1.9752163696289062
1759160709547842300,1.07084228515625,2.0479402450561524,-9.496301609802245,1.9217957450866698
1759160709557901000,1.080901123046875,2.0555717628479004,-9.522787465667724,1.881393592071533
1759160709567959300,1.090959228515625,2.062604730224609,-9.522188915252684,1.838746875
1759160709578018300,1.101018310546875,2.063502555847168,-9.522039277648926,1.7860744384765623
1759160709588077300,1.111077392578125,2.0597616157531737,-9.459191484069823,1.7465701110839842
1759160709598135300,1.12113525390625,2.0108301193237303,-9.427019399261473,1.7663222747802734
1759160709608194000,1.131194091796875,2.034023947906494,-9.437344393920897,1.83859723739624
1759160709618253300,1.14125341796875,2.0266917053222655,-9.394847314453125,1.8971055404663084
1759160709628311000,1.15131103515625,2.0037971519470212,-9.343671253967285,1.9388544319152832
1759160709638370300,1.161370361328125,1.9397522575378416,-9.28935280380249,1.9630957237243651
1759160709648428300,1.17142822265625,1.9116203880310056,-9.242665871429443,1.9903297676086424
1759160709658487300,1.1814873046875,1.903091044616699,-9.216329653167724,1.9747674568176268
1759160709668546300,1.19154638671875,1.8849848945617675,-9.172934748077392,1.992574331665039
1759160709678604000,1.20160400390625,1.8956091644287107,-9.173533298492432,1.9888333915710448
1759160709688663300,1.211663330078125,1.960551884460449,-9.21258871307373,2.0241478660583496
1759160709698722000,1.22172216796875,1.9933225196838378,-9.242516233825683,2.0733786376953125
1759160709708780300,1.2317802734375,2.0159177978515626,-9.255983618164063,2.055272487640381
1759160709718839300,1.24183935546875,2.0691887847900388,-9.275586144256591,2.037764888000488
1759160709728897300,1.251897216796875,2.11961665725708,-9.314043008422852,1.9536685546875
1759160709738956300,1.261956298828125,2.126350349426269,-9.371653485870361,1.8397943382263182
1759160709749015300,1.272015380859375,2.182165175628662,-9.44183352203369,1.740434969329834
1759160709759073300,1.2820732421875,2.211494145965576,-9.43569838027954,1.695693325805664
1759160709769132000,1.292132080078125,2.251597023773193,-9.419836794281006,1.6316484313964843
1759160709779191300,1.30219140625,2.254889051055908,-9.492111756896971,1.6059107635498047
1759160709789249300,1.312249267578125,2.287360411071777,-9.57590881500244,1.5854104118347168
1759160709799308300,1.322308349609375,2.3267151008605955,-9.673622170257568,1.5387234794616698
1759160709809366300,1.3323662109375,2.339284659576416,-9.687538467407226,1.4857517677307128
1759160709819425000,1.342425048828125,2.3642741394042965,-9.673921445465087,1.3771148674011229
1759160709829484300,1.352484375,2.4129063606262204,-9.632771104431152,1.2928688964843749
1759160709839542300,1.362542236328125,2.4646809715270996,-9.62094973373413,1.2273276260375976
1759160709849601300,1.372601318359375,2.5380033973693847,-9.69756418685913,1.2077250999450684
1759160709859659300,1.3826591796875,2.53456173248291,-9.647734864807129,1.147870058441162
1759160709869718300,1.39271826171875,2.4625860450744628,-9.437643669128418,1.0729016189575196
1759160709879777300,1.40277734375,2.325069087219238,-9.224410083770751,1.0122983894348143
1759160709889835000,1.4128349609375,2.2418705795288085,-9.111583330535888,1.0133458526611328
1759160709899894300,1.422894287109375,2.223016241455078,-9.0014500541687,1.0634744499206543
1759160709909952300,1.4329521484375,2.254290500640869,-8.919598284912109,1.128716445159912
1759160709920011300,1.44301123046875,2.2459107948303223,-8.989927958679198,1.264737026977539
1759160709930070300,1.4530703125,2.1945850967407226,-9.112630793762207,1.4749778602600097
1759160709940128300,1.463128173828125,2.130540202331543,-9.29578722076416,1.6654665298461913
1759160709950187300,1.473187255859375,1.9933225196838378,-9.420734619903564,1.7293617866516113
1759160709960246300,1.483246337890625,1.9614497100830077,-9.49914472427368,1.673247685241699
1759160709970304300,1.49330419921875,2.021304751586914,-9.49989291229248,1.5542857902526854
1759160709980363000,1.503363037109375,2.1657050392150876,-9.444676636505127,1.4691419937133787
1759160709990421200,1.513421142578125,2.347514727783203,-9.413851290130614,1.4661492416381836
1759160710000480300,1.523480224609375,2.473808865356445,-9.39813934173584,1.4836568412780762
1759160710010539300,1.533539306640625,2.5499744056701656,-9.306261853027344,1.5034090049743651
1759160710020597200,1.54359716796875,2.596511700439453,-9.30296982574463,1.4885948822021484
1759160710030656300,1.55365625,2.5152584815979004,-9.3086560546875,1.4305354919433593
1759160710040714200,1.56371435546875,2.4006360771179196,-9.368660733795165,1.2306196533203124
1759160710050773200,1.573773193359375,2.2851158470153807,-9.501538925933838,0.9751882637023925
1759160710060832300,1.583832275390625,2.1926398078918456,-9.617208793640136,0.7601590270996094
1759160710070890200,1.59389013671875,2.142810485839844,-9.744251119232176,0.6063315704345703
1759160710080949200,1.60394921875,2.1128829650878904,-9.826851076507568,0.5307645805358886
1759160710091007200,1.61400732421875,2.127697087860107,-9.795576817321777,0.4912602531433105
1759160710101066200,1.624066162109375,2.217330012512207,-9.685892453765868,0.46462475967407224
1759160710111125200,1.634125244140625,2.379986087799072,-9.502885664367675,0.4011784156799316
1759160710121183200,1.644183349609375,2.5598504875183106,-9.334992272949219,0.3541922080993652
1759160710131242200,1.6542421875,2.6541221778869626,-9.183559017944335,0.37454292221069335
1759160710141300200,1.66430029296875,2.62389538192749,-9.132831870269776,0.4617816452026367
1759160710151359200,1.674359130859375,2.5053823997497555,-9.162160840606688,0.5849333930969238
1759160710161418200,1.684418212890625,2.427271570587158,-9.158270262908935,0.7636006919860839
1759160710171476200,1.694476318359375,2.3216274223327638,-9.354295523834228,0.879719472503662
1759160710181534500,1.704534423828125,2.264465857696533,-9.594014965057372,0.9198223503112792
1759160710191592700,1.7145927734375,2.282572007751465,-9.683947164916992,0.8943839576721191
1759160710201651500,1.7246513671875,2.4179940391540526,-9.708188456726074,0.8056488586425781
1759160710211709400,1.73470947265625,2.536656658935547,-9.639953709411621,0.726490566253662
1759160710221768700,1.744768798828125,2.5987562644958495,-9.414898753356933,0.668431175994873
1759160710231827500,1.754827392578125,2.6259903083801266,-9.195081113433837,0.723946726989746
1759160710241885700,1.7648857421875,2.54099614944458,-9.026289896392822,0.8219593574523926
1759160710251944400,1.7749443359375,2.3184850326538085,-9.026140258789061,0.8590694831848144
1759160710262002700,1.785002685546875,2.0682909591674803,-9.07222864074707,0.8494926765441894
1759160710272061700,1.795061767578125,1.9276316116333008,-9.182212279510498,0.8456020988464354
1759160710282120700,1.80512060546875,1.8408418014526367,-9.335441185760498,0.8283937744140625
1759160710292178700,1.8151787109375,1.8350059349060057,-9.389460360717774,0.7951742263793945
1759160710302237400,1.825237548828125,1.8876783714294432,-9.337985025024414,0.8268973983764648
1759160710312295700,1.835295654296875,2.0579659645080564,-9.186102857208251,0.8978256225585937
1759160710322354400,1.8453544921875,2.2563854270935058,-9.00818374633789,0.9012672874450683
1759160710332412400,1.855412353515625,2.4952070426940915,-8.954912759399413,0.8230068206787109
1759160710342471700,1.8654716796875,2.701856573486328,-9.061454733276367,0.7532756973266601
1759160710352530400,1.875530517578125,2.916287259674072,-9.1807159034729,0.6693290016174316
1759160710362588700,1.885588623046875,2.956689412689209,-9.293991569519042,0.5618892021179199
1759160710372647400,1.8956474609375,2.8938416191101073,-9.339631038665772,0.4299088356018066
1759160710382705700,1.90570556640625,2.7795184898376464,-9.316886122894287,0.3155857063293457
1759160710392764700,1.9157646484375,2.546682378387451,-9.209147048187255,0.2507926239013672
1759160710402823700,1.92582373046875,2.4583961921691895,-9.11741919708252,0.29658173065185545
1759160710412881700,1.935881591796875,2.480392919921875,-9.058611618804932,0.39264907226562495
1759160710422940400,1.9459404296875,2.5911247467041014,-9.07148045272827,0.46103345718383787
1759160710432998700,1.95599853515625,2.6479870361328124,-9.20031842956543,0.4029740669250488
1759160710443057700,1.9660576171875,2.7130793937683104,-9.486275890350342,0.2929904281616211
1759160710453115600,1.97611572265625,2.7802666778564453,-9.745897132873534,0.13901333389282225
1759160710463174700,1.986174560546875,2.836530416870117,-9.963619846343994,-0.10145429534912109
1759160710473233700,1.996233642578125,2.877381482696533,-9.979182157135009,-0.3242646873474121
1759160710483291600,2.006291748046875,3.0241759719848633,-9.81847137069702,-0.48722003784179685
1759160710493350400,2.016350341796875,3.2136171783447263,-9.560795417022705,-0.5175964714050293
1759160710503408600,2.02640869140625,3.311480171203613,-9.247304637145996,-0.500537784576416
1759160710513467600,2.036467529296875,3.0570962448120116,-9.107393477630614,-0.6714239280700683
1759160710523525600,2.046525634765625,3.0711621795654294,-9.053523940277099,-0.8409633331298828
1759160710533584600,2.056584716796875,3.0933085449218747,-9.133580058288574,-1.0301052642822266
1759160710543643600,2.0666435546875,3.127276280975342,-9.230694863128662,-1.13649760055542
1759160710553701600,2.07670166015625,3.1302690330505367,-9.366715444946289,-1.3283330085754395
1759160710563760600,2.0867607421875,3.304447203826904,-9.345317267608642,-1.3088801200866698
1759160710573818600,2.096818603515625,3.272574394226074,-9.24476079788208,-1.3193547523498534
1759160710583877600,2.106877685546875,3.2794577239990232,-8.934711682891844,-1.5272013839721679
1759160710593935600,2.116935546875,3.2906805442810056,-8.626607856750487,-1.5824176597595214
1759160710603994600,2.12699462890625,3.142389678955078,-8.462904318237305,-1.4553753341674804
1759160710614053400,2.137053466796875,3.1974563171386716,-8.43357534790039,-1.2828431770324706
1759160710624111600,2.147111572265625,3.371634487915039,-8.553883981323242,-1.1538555625915528
1759160710634170600,2.157170654296875,3.5140894866943357,-8.557475283813476,-1.012448027038574
1759160710644228600,2.167228515625,3.585316986083984,-8.624213655090331,-1.038185694885254
1759160710654287600,2.17728759765625,3.6248213134765623,-8.765770828247069,-1.1369465133666992
1759160710664345600,2.187345703125,3.494337322998047,-8.993968173980713,-1.424998900604248
1759160710674404600,2.197404541015625,3.4389714096069333,-9.182361917114257,-1.6941969497680662
1759160710684462600,2.207462646484375,3.501071015167236,-9.248950650787354,-1.8327613708496093
1759160710694521600,2.217521484375,3.427299676513672,-9.286808964538574,-1.9460370368957518
1759160710704580600,2.22758056640625,3.4076971504211424,-9.219472042846679,-1.8912696739196777
1759160710714638600,2.237638671875,3.618536534118652,-9.115024995422363,-1.7836802368164062
1759160710724697600,2.247697509765625,3.85616104888916,-9.035417790222168,-1.7579425689697266
1759160710734755600,2.257755615234375,3.9357682540893553,-8.983792816925048,-1.7772458198547363
1759160710744814600,2.267814697265625,3.895216463470459,-8.900145396423339,-1.7929577682495117
1759160710754872600,2.27787255859375,3.8040871627807613,-8.814103774261474,-1.8158523216247557
1759160710764931600,2.287931640625,3.79226579208374,-8.680627031707763,-1.8855834449768065
1759160710774989600,2.297989501953125,3.782240072631836,-8.513332190704345,-1.951723265838623
1759160710785048600,2.308048583984375,3.689015845489502,-8.47203221206665,-2.057816326904297
1759160710795107600,2.318107666015625,3.5419220809936522,-8.541464060211181,-2.207902843475342
1759160710805165600,2.32816552734375,3.7563527671813963,-8.549843766021729,-2.239626015472412
1759160710815224600,2.338224609375,4.048894282531738,-8.47188257446289,-2.353200956726074
1759160710825282600,2.348282470703125,4.093486288452148,-8.45183113555908,-2.514211018371582
1759160710835341600,2.358341552734375,3.8174049095153806,-8.31880330581665,-2.5776573623657226
1759160710845399600,2.368399658203125,3.704727793884277,-8.195651557922362,-2.6349685646057126
1759160710855458600,2.37845849609375,3.7714661651611325,-8.129960649871826,-2.7180174346923827
1759160710865516500,2.3885166015625,3.8160581710815427,-8.048857068634033,-2.9501053581237793
1759160710875575600,2.398575439453125,3.994725469970703,-8.060528801727294,-3.1581016273498532
1759160710885633800,2.4086337890625,3.9715316413879393,-8.122778044891357,-3.426401850891113
1759160710895692500,2.418692626953125,3.759644794464111,-8.05723677444458,-3.6686651313781735
1759160710905751800,2.428751708984375,3.7472248733520503,-7.924358582305908,-3.83057301864624
1759160710915809500,2.4388095703125,3.7954081817626952,-7.70618695602417,-3.9297827499389646
1759160710925868500,2.44886865234375,3.8250364273071287,-7.601590270996093,-3.984999025726318
1759160710935926800,2.4589267578125,3.8199487487792965,-7.662492775726318,-4.00879140472412
1759160710945985500,2.468985595703125,3.968987802124023,-7.813327480316162,-4.029291756439209
1759160710956043500,2.47904345703125,4.173093493652344,-8.114847251892089,-3.994575832366943
1759160710966102500,2.4891025390625,4.357297383880615,-8.419509413146972,-3.8027404243469234
1759160710976160500,2.499160400390625,4.459499867248535,-8.591592657470702,-3.5992332832336422
1759160710986219500,2.509219482421875,4.285620971679688,-8.70262375946045,-3.648613692474365
1759160710996277500,2.519277587890625,4.109946424865722,-8.585158240509033,-3.58157604598999
1759160711006336800,2.529336669921875,4.069544271850586,-8.308927223968505,-3.3858500602722166
1759160711016394500,2.53939453125,4.114585190582275,-8.066215030670165,-3.4434605377197265
1759160711026453500,2.54945361328125,4.316446318054199,-7.901763304138183,-3.4859576171874997
1759160711036512500,2.559512451171875,4.469675224304199,-7.876324911499023,-3.4721909576416015
1759160711046570500,2.569570556640625,4.582950890350341,-7.832630731201172,-3.6674680305480956
1759160711056629800,2.579629638671875,4.678569319152832,-7.6957123237609855,-3.786429925537109
1759160711066687500,2.5896875,4.774187747955322,-7.481880187988281,-3.8552632232666015
1759160711076746800,2.599746826171875,4.7301942924499505,-7.392396900939941,-3.8947675506591795
1759160711086804700,2.6098046875,4.76924970703125,-7.1674915824890135,-3.9428012214660644
1759160711096863500,2.619863525390625,4.897938046264648,-7.043442008972168,-4.061912754058838
1759160711106921700,2.629921630859375,4.985027131652831,-6.912060192871094,-4.068197533416748
1759160711116980500,2.63998046875,4.828805473327637,-6.949469593811035,-4.287865535736084
1759160711127038700,2.650038818359375,4.980538003540039,-6.985681893920898,-4.375553171539306
1759160711137097500,2.660097412109375,5.170128847503662,-6.905775413513183,-4.303876759338379
1759160711147155500,2.670155517578125,5.231929177856445,-7.004087319183349,-4.386925629425049
1759160711157214700,2.680214599609375,5.444564212799072,-7.094169156646728,-4.065653694152831
1759160711167272400,2.6902724609375,5.617246007537841,-7.36112264175415,-4.037821099853516
1759160711177331500,2.70033154296875,5.485415278625488,-7.645733364105224,-4.384830702972412
1759160711187389700,2.7103896484375,5.7986067832946775,-7.645284451293945,-4.603301604461669
1759160711197448400,2.720448486328125,6.347776789093017,-7.464821501159667,-4.2509050476074215
1759160711207507700,2.7305078125,6.8381392166137696,-7.407959211730956,-4.344129274749756
1759160711217565400,2.7405654296875,6.976703637695312,-7.375038938903808,-4.254795625305175
1759160711227624700,2.750624755859375,7.16330172958374,-7.426514274597167,-4.783166004180908
1759160711237682700,2.7606826171875,7.375338214111328,-7.176619476318359,-4.951508308410644
1759160711247741400,2.770741455078125,7.023989120483398,-6.932410906982422,-5.325003767395019
1759160711257799700,2.780799560546875,6.822427268218994,-6.458358978271484,-5.72049595413208
1759160711267858400,2.7908583984375,6.895450418853759,-5.79711040725708,-5.976675531768798
1759160711277916700,2.800916748046875,6.974907986450195,-5.3862055473327635,-5.8940755744934075
1759160711287975400,2.810975341796875,6.779481275939941,-5.360617517089843,-5.3758805526733395
1759160711298033400,2.821033447265625,6.861183407592773,-5.453093556213378,-5.409848288726806
1759160711308092700,2.8310927734375,7.002590943145751,-5.562777919769287,-5.655104321289063
1759160711318150400,2.841150390625,7.0096239105224605,-5.636848533630371,-5.791424178314209
1759160711328209700,2.851209716796875,7.059752507781982,-5.727678559112548,-5.630264479064941
1759160711338267600,2.861267578125,7.049577150726318,-5.692663359832763,-5.538536627960204
1759160711348326400,2.871326416015625,7.129034718322753,-5.521627578735351,-5.417928719329834
1759160711358384600,2.881384521484375,7.114819145965575,-5.530156922149658,-5.111620544433594
1759160711368443400,2.891443359375,6.973561248016357,-5.472247169494628,-4.853794953155517
1759160711378501600,2.901501708984375,6.872406227874755,-5.31153638305664,-4.697872570037841
1759160711388560600,2.911560546875,6.749254479980468,-5.3193175384521485,-4.626046520233154
1759160711398618400,2.921618408203125,6.709001964569091,-5.28011248626709,-4.470872325134277
1759160711408677600,2.931677734375,6.6337342498779295,-5.026925660705566,-4.41146619644165
1759160711418735600,2.941735595703125,6.595726298522949,-4.80710802078247,-4.401590114593506
1759160711428794600,2.951794677734375,6.55682052154541,-4.52040237197876,-4.4458828453063965
1759160711438852600,2.9618525390625,6.560561461639404,-4.042609503173828,-4.699668221282959
1759160711448911600,2.97191162109375,6.702118634796142,-3.6236242126464844,-4.7946880996704095
1759160711458969600,2.981969482421875,6.875099704742431,-3.4754829849243163,-4.6365211524963375
1759160711469028400,2.9920283203125,7.196820552825927,-3.556736203765869,-4.470573049926758
1759160711479086600,3.002086669921875,7.307702017211914,-3.6617818016052244,-4.5036429603576655
1759160711489145600,3.0121455078125,7.409156312561035,-3.6833296165466307,-4.6441526702880855
1759160711499203300,3.022203369140625,7.4874167793273925,-3.69021294631958,-4.798877952575683
1759160711509262600,3.0322626953125,7.561637030792236,-3.8009447731018065,-4.762516014862061
1759160711519320600,3.042320556640625,7.556698989868163,-3.827280991363525,-4.733336682128906
1759160711529379600,3.052379638671875,7.577797891998291,-3.9242461585998534,-4.757577973937988
1759160711539437600,3.0624375,7.590068175506591,-4.095431577301025,-4.677970768737793
1759160711549496600,3.07249658203125,7.6744637840270995,-4.400692288970947,-4.600308852386474
1759160711559554600,3.082554443359375,7.803601036071777,-4.679018231964111,-4.505588249206543
1759160711569613600,3.092613525390625,7.677456536102294,-4.815338088989257,-4.446032482910156
1759160711579671600,3.102671630859375,7.462277661895752,-4.802768530273437,-4.562151263427734
1759160711589730600,3.11273046875,7.28435855102539,-4.713135605621337,-4.582352339935302
1759160711599788500,3.12278857421875,7.1407064514160155,-4.6459483215332025,-4.597765013122558
1759160711609847600,3.13284765625,7.038503968048095,-4.493467603302002,-4.610633847045898
1759160711619905500,3.142905517578125,7.025335858917236,-4.369418029785156,-4.661360994720459
1759160711629964500,3.152964599609375,7.09970574798584,-4.398298087310791,-4.672134902191162
1759160711640022500,3.1630224609375,7.325658529663086,-4.606892906951904,-4.665251572418213
1759160711650081500,3.17308154296875,7.435193255615234,-4.76895043182373,-4.740070374298096
1759160711660139500,3.183139404296875,7.353341486358642,-4.687996488189697,-4.8427217704772945
1759160711670198500,3.193198486328125,7.291990068817138,-4.514865780639648,-4.853944590759277
1759160711680256500,3.203256591796875,7.127089429473877,-4.120869969940185,-4.924274264526367
1759160711690315500,3.2133154296875,7.016058327484131,-3.617937983703613,-4.98607459487915
1759160711700373800,3.223373779296875,6.976554000091553,-3.2085294998168945,-4.977844526672363
1759160711710432500,3.2334326171875,6.970418858337402,-3.004423808288574,-4.716427632904052
1759160711720490500,3.243490478515625,6.96563045501709,-3.1176994743347164,-4.529380628204345
1759160711730549500,3.253549560546875,6.935553296661377,-3.4561797340393063,-4.579509225463867
1759160711740607500,3.263607421875,6.938546048736572,-3.767874862670898,-4.744260227203369
1759160711750666500,3.27366650390625,6.996605438995361,-3.949983826446533,-4.742913488769531
1759160711760724500,3.283724365234375,7.081599597930908,-3.9920319931030273,-4.828955110931396
1759160711770783700,3.29378369140625,7.17587128829956,-4.001908074951172,-4.957493812561035
1759160711780841500,3.303841552734375,7.248295888519286,-4.015076184082031,-5.093215119171142
1759160711790900500,3.313900390625,7.261613635253906,-4.089146797943115,-5.229235700988769
1759160711800958700,3.323958740234375,7.248595163726806,-4.173392768859863,-5.29238276977539
1759160711811017500,3.334017578125,7.179462590789795,-4.265868807983399,-5.347599045562744
1759160711821075500,3.344075439453125,7.124096677398681,-4.269310472869873,-5.418527269744873
1759160711831134500,3.354134521484375,7.155221298980712,-4.191199643707275,-5.450848992156982
1759160711841192400,3.3641923828125,7.187393383789062,-4.11129316329956,-5.463867463684082
1759160711851250700,3.374250732421875,7.143250290679931,-4.101865994262695,-5.387552285766601
1759160711861309400,3.384309326171875,7.053168453216553,-4.107552223205566,-5.3579240402221675
1759160711871367400,3.394367431640625,7.0765119194030754,-4.11802685546875,-5.353434912109375
1759160711881426700,3.4044267578125,7.1018006744384765,-4.204816665649414,-5.230432801818847
1759160711891484400,3.414484375,7.174674187469482,-4.337096307373047,-5.138555313110351
1759160711901543700,3.424543701171875,7.1787144027709955,-4.458003491210937,-5.094112944793701
1759160711911601700,3.4346015625,7.191283961486816,-4.486434635925293,-5.064335061645507
1759160711921660700,3.44466064453125,7.184550269317627,-4.479700943756103,-5.115062209320068
1759160711931718700,3.45471875,7.156119124603271,-4.453065450286865,-5.125536841583251
1759160711941777400,3.46477734375,7.194276713562012,-4.405929605102539,-5.109375980377197
1759160711951835600,3.474835693359375,7.185897007751464,-4.371363318634033,-5.140051689147949
1759160711961894400,3.484894287109375,7.198017653656006,-4.417601338195801,-5.080645560455322
1759160711971952400,3.494952392578125,7.234229953765869,-4.470273774719238,-5.007772047424316
1759160711982011600,3.50501171875,7.243956398010253,-4.5048400611877435,-4.934000708770752
1759160711992069400,3.5150693359375,7.237372343444823,-4.50094948348999,-4.906467389678955
1759160712002128600,3.525128662109375,7.203853520202636,-4.459799142456054,-4.9078141281127925
1759160712012186600,3.5351865234375,7.232284664916992,-4.425382493591308,-4.895693482208252
1759160712022245600,3.54524560546875,7.306804191589355,-4.401590114593506,-4.842422495269775
1759160712032303600,3.5553037109375,7.327304543304443,-4.367023828124999,-4.821323593139648
1759160712042361600,3.565361572265625,7.351246559906006,-4.304774584960938,-4.753088845825195
1759160712052420600,3.575420654296875,7.382071906280517,-4.301332920074462,-4.653579839324951
1759160712062478600,3.585478515625,7.372345462036132,-4.319289432525634,-4.593724797821045
1759160712072537600,3.59553759765625,7.358429164886474,-4.32811805114746,-4.561253437805176
1759160712082595600,3.605595703125,7.363965756225586,-4.319439070129394,-4.616619351196289
1759160712092654600,3.615654541015625,7.374590026092529,-4.257638739776611,-4.67318236541748
1759160712102712600,3.625712646484375,7.416189279937743,-4.19419239578247,-4.726602989959717
1759160712112771600,3.635771484375,7.390750887298584,-4.191798194122314,-4.804564181518554
1759160712122829600,3.64582958984375,7.3419690284729,-4.206313041687012,-4.8701054519653315
1759160712132888600,3.655888671875,7.398980955505371,-4.261230042266845,-4.929212305450439
1759160712142946600,3.665946533203125,7.393594001770019,-4.30312857131958,-5.005976396179199
1759160712153005600,3.676005615234375,7.332990772247314,-4.225317017364501,-5.058199919891357
1759160712163063600,3.6860634765625,7.264456749725341,-4.1757869705200195,-5.0848354133605955
1759160712173121500,3.69612158203125,7.199065116882323,-4.130746051788329,-5.1529205230712885
1759160712183181000,3.70618115234375,7.126939791870117,-4.113388089752197,-5.155913275146484
1759160712193239000,3.716239013671875,7.153276010131836,-4.09872360458374,-5.175815076446533
1759160712203298000,3.726298095703125,7.165546293640136,-4.1386768447875975,-5.149628495788574
1759160712213356000,3.73635595703125,7.204900983428955,-4.224119916534423,-5.069273102569579
1759160712223415000,3.7464150390625,7.228394087219238,-4.28981082458496,-5.040841957855224
1759160712233473000,3.75647314453125,7.204900983428955,-4.260781129455566,-5.092466931152344
1759160712243532000,3.766531982421875,7.1887401222229,-4.186411240386962,-5.178508553314209
1759160712253590000,3.776590087890625,7.141155364227295,-4.1386768447875975,-5.204395858764648
1759160712263649000,3.78664892578125,7.153425647735595,-4.008641767120361,-5.137657487487792
1759160712273707300,3.796707275390625,7.16360100479126,-4.008342491912842,-5.140051689147949
1759160712283765000,3.806764892578125,7.12529377822876,-4.12431163482666,-5.10728105392456
1759160712293824000,3.816823974609375,7.133823121643066,-4.273799600982666,-5.10129554977417
1759160712303882200,3.82688232421875,7.174973462677001,-4.339191233825684,-5.087079977416992
1759160712313941000,3.83694091796875,7.208492285919189,-4.281281481170654,-5.047426012420654
1759160712323999200,3.846999267578125,7.206546997070312,-4.225765930175781,-5.0294694999694824
1759160712334058000,3.85705810546875,7.222558220672607,-4.186560877990723,-5.063736511230468
1759160712344116000,3.867115966796875,7.269544428253173,-4.208557605743408,-5.1033904762268065
1759160712354175000,3.877175048828125,7.325359254455566,-4.2968437919616695,-5.0954596832275385
1759160712364233000,3.88723291015625,7.3359835243225096,-4.454861101531982,-5.077802445983886
1759160712374292200,3.897292236328125,7.316231360626221,-4.448426684570312,-5.124788653564453
1759160712384350000,3.907349853515625,7.2337810409545895,-4.351162242126464,-5.027823486328125
1759160712394408000,3.917407958984375,7.1781158523559565,-4.218134412384033,-4.980538003540039
1759160712404467200,3.92746728515625,7.165695931243896,-4.125508735656738,-4.951508308410644
1759160712414525000,3.93752490234375,7.191134323883056,-4.084807307434081,-4.926219553375244
1759160712424584200,3.947584228515625,7.208941198730468,-4.097975416564942,-4.879083708190918
1759160712434642200,3.95764208984375,7.245602411651611,-4.153939880371094,-4.87100327758789
1759160712444701000,3.967700927734375,7.227346623992919,-4.2305543334960936,-4.882375735473633
1759160712454759200,3.97775927734375,7.258321607971191,-4.293851039886475,-4.9275662918090815
1759160712464817200,3.987817138671875,7.277924134063721,-4.3071687866210935,-4.975599962615966
1759160712474876200,3.997876220703125,7.2809168861389155,-4.305822048187256,-5.052663328552246
1759160712484934100,4.00793408203125,7.312939333343506,-4.327519500732421,-5.059845933532714
1759160712494993000,4.017992919921875,7.292438981628417,-4.321085083770751,-5.037849205780029
1759160712505051100,4.028051025390625,7.296179921722412,-4.357447021484375,-4.971709384918213
1759160712515110000,4.03810986328125,7.305756728363036,-4.349366590881347,-4.976198513031005
1759160712525167900,4.04816796875,7.313986796569824,-4.299088356018066,-4.952256496429443
1759160712535227100,4.05822705078125,7.2714897171020505,-4.249408671569824,-4.90302572479248
1759160712545284900,4.068284912109375,7.23363140335083,-4.239831864929199,-4.880131171417236
1759160712555343000,4.078343017578125,7.2900447799682615,-4.1858126899719235,-4.92247861328125
1759160712565402000,4.088402099609375,7.346757431793212,-4.189254354858398,-4.914398182678222
1759160712575459800,4.0984599609375,7.37997697982788,-4.234594548797607,-4.889109427642822
1759160712585519000,4.10851904296875,7.359476628112793,-4.316147042846679,-4.844218146514892
1759160712595577000,4.1185771484375,7.331644033813476,-4.408174169158936,-4.781370352935791
1759160712605636000,4.128635986328125,7.317578099060058,-4.465485371398925,-4.74366167678833
1759160712615694000,4.138694091796875,7.341220840454101,-4.551526993560791,-4.665700485229492
1759160712625752000,4.148751953125,7.36770669631958,-4.474164352416992,-4.678120406341552
1759160712635811000,4.15881103515625,7.356483876037597,-4.267514821624756,-4.6091374710083
1759160712645869000,4.168869140625,7.345111418151855,-4.056974713134766,-4.580107775878906
1759160712655928000,4.178927978515625,7.293187169647217,-3.9236476081848144,-4.594622623443604
1759160712665986000,4.188986083984375,7.2723875427246085,-3.955670055389404,-4.528782077789306
1759160712676045000,4.199045166015625,7.320271575927734,-4.1192239562988275,-4.538508522033691
1759160712686103000,4.20910302734375,7.318475924682617,-4.320486533355712,-4.558859236145019
1759160712696161000,4.2191611328125,7.371297998809814,-4.435557850646973,-4.653430201721191
1759160712706220000,4.229219970703125,7.447463539123535,-4.402787215423584,-4.77568412399292
1759160712716278000,4.239278076171875,7.477989610290527,-4.319289432525634,-4.831199674987793
1759160712726337000,4.2493369140625,7.481281637573241,-4.182071749877929,-4.8594811820983885
1759160712736395000,4.25939501953125,7.441926947784423,-4.115034103393555,-4.868010525512695
1759160712746454000,4.2694541015625,7.36740742111206,-4.097227228546142,-4.848258361816406
1759160712756512300,4.27951220703125,7.324311791229247,-4.151246403503418,-4.843021045684814
1759160712766570000,4.289570068359375,7.299172673797607,-4.215141660308838,-4.834790977478027
1759160712776629000,4.29962890625,7.253383567047119,-4.276044165039062,-4.848856912231445
1759160712786687200,4.309687255859375,7.232434302520751,-4.324826023864746,-4.840477206420898
1759160712796746000,4.31974609375,7.228244449615478,-4.389319831085205,-4.872948566436767
1759160712806804000,4.329803955078125,7.229740825653076,-4.460397692871093,-4.904821376037598
1759160712816863000,4.339863037109375,7.25862088317871,-4.48179587020874,-4.968866270446777
1759160712826921000,4.3499208984375,7.273584643554687,-4.442890093231201,-5.01196190032959
1759160712836979200,4.359979248046875,7.259219433593749,-4.390367294311523,-4.996100314331055
1759160712847038000,4.370037841796875,7.221361119842529,-4.368819479370117,-5.002834006500244
1759160712857096000,4.380095947265625,7.185298457336425,-4.3716625938415525,-5.017498491668701
1759160712867155200,4.3901552734375,7.177966214752197,-4.330961165618897,-5.035604641723633
1759160712877213000,4.400212890625,7.2072951850891105,-4.250156859588623,-5.013009363555908
1759160712887271200,4.410271240234375,7.22106184463501,-4.208108692932129,-4.957793087768555
1759160712897330000,4.420329833984375,7.228543724822997,-4.190750730895996,-4.950311207580566
1759160712907388000,4.430387939453125,7.242759297180175,-4.2229228157043455,-4.938340199279785
1759160712917447200,4.440447265625,7.268796240234375,-4.3239281982421875,-4.945971717071533
1759160712927505000,4.4505048828125,7.274183193969726,-4.380341574859619,-4.996249951934814
1759160712937563000,4.46056298828125,7.2444053108215325,-4.370615130615234,-5.0197430557250975
1759160712947622100,4.4706220703125,7.295581371307373,-4.327220225524902,-4.990114810180664
1759160712957679900,4.480679931640625,7.359476628112793,-4.332756816864014,-4.9069163024902345
1759160712967739100,4.4907392578125,7.204900983428955,-4.320037620544434,-4.857236618041992
1759160712977797000,4.500797119140625,7.089829666137695,-4.249857584381103,-4.869955814361572
1759160712987856100,4.510856201171875,7.151929271697997,-4.215590573120117,-4.94118331375122
1759160712997914000,4.5209140625,7.2720882675170895,-4.257339464569092,-5.0388966690063475
1759160713007972000,4.53097216796875,7.38012661743164,-4.32856696395874,-5.090072729492187
1759160713018031000,4.541031005859375,7.372944012451171,-4.3610383239746096,-5.137956762695312
1759160713028089000,4.551089111328125,7.204452070617675,-4.29025973739624,-5.211428826141357
1759160713038148000,4.561148193359375,7.145195579528808,-4.115333378601074,-5.16489153137207
1759160713048206000,4.5712060546875,7.26505530014038,-4.008492129516601,-5.050867677307129
1759160713058264000,4.58126416015625,7.420379132843017,-4.037970737457275,-4.977694889068603
1759160713068323000,4.591322998046875,7.481880187988281,-4.171746755218505,-5.002834006500244
1759160713078381000,4.601381103515625,7.420977683258056,-4.329315151977539,-5.007323134613037
1759160713088440000,4.611440185546875,7.323114690399169,-4.479252030944824,-4.911405430603027
1759160713098498000,4.621498046875,7.214926702880859,-4.555567208862304,-4.8494554626464845
1759160713108556000,4.63155615234375,7.078906121063232,-4.538957434844971,-4.7623663772583
1759160713118615000,4.641614990234375,6.964283716583251,-4.502296221923828,-4.81399135055542
1759160713128673000,4.651673095703125,7.010372098541259,-4.36073904876709,-4.937741648864746
1759160713138732000,4.66173193359375,7.152976734924316,-4.1846155891418455,-4.9914615486145015
1759160713148790000,4.6717900390625,7.285106739044189,-4.079121078491211,-5.008819510650635
1759160713158848000,4.681847900390625,7.311592594909667,-4.019116399383544,-5.030217687988281
1759160713168907300,4.6919072265625,7.306953829193115,-4.051138846588135,-5.0291702247619625
1759160713178965500,4.701965576171875,7.255777768707275,-4.101417081451416,-5.007921685028076
1759160713189024800,4.712024658203125,7.189787585449218,-4.206462679290771,-4.96078583984375
1759160713199082500,4.72208251953125,7.182156067657471,-4.320935446166992,-4.927865567016601
1759160713209140700,4.732140625,7.211485037994384,-4.355052819824219,-4.970661921691894
1759160713219199700,4.74219970703125,7.260715809631347,-4.336048844146728,-4.965723880767822
1759160713229257500,4.752257568359375,7.315483172607421,-4.32886623916626,-4.94731845550537
1759160713239316700,4.762316650390625,7.314585346984863,-4.327968413543701,-4.950909757995605
1759160713249374700,4.772374755859375,7.256226681518554,-4.259883303833008,-4.979191265106201
1759160713259432700,4.7824326171875,7.229740825653076,-4.208108692932129,-4.959588739013672
1759160713269491700,4.79249169921875,7.199962942504882,-4.170998567199707,-4.914697457885742
1759160713279549700,4.8025498046875,7.178864040374755,-4.160224659729003,-4.894945294189453
1759160713289607700,4.812607666015625,7.199514029693603,-4.173392768859863,-4.903325
1759160713299666700,4.822666748046875,7.227945174407958,-4.183717763519287,-4.896292032623291
1759160713309724700,4.832724609375,7.253084291839599,-4.237288025665283,-4.939238024902344
1759160713319783700,4.84278369140625,7.305158177947997,-4.3156981300354005,-4.999691616821289
1759160713329841700,4.852841552734375,7.347355982208252,-4.364330351257324,-5.064185424041748
1759160713339900000,4.86289990234375,7.321019763946532,-4.374655345916747,-5.06912346496582
1759160713349958700,4.872958740234375,7.268197689819336,-4.347122026824951,-5.029020587158203
1759160713360016600,4.8830166015625,7.1854480949401855,-4.2785880043029785,-4.995950676727294
1759160713370075600,4.89307568359375,7.170933247375488,-4.20676195449829,-4.961384390258789
1759160713380133600,4.903133544921875,7.157316225433349,-4.153640605163574,-4.901529348754883
1759160713390191900,4.91319189453125,7.298274848175049,-4.2411786033630365,-4.819079029083252
1759160713400250600,4.923250732421875,7.174524549865723,-4.388122730255127,-4.844068508911133
1759160713410308600,4.93330859375,6.983736605072021,-4.34158543548584,-4.921131874847412
1759160713420366800,4.943366943359375,7.038503968048095,-4.197185147857666,-4.959588739013672
1759160713430425600,4.953425537109375,7.243956398010253,-4.159925384521484,-4.989665897369385
1759160713440483600,4.963483642578125,7.435043618011474,-4.191050006103516,-5.041739783477783
