seconds_elapsed,acc_z,acc_y,acc_x,grav_z,grav_y,grav_x,gyro_z,gyro_y,gyro_x
0.0200,-0.4069,0.0186,-0.0253,2.4564,-0.4046,-9.4854,0.0039,0.0575,0.0331
0.0300,-0.5057,0.0325,-0.0147,2.4594,-0.4048,-9.4846,0.0039,0.0575,0.0331
0.0400,-0.6045,0.0464,-0.0041,2.4624,-0.4049,-9.4838,0.0039,0.0575,0.0331
0.0500,-0.7720,0.0261,-0.0023,2.4624,-0.4044,-9.4839,0.0037,0.0239,0.0156
0.0600,-0.5884,0.0380,-0.0439,2.4631,-0.4043,-9.4837,0.0035,-0.0134,-0.0117
0.0700,-0.1446,0.0107,-0.0822,2.4598,-0.4042,-9.4845,0.0031,0.0601,0.0089
0.0800,0.2845,-0.0488,-0.1350,2.4513,-0.4037,-9.4868,0.0000,0.0866,0.0215
0.0900,0.4957,-0.0843,-0.1919,2.4428,-0.4033,-9.4890,-0.0045,0.0718,0.0219
0.1000,0.4202,-0.0872,-0.1834,2.4377,-0.4036,-9.4903,-0.0075,0.0294,0.0069
0.1100,0.1617,-0.0550,-0.1723,2.4376,-0.4047,-9.4902,-0.0057,-0.0117,-0.0094
0.1200,-0.0465,-0.0108,-0.1388,2.4407,-0.4058,-9.4894,-0.0018,-0.0301,-0.0206
0.1300,-0.1344,-0.0115,-0.0902,2.4440,-0.4067,-9.4885,0.0015,-0.0209,-0.0229
0.1400,-0.1117,-0.0351,-0.0873,2.4452,-0.4070,-9.4882,0.0041,0.0011,-0.0129
0.1500,-0.0049,-0.0448,-0.1175,2.4446,-0.4070,-9.4883,0.0039,0.0137,-0.0033
0.1600,0.0988,-0.0522,-0.1275,2.4431,-0.4067,-9.4887,0.0021,0.0149,0.0069
0.1700,0.1533,-0.0603,-0.1392,2.4420,-0.4065,-9.4890,0.0002,0.0056,0.0069
0.1800,0.1669,-0.0595,-0.1392,2.4420,-0.4066,-9.4890,-0.0010,-0.0050,0.0065
0.1900,0.1187,-0.0369,-0.1411,2.4431,-0.4068,-9.4887,-0.0008,-0.0146,0.0038
0.2000,0.0544,-0.0278,-0.1488,2.4452,-0.4071,-9.4882,0.0002,-0.0195,0.0026
0.2100,0.0268,-0.0286,-0.1405,2.4472,-0.4071,-9.4877,0.0006,-0.0182,0.0052
0.2200,0.0137,-0.0269,-0.1386,2.4492,-0.4073,-9.4871,-0.0004,-0.0166,0.0057
0.2300,0.0419,-0.0326,-0.1198,2.4505,-0.4071,-9.4868,0.0004,-0.0064,0.0168
0.2400,0.0916,-0.0425,-0.1064,2.4511,-0.4068,-9.4867,-0.0002,-0.0040,0.0168
0.2500,0.1188,-0.0554,-0.0986,2.4518,-0.4067,-9.4865,0.0002,-0.0083,0.0114
0.2600,0.1344,-0.0555,-0.1085,2.4530,-0.4066,-9.4862,0.0010,-0.0125,0.0103
0.2700,0.1159,-0.0452,-0.1153,2.4547,-0.4065,-9.4857,0.0031,-0.0180,0.0071
0.2800,0.0865,-0.0286,-0.1255,2.4569,-0.4063,-9.4852,0.0045,-0.0192,0.0060
0.2900,0.0671,-0.0297,-0.1211,2.4588,-0.4061,-9.4847,0.0045,-0.0158,0.0075
0.3000,0.0521,-0.0157,-0.1108,2.4606,-0.4057,-9.4843,0.0033,-0.0112,0.0087
0.3100,0.0508,0.0056,-0.1111,2.4620,-0.4054,-9.4839,0.0021,-0.0054,0.0090
0.3200,0.0608,-0.0031,-0.1245,2.4627,-0.4051,-9.4837,0.0005,-0.0011,0.0090
0.3300,0.0784,-0.0104,-0.1282,2.4630,-0.4050,-9.4837,0.0002,0.0022,0.0108
0.3400,0.0940,-0.0166,-0.1306,2.4630,-0.4048,-9.4837,-0.0001,0.0007,0.0084
0.3500,0.0902,-0.0239,-0.1246,2.4632,-0.4047,-9.4836,0.0002,-0.0033,0.0044
0.3600,0.0693,-0.0167,-0.1140,2.4638,-0.4047,-9.4835,0.0018,-0.0042,0.0035
0.3700,0.0542,-0.0145,-0.1213,2.4645,-0.4045,-9.4833,0.0024,-0.0039,0.0005
0.3800,0.0597,-0.0266,-0.1083,2.4650,-0.4043,-9.4832,0.0021,-0.0015,0.0008
0.3900,0.0712,-0.0375,-0.1012,2.4654,-0.4043,-9.4831,0.0008,0.0004,0.0017
0.4000,0.0792,-0.0398,-0.1073,2.4658,-0.4044,-9.4830,-0.0010,0.0010,0.0020
0.4100,0.0860,-0.0430,-0.1158,2.4662,-0.4047,-9.4828,-0.0013,0.0016,0.0038
0.4200,0.0821,-0.0487,-0.1279,2.4666,-0.4050,-9.4827,-0.0010,0.0013,0.0020
0.4300,0.0685,-0.0459,-0.1328,2.4670,-0.4054,-9.4826,-0.0010,0.0016,0.0035
0.4400,0.0645,-0.0479,-0.1377,2.4674,-0.4058,-9.4825,-0.0004,0.0016,0.0050
0.4500,0.0653,-0.0452,-0.1414,2.4677,-0.4061,-9.4824,-0.0004,-0.0002,0.0020
0.4600,0.0649,-0.0340,-0.1308,2.4682,-0.4065,-9.4822,-0.0007,0.0004,0.0038
0.4700,0.0681,-0.0372,-0.1057,2.4686,-0.4069,-9.4821,-0.0010,0.0016,0.0063
0.4800,0.0713,-0.0357,-0.0939,2.4689,-0.4072,-9.4820,-0.0004,0.0022,0.0060
0.4900,0.0782,-0.0318,-0.1024,2.4692,-0.4075,-9.4819,0.0002,0.0028,0.0047
0.5000,0.0708,-0.0280,-0.1240,2.4694,-0.4078,-9.4819,0.0008,0.0050,0.0053
0.5100,0.0600,-0.0134,-0.1527,2.4695,-0.4079,-9.4818,0.0015,0.0065,0.0060
0.5200,0.0410,-0.0074,-0.1611,2.4693,-0.4080,-9.4819,0.0011,0.0040,0.0029
0.5300,0.0303,-0.0086,-0.1455,2.4692,-0.4080,-9.4819,0.0018,0.0044,0.0032
0.5400,0.0497,-0.0039,-0.1287,2.4690,-0.4079,-9.4820,0.0011,0.0077,0.0044
0.5500,0.0658,-0.0160,-0.1118,2.4685,-0.4078,-9.4821,-0.0004,0.0092,0.0029
0.5600,0.0760,-0.0243,-0.1056,2.4679,-0.4079,-9.4823,-0.0007,0.0092,0.0026
0.5700,0.0742,-0.0229,-0.1114,2.4673,-0.4080,-9.4824,-0.0007,0.0080,0.0020
0.5800,0.0650,-0.0204,-0.1137,2.4668,-0.4082,-9.4825,-0.0010,0.0065,0.0014
0.5900,0.0438,-0.0106,-0.1185,2.4666,-0.4084,-9.4826,-0.0010,0.0053,0.0011
0.6000,0.0284,-0.0224,-0.1388,2.4663,-0.4086,-9.4826,-0.0001,0.0044,0.0020
0.6100,0.0250,-0.0402,-0.1471,2.4661,-0.4087,-9.4827,-0.0001,0.0031,0.0011
0.6200,0.0228,-0.0485,-0.1363,2.4660,-0.4088,-9.4827,0.0002,0.0034,-0.0011
0.6300,0.0338,-0.0304,-0.1410,2.4657,-0.4089,-9.4828,0.0005,0.0034,-0.0014
0.6400,0.0484,-0.0195,-0.1398,2.4655,-0.4091,-9.4828,-0.0001,0.0031,0.0005
0.6500,0.0534,-0.0290,-0.1313,2.4653,-0.4092,-9.4829,-0.0001,0.0025,0.0005
0.6600,0.0584,-0.0372,-0.1301,2.4651,-0.4093,-9.4829,-0.0001,0.0022,0.0005
0.6700,0.0609,-0.0383,-0.1205,2.4650,-0.4095,-9.4829,-0.0007,0.0031,0.0017
0.6800,0.0562,-0.0297,-0.1265,2.4649,-0.4097,-9.4830,-0.0010,0.0025,0.0014
0.6900,0.0551,-0.0198,-0.1444,2.4648,-0.4099,-9.4830,-0.0016,0.0022,0.0011
0.7000,0.0480,-0.0159,-0.1360,2.4647,-0.4102,-9.4830,-0.0019,0.0031,0.0029
0.7100,0.0458,-0.0181,-0.1300,2.4645,-0.4105,-9.4830,-0.0019,0.0034,0.0060
0.7200,0.0507,-0.0239,-0.1228,2.4644,-0.4106,-9.4831,-0.0019,0.0034,0.0066
0.7300,0.0557,-0.0381,-0.1036,2.4642,-0.4108,-9.4831,-0.0010,0.0031,0.0060
0.7400,0.0618,-0.0392,-0.1083,2.4640,-0.4109,-9.4831,-0.0001,0.0019,0.0050
0.7500,0.0654,-0.0475,-0.1239,2.4641,-0.4110,-9.4831,0.0002,0.0013,0.0069
0.7600,0.0605,-0.0606,-0.1227,2.4642,-0.4110,-9.4831,0.0005,-0.0008,0.0072
0.7700,0.0673,-0.0677,-0.1157,2.4646,-0.4111,-9.4830,-0.0001,-0.0042,0.0041
0.7800,0.0870,-0.0746,-0.1135,2.4653,-0.4115,-9.4828,-0.0010,-0.0033,0.0066
0.7900,0.0826,-0.0645,-0.1137,2.4660,-0.4120,-9.4826,-0.0001,-0.0033,0.0053
0.8000,0.0723,-0.0472,-0.1211,2.4668,-0.4125,-9.4823,0.0015,-0.0030,0.0032
0.8100,0.0631,-0.0396,-0.1273,2.4676,-0.4129,-9.4821,0.0036,0.0001,0.0041
0.8200,0.0531,-0.0347,-0.1346,2.4680,-0.4130,-9.4820,0.0045,0.0031,0.0053
0.8300,0.0458,-0.0227,-0.1574,2.4681,-0.4130,-9.4820,0.0045,0.0062,0.0087
0.8400,0.0448,-0.0134,-0.1741,2.4679,-0.4128,-9.4821,0.0033,0.0095,0.0118
0.8500,0.0503,-0.0136,-0.1703,2.4672,-0.4125,-9.4822,0.0005,0.0111,0.0136
0.8600,0.0511,-0.0150,-0.1557,2.4664,-0.4124,-9.4824,-0.0013,0.0092,0.0133
0.8700,0.0541,-0.0209,-0.1304,2.4658,-0.4124,-9.4826,-0.0007,0.0068,0.0121
0.8800,0.0498,-0.0294,-0.1087,2.4653,-0.4124,-9.4827,0.0008,0.0044,0.0102
0.8900,0.0464,-0.0127,-0.1051,2.4651,-0.4122,-9.4828,0.0021,0.0022,0.0099
0.9000,0.0320,-0.0034,-0.1182,2.4651,-0.4120,-9.4828,0.0039,0.0004,0.0096
0.9100,0.0175,-0.0063,-0.1350,2.4653,-0.4115,-9.4828,0.0039,0.0010,0.0105
0.9200,0.0307,-0.0188,-0.1302,2.4653,-0.4109,-9.4828,0.0021,0.0034,0.0121
0.9300,0.0465,-0.0444,-0.1194,2.4650,-0.4105,-9.4829,-0.0007,0.0044,0.0127
0.9400,0.0516,-0.0385,-0.1193,2.4647,-0.4104,-9.4830,-0.0022,0.0044,0.0148
0.9500,0.0578,-0.0349,-0.1204,2.4645,-0.4104,-9.4830,-0.0025,0.0037,0.0157
0.9600,0.0556,-0.0397,-0.1204,2.4643,-0.4105,-9.4831,-0.0028,0.0016,0.0145
0.9700,0.0508,-0.0371,-0.1168,2.4643,-0.4106,-9.4831,-0.0019,0.0004,0.0145
0.9800,0.0470,-0.0287,-0.1228,2.4645,-0.4106,-9.4830,-0.0001,0.0001,0.0121
0.9900,0.0420,-0.0204,-0.1432,2.4647,-0.4105,-9.4830,0.0011,-0.0002,0.0111
1.0000,0.0502,-0.0350,-0.1480,2.4649,-0.4103,-9.4829,0.0021,-0.0008,0.0127
1.0100,0.0620,-0.0497,-0.1409,2.4651,-0.4100,-9.4829,0.0036,-0.0008,0.0136
1.0200,0.0593,-0.0560,-0.1290,2.4654,-0.4096,-9.4828,0.0042,-0.0002,0.0139
1.0300,0.0555,-0.0541,-0.1111,2.4656,-0.4092,-9.4828,0.0051,-0.0002,0.0142
1.0400,0.0552,-0.0437,-0.0992,2.4659,-0.4088,-9.4827,0.0066,-0.0005,0.0148
1.0500,0.0573,-0.0347,-0.1052,2.4662,-0.4082,-9.4827,0.0066,-0.0011,0.0127
1.0600,0.0473,-0.0269,-0.1244,2.4666,-0.4077,-9.4826,0.0063,-0.0018,0.0118
1.0700,0.0301,-0.0238,-0.1305,2.4670,-0.4072,-9.4825,0.0066,-0.0015,0.0124
1.0800,0.0310,-0.0112,-0.1258,2.4674,-0.4066,-9.4825,0.0066,-0.0011,0.0121
1.0900,0.0211,-0.0095,-0.1246,2.4676,-0.4059,-9.4824,0.0057,0.0001,0.0118
1.1000,0.0150,-0.0221,-0.1282,2.4678,-0.4052,-9.4824,0.0048,0.0019,0.0118
1.1100,0.0163,-0.0311,-0.1425,2.4677,-0.4046,-9.4825,0.0042,0.0022,0.0121
1.1200,0.0225,-0.0412,-0.1556,2.4675,-0.4041,-9.4825,0.0048,0.0004,0.0102
1.1300,0.0320,-0.0429,-0.1484,2.4675,-0.4036,-9.4825,0.0063,-0.0024,0.0078
1.1400,0.0294,-0.0303,-0.1401,2.4678,-0.4030,-9.4825,0.0079,-0.0042,0.0066
1.1500,0.0302,-0.0250,-0.1390,2.4682,-0.4024,-9.4824,0.0094,-0.0057,0.0063
1.1600,0.0345,-0.0354,-0.1283,2.4687,-0.4015,-9.4823,0.0103,-0.0076,0.0066
1.1700,0.0266,-0.0279,-0.1117,2.4694,-0.4006,-9.4822,0.0103,-0.0082,0.0075
1.1800,0.0282,-0.0133,-0.1154,2.4702,-0.3997,-9.4820,0.0094,-0.0076,0.0105
1.1900,0.0466,-0.0154,-0.1096,2.4709,-0.3988,-9.4819,0.0082,-0.0085,0.0124
1.2000,0.0637,-0.0235,-0.0846,2.4717,-0.3979,-9.4817,0.0076,-0.0115,0.0115
1.2100,0.0841,-0.0279,-0.0670,2.4729,-0.3971,-9.4814,0.0076,-0.0140,0.0108
1.2200,0.0898,-0.0167,-0.0625,2.4743,-0.3963,-9.4811,0.0073,-0.0152,0.0108
1.2300,0.0930,-0.0067,-0.0881,2.4760,-0.3956,-9.4807,0.0076,-0.0140,0.0105
1.2400,0.1117,-0.0170,-0.1315,2.4776,-0.3948,-9.4803,0.0088,-0.0060,0.0133
1.2500,0.1012,-0.0215,-0.1952,2.4786,-0.3939,-9.4801,0.0103,0.0050,0.0163
1.2600,0.0581,0.0013,-0.2634,2.4786,-0.3927,-9.4801,0.0137,0.0071,0.0160
1.2700,0.0094,0.0237,-0.2944,2.4782,-0.3912,-9.4803,0.0158,0.0019,0.0127
1.2800,-0.0289,0.0435,-0.2715,2.4782,-0.3894,-9.4804,0.0118,0.0034,0.0096
1.2900,-0.0178,0.0720,-0.1864,2.4779,-0.3881,-9.4805,0.0021,0.0169,0.0130
1.3000,0.0293,0.0858,-0.0830,2.4763,-0.3875,-9.4809,-0.0092,0.0312,0.0154
1.3100,0.0561,0.0802,-0.0128,2.4733,-0.3878,-9.4817,-0.0163,0.0352,0.0130
1.3200,0.0641,0.0715,0.0143,2.4701,-0.3887,-9.4825,-0.0187,0.0294,0.0096
1.3300,0.0594,0.0533,-0.0042,2.4677,-0.3897,-9.4831,-0.0181,0.0181,0.0057
1.3400,0.0416,0.0268,-0.0494,2.4663,-0.3907,-9.4834,-0.0157,0.0074,0.0029
1.3500,0.0252,0.0024,-0.1116,2.4660,-0.3915,-9.4835,-0.0123,0.0013,0.0026
1.3600,0.0071,-0.0244,-0.1691,2.4662,-0.3921,-9.4834,-0.0089,-0.0008,0.0041
1.3700,-0.0099,-0.0479,-0.2255,2.4664,-0.3926,-9.4833,-0.0062,-0.0021,0.0047
1.3800,-0.0329,-0.0739,-0.2794,2.4666,-0.3930,-9.4832,-0.0053,-0.0027,0.0026
1.3900,-0.0403,-0.0998,-0.2795,2.4668,-0.3934,-9.4832,-0.0065,0.0004,0.0008
1.4000,-0.0220,-0.1015,-0.2483,2.4665,-0.3941,-9.4832,-0.0077,0.0065,0.0017
1.4100,-0.0114,-0.1113,-0.2086,2.4654,-0.3950,-9.4834,-0.0074,0.0126,0.0026
1.4200,0.0048,-0.1246,-0.1531,2.4637,-0.3962,-9.4839,-0.0068,0.0157,0.0035
1.4300,0.0224,-0.1185,-0.0988,2.4616,-0.3975,-9.4843,-0.0062,0.0147,0.0057
1.4400,0.0291,-0.1231,-0.0696,2.4597,-0.3989,-9.4848,-0.0028,0.0117,0.0072
1.4500,0.0354,-0.1193,-0.0561,2.4582,-0.4002,-9.4851,0.0002,0.0074,0.0069
1.4600,0.0435,-0.1037,-0.0607,2.4572,-0.4015,-9.4853,0.0030,0.0053,0.0057
1.4700,0.0513,-0.0761,-0.0893,2.4566,-0.4027,-9.4854,0.0066,0.0059,0.0060
1.4800,0.0543,-0.0526,-0.1251,2.4560,-0.4035,-9.4855,0.0076,0.0062,0.0066
1.4900,0.0572,-0.0353,-0.1501,2.4555,-0.4040,-9.4856,0.0069,0.0059,0.0069
1.5000,0.0564,-0.0255,-0.1560,2.4551,-0.4043,-9.4857,0.0069,0.0044,0.0078
1.5100,0.0579,-0.0075,-0.1547,2.4548,-0.4043,-9.4858,0.0063,0.0047,0.0084
1.5200,0.0690,-0.0052,-0.1439,2.4545,-0.4042,-9.4859,0.0045,0.0092,0.0093
1.5300,0.0756,-0.0174,-0.1353,2.4538,-0.4040,-9.4861,0.0039,0.0135,0.0078
1.5400,0.0695,-0.0032,-0.1422,2.4528,-0.4038,-9.4863,0.0048,0.0157,0.0035
1.5500,0.0671,0.0074,-0.1359,2.4516,-0.4036,-9.4867,0.0054,0.0184,0.0017
1.5600,0.0686,0.0046,-0.1271,2.4501,-0.4033,-9.4871,0.0060,0.0205,0.0020
1.5700,0.0571,0.0102,-0.1339,2.4484,-0.4028,-9.4875,0.0057,0.0227,0.0032
1.5800,0.0303,0.0240,-0.1393,2.4465,-0.4023,-9.4880,0.0048,0.0273,0.0050
1.5900,0.0135,0.0271,-0.1387,2.4441,-0.4018,-9.4887,0.0027,0.0318,0.0057
1.6000,0.0176,0.0195,-0.1332,2.4413,-0.4014,-9.4894,-0.0010,0.0361,0.0057
1.6100,0.0316,0.0123,-0.1383,2.4380,-0.4013,-9.4903,-0.0068,0.0389,0.0057
1.6200,0.0484,0.0187,-0.1518,2.4344,-0.4018,-9.4912,-0.0123,0.0386,0.0063
1.6300,0.0459,0.0209,-0.1449,2.4309,-0.4028,-9.4920,-0.0147,0.0392,0.0066
1.6400,0.0386,0.0268,-0.1477,2.4274,-0.4039,-9.4929,-0.0160,0.0410,0.0063
1.6500,0.0387,0.0436,-0.1743,2.4237,-0.4051,-9.4938,-0.0166,0.0407,0.0053
1.6600,0.0424,0.0556,-0.1950,2.4201,-0.4063,-9.4946,-0.0175,0.0398,0.0050
1.6700,0.0578,0.0496,-0.2408,2.4166,-0.4075,-9.4955,-0.0175,0.0398,0.0072
1.6800,0.0613,0.0530,-0.2939,2.4131,-0.4085,-9.4963,-0.0138,0.0364,0.0115
1.6900,0.0561,0.0667,-0.3098,2.4099,-0.4090,-9.4971,-0.0071,0.0270,0.0157
1.7000,0.0250,0.0604,-0.3224,2.4076,-0.4088,-9.4977,-0.0010,0.0181,0.0191
1.7100,-0.0009,0.0499,-0.2896,2.4059,-0.4078,-9.4982,0.0002,0.0150,0.0188
1.7200,0.0173,0.0153,-0.1814,2.4044,-0.4067,-9.4986,-0.0095,0.0205,0.0154
1.7300,0.0122,0.0033,-0.0600,2.4024,-0.4067,-9.4991,-0.0254,0.0270,0.0093
1.7400,0.0004,0.0398,0.0423,2.3998,-0.4085,-9.4997,-0.0386,0.0309,0.0014
1.7500,-0.0062,0.0776,0.0968,2.3968,-0.4116,-9.5003,-0.0468,0.0376,-0.0053
1.7600,-0.0255,0.0910,0.1202,2.3933,-0.4154,-9.5010,-0.0489,0.0438,-0.0115
1.7700,-0.0369,0.0868,0.1091,2.3892,-0.4196,-9.5019,-0.0474,0.0486,-0.0157
1.7800,-0.0360,0.0838,0.0562,2.3847,-0.4238,-9.5028,-0.0459,0.0538,-0.0182
1.7900,-0.0081,0.0723,-0.0037,2.3796,-0.4279,-9.5039,-0.0453,0.0599,-0.0194
1.8000,0.0047,0.0499,-0.0624,2.3739,-0.4318,-9.5052,-0.0474,0.0621,-0.0228
1.8100,0.0117,0.0362,-0.1341,2.3681,-0.4360,-9.5064,-0.0523,0.0572,-0.0295
1.8200,0.0171,0.0315,-0.1905,2.3627,-0.4409,-9.5075,-0.0575,0.0505,-0.0365
1.8300,-0.0164,0.0035,-0.2075,2.3579,-0.4464,-9.5085,-0.0639,0.0465,-0.0423
1.8400,-0.0358,-0.0141,-0.2115,2.3534,-0.4527,-9.5093,-0.0694,0.0410,-0.0481
1.8500,-0.0496,-0.0370,-0.2000,2.3492,-0.4598,-9.5100,-0.0755,0.0376,-0.0542
1.8600,-0.0612,-0.0805,-0.1647,2.3452,-0.4678,-9.5106,-0.0828,0.0444,-0.0588
1.8700,-0.0362,-0.0955,-0.1221,2.3406,-0.4767,-9.5113,-0.0914,0.0563,-0.0573
1.8800,-0.0124,-0.0880,-0.1032,2.3348,-0.4866,-9.5122,-0.1033,0.0633,-0.0515
1.8900,0.0322,-0.1190,-0.0184,2.3285,-0.4975,-9.5132,-0.1183,0.0590,-0.0493
1.9000,0.0644,-0.1545,0.0721,2.3226,-0.5099,-9.5140,-0.1342,0.0453,-0.0512
1.9100,0.0258,-0.1345,0.0509,2.3181,-0.5239,-9.5143,-0.1464,0.0306,-0.0524
1.9200,-0.0346,-0.1026,0.0089,2.3150,-0.5391,-9.5142,-0.1543,0.0242,-0.0515
1.9300,-0.0703,-0.0879,-0.0464,2.3125,-0.5550,-9.5139,-0.1568,0.0288,-0.0499
1.9400,-0.0721,-0.0838,-0.1161,2.3095,-0.5710,-9.5137,-0.1531,0.0398,-0.0469
1.9500,-0.0358,-0.0837,-0.1807,2.3055,-0.5867,-9.5137,-0.1445,0.0511,-0.0432
1.9600,0.0352,-0.0749,-0.2510,2.3003,-0.6014,-9.5140,-0.1354,0.0526,-0.0414
1.9700,0.0860,-0.0695,-0.3033,2.2951,-0.6152,-9.5144,-0.1274,0.0483,-0.0402
1.9800,0.1004,-0.0804,-0.2934,2.2902,-0.6283,-9.5147,-0.1180,0.0544,-0.0344
1.9900,0.1010,-0.0888,-0.2426,2.2848,-0.6402,-9.5152,-0.1113,0.0670,-0.0243
2.0000,0.0907,-0.0633,-0.2442,2.2784,-0.6514,-9.5160,-0.1109,0.0636,-0.0206
2.0100,0.0548,-0.0248,-0.2699,2.2723,-0.6623,-9.5167,-0.1140,0.0389,-0.0249
2.0200,-0.0060,-0.0039,-0.2698,2.2686,-0.6737,-9.5168,-0.1155,0.0141,-0.0267
2.0300,-0.0561,-0.0044,-0.2523,2.2671,-0.6851,-9.5164,-0.1134,0.0062,-0.0237
2.0400,-0.0708,-0.0101,-0.2361,2.2663,-0.6962,-9.5157,-0.1134,0.0160,-0.0179
2.0500,-0.0236,-0.0314,-0.1659,2.2646,-0.7072,-9.5153,-0.1201,0.0480,-0.0035
2.0600,0.0864,-0.0441,-0.0806,2.2599,-0.7185,-9.5156,-0.1369,0.1009,0.0228
2.0700,0.1677,-0.0078,-0.0782,2.2505,-0.7308,-9.5169,-0.1555,0.1299,0.0454
2.0800,0.1734,0.0056,-0.1052,2.2388,-0.7442,-9.5186,-0.1650,0.1164,0.0554
2.0900,0.1042,-0.0057,-0.0920,2.2289,-0.7580,-9.5199,-0.1726,0.0963,0.0576
2.1000,0.0269,0.0397,-0.0662,2.2212,-0.7723,-9.5205,-0.1821,0.1051,0.0542
2.1100,-0.0053,0.1361,-0.1038,2.2127,-0.7873,-9.5212,-0.1876,0.1409,0.0557
2.1200,-0.0498,0.2263,-0.2088,2.2010,-0.8021,-9.5227,-0.1824,0.1601,0.0582
2.1300,-0.0806,0.2227,-0.2619,2.1875,-0.8152,-9.5247,-0.1690,0.1577,0.0576
2.1400,-0.0455,0.0659,-0.1819,2.1740,-0.8261,-9.5269,-0.1641,0.1650,0.0673
2.1500,-0.0409,-0.1381,-0.1005,2.1597,-0.8363,-9.5292,-0.1846,0.1522,0.0722
2.1600,-0.1689,-0.2862,-0.1550,2.1465,-0.8498,-9.5310,-0.2273,0.1012,0.0619
2.1700,-0.3563,-0.4167,-0.2840,2.1376,-0.8690,-9.5313,-0.2661,0.1000,0.0686
2.1800,-0.4306,-0.5391,-0.3787,2.1281,-0.8926,-9.5312,-0.3052,0.1956,0.1083
2.1900,-0.4257,-0.5082,-0.4392,2.1089,-0.9199,-9.5329,-0.3562,0.3064,0.1513
2.2000,-0.4443,-0.2175,-0.5614,2.0783,-0.9521,-9.5364,-0.4032,0.4109,0.1718
2.2100,-0.4023,0.1295,-0.7756,2.0388,-0.9878,-9.5413,-0.4277,0.5355,0.1651
2.2200,-0.3019,0.2854,-0.9342,1.9886,-1.0252,-9.5479,-0.4222,0.6369,0.1290
2.2300,-0.2478,0.3131,-1.0373,1.9285,-1.0625,-9.5562,-0.4081,0.7087,0.0878
2.2400,-0.2415,0.3747,-1.1801,1.8612,-1.0989,-9.5654,-0.4014,0.7826,0.0637
2.2500,-0.2148,0.4405,-1.3341,1.7866,-1.1348,-9.5754,-0.3984,0.8519,0.0380
2.2600,-0.1991,0.4788,-1.5438,1.7051,-1.1708,-9.5859,-0.3996,0.8980,-0.0084
2.2700,-0.1798,0.5267,-1.8507,1.6188,-1.2078,-9.5963,-0.4045,0.8984,-0.0875
2.2800,-0.0901,0.5073,-2.1562,1.5314,-1.2471,-9.6056,-0.3990,0.8745,-0.1840
2.2900,0.1435,0.3410,-2.3398,1.4450,-1.2879,-9.6136,-0.3907,0.9093,-0.2485
2.3000,0.5036,0.0432,-2.2424,1.3543,-1.3289,-9.6212,-0.4161,0.9491,-0.2625
2.3100,0.8977,-0.2652,-1.9016,1.2594,-1.3724,-9.6280,-0.4961,0.9106,-0.2582
2.3200,1.2464,-0.4513,-1.4893,1.1681,-1.4233,-9.6321,-0.6009,0.8144,-0.2509
2.3300,1.3728,-0.4984,-1.1548,1.0861,-1.4840,-9.6325,-0.6864,0.6852,-0.2347
2.3400,1.2340,-0.4214,-1.0599,1.0165,-1.5526,-9.6293,-0.7365,0.5263,-0.2356
2.3500,0.9293,-0.2824,-1.1897,0.9621,-1.6258,-9.6229,-0.7493,0.3712,-0.2567
2.3600,0.6257,-0.1779,-1.4692,0.9221,-1.7003,-9.6139,-0.7316,0.2689,-0.2647
2.3700,0.3748,-0.2070,-1.7284,0.8917,-1.7730,-9.6036,-0.6998,0.1775,-0.2601
2.3800,0.1524,-0.4330,-1.8798,0.8691,-1.8535,-9.5904,-0.6919,0.0848,-0.2358
2.3900,0.0578,-0.5892,-1.9468,0.8600,-1.8984,-9.5824,-0.7004,0.0467,-0.2128
2.4000,-0.1279,-0.9070,-2.0112,0.8486,-1.9781,-9.5675,-0.7380,-0.0039,-0.1709
2.4100,-0.2422,-1.1486,-2.0477,0.8455,-2.0500,-9.5525,-0.8217,0.0010,-0.1306
2.4200,-0.2860,-1.3300,-2.1235,0.8427,-2.1296,-9.5354,-0.9066,0.0095,-0.1104
2.4300,-0.3354,-1.5983,-2.1120,0.8394,-2.2169,-9.5157,-0.9607,0.0202,-0.1101
2.4400,-0.2999,-1.8233,-2.0474,0.8350,-2.3091,-9.4941,-1.0019,0.0767,-0.1052
2.4500,-0.1656,-1.9956,-1.8908,0.8252,-2.4050,-9.4711,-1.0321,0.1235,-0.1031
2.4600,-0.0389,-2.1605,-1.5931,0.8110,-2.5034,-9.4468,-1.0648,0.1476,-0.0948
2.4700,0.0409,-2.2125,-1.3067,0.7947,-2.6046,-9.4208,-1.1112,0.1668,-0.0738
2.4800,0.0514,-2.1937,-1.0369,0.7770,-2.7098,-9.3926,-1.1616,0.1671,-0.0557
2.4900,0.0195,-2.1240,-0.8271,0.7598,-2.8191,-9.3617,-1.2053,0.1586,-0.0454
2.5000,-0.0446,-2.0577,-0.7373,0.7437,-2.9321,-9.3282,-1.2386,0.1351,-0.0463
2.5100,-0.1456,-2.0019,-0.6943,0.7298,-3.0477,-9.2922,-1.2603,0.1149,-0.0502
2.5200,-0.2375,-1.9230,-0.6883,0.7175,-3.1650,-9.2539,-1.2765,0.1339,-0.0435
2.5300,-0.2836,-1.8395,-0.7441,0.7038,-3.2831,-9.2137,-1.2924,0.1604,-0.0380
2.5400,-0.3059,-1.7169,-0.8676,0.6878,-3.4022,-9.1716,-1.3073,0.1824,-0.0338
2.5500,-0.2869,-1.5611,-1.0565,0.6699,-3.5221,-9.1275,-1.3171,0.2133,-0.0166
2.5600,-0.2477,-1.3836,-1.2459,0.6499,-3.6421,-9.0818,-1.3260,0.2331,0.0111
2.5700,-0.2103,-1.1653,-1.4216,0.6292,-3.7621,-9.0342,-1.3366,0.2292,0.0444
2.5800,-0.1186,-0.8837,-1.4845,0.6086,-3.9023,-8.9753,-1.3504,0.2167,0.0910
2.5900,-0.0564,-0.7198,-1.4560,0.5982,-3.9824,-8.9408,-1.3596,0.2123,0.1195
2.6000,0.0923,-0.3903,-1.3198,0.5817,-4.1228,-8.8786,-1.3858,0.2142,0.1688
2.6100,0.2682,-0.1261,-1.0856,0.5698,-4.2445,-8.8219,-1.4237,0.2185,0.2036
2.6200,0.4402,0.0542,-0.8118,0.5594,-4.3685,-8.7618,-1.4683,0.2038,0.2274
2.6300,0.5772,0.2301,-0.5932,0.5517,-4.4954,-8.6978,-1.5184,0.1696,0.2439
2.6400,0.6562,0.3567,-0.4269,0.5481,-4.6256,-8.6295,-1.5703,0.0847,0.2424
2.6500,0.6616,0.3917,-0.2832,0.5523,-4.7587,-8.5565,-1.6106,-0.0112,0.2271
2.6600,0.5893,0.3991,-0.1674,0.5647,-4.8930,-8.4796,-1.6402,-0.0717,0.2112
2.6700,0.4413,0.4076,-0.0727,0.5822,-5.0272,-8.3995,-1.6668,-0.1270,0.1849
2.6800,0.2667,0.4311,-0.0144,0.6036,-5.1609,-8.3165,-1.6806,-0.1670,0.1474
2.6900,0.1130,0.5034,0.0884,0.6268,-5.2930,-8.2314,-1.6787,-0.1734,0.1095
2.7000,-0.0141,0.6051,0.2332,0.6485,-5.4222,-8.1451,-1.6680,-0.1594,0.0741
2.7100,-0.0733,0.7211,0.3657,0.6671,-5.5478,-8.0586,-1.6558,-0.1478,0.0396
2.7200,-0.1328,0.8505,0.4564,0.6823,-5.6712,-7.9709,-1.6470,-0.1478,0.0121
2.7300,-0.2070,0.9674,0.4825,0.6954,-5.7941,-7.8809,-1.6348,-0.1542,-0.0050
2.7400,-0.2585,1.0535,0.4633,0.7074,-5.9161,-7.7887,-1.6039,-0.1600,-0.0179
2.7500,-0.2866,1.0915,0.4538,0.7187,-6.0356,-7.6954,-1.5373,-0.1664,-0.0396
2.7600,-0.2201,1.0499,0.4996,0.7289,-6.1499,-7.6035,-1.4622,-0.1529,-0.0579
2.7700,-0.0915,0.9391,0.5501,0.7367,-6.2581,-7.5139,-1.4048,-0.1044,-0.0554
2.7800,0.0228,0.7935,0.5462,0.7409,-6.3615,-7.4262,-1.3531,-0.0503,-0.0554
2.7900,0.1305,0.6086,0.5357,0.7410,-6.4603,-7.3404,-1.3024,-0.0247,-0.0805
2.8000,0.2488,0.3451,0.5644,0.7376,-6.5548,-7.2565,-1.2569,-0.0234,-0.1303
2.8100,0.3610,0.0836,0.5482,0.7307,-6.6452,-7.1745,-1.2224,-0.0241,-0.1862
2.8200,0.4206,-0.0853,0.4508,0.7202,-6.7325,-7.0938,-1.1907,-0.0329,-0.2369
2.8300,0.4028,-0.1676,0.3558,0.7070,-6.8166,-7.0143,-1.1586,-0.0699,-0.2854
2.8400,0.3545,-0.1441,0.2967,0.6930,-6.8976,-6.9361,-1.1290,-0.1221,-0.3224
2.8500,0.2919,-0.0361,0.2782,0.6801,-6.9757,-6.8589,-1.1048,-0.1697,-0.3340
2.8600,0.2583,0.2010,0.2818,0.6695,-7.0512,-6.7824,-1.0853,-0.2565,-0.3242
2.8700,0.2351,0.5604,0.3106,0.6651,-7.1244,-6.7058,-1.0636,-0.3777,-0.3025
2.8800,0.1801,0.9390,0.3740,0.6698,-7.1953,-6.6292,-1.0389,-0.4767,-0.2692
2.8900,0.1146,1.3260,0.4986,0.6827,-7.2639,-6.5526,-1.0120,-0.5430,-0.2210
2.9000,0.0254,1.6808,0.6521,0.7025,-7.3302,-6.4763,-0.9839,-0.5601,-0.1550
2.9100,-0.1575,1.9579,0.7568,0.7273,-7.3942,-6.4003,-0.9533,-0.5332,-0.0817
2.9200,-0.3948,2.2083,0.8258,0.7552,-7.4555,-6.3256,-0.9145,-0.4749,-0.0215
2.9300,-0.5656,2.4180,0.8507,0.7834,-7.5132,-6.2535,-0.8620,-0.3839,0.0197
2.9400,-0.6616,2.5409,0.8353,0.8088,-7.5667,-6.1854,-0.7921,-0.2919,0.0359
2.9500,-0.6607,2.6002,0.8458,0.8295,-7.6151,-6.1229,-0.7065,-0.2376,0.0093
2.9600,-0.5610,2.6252,0.9192,0.8447,-7.6581,-6.0670,-0.6174,-0.2238,-0.0478
2.9700,-0.4643,2.6043,0.9704,0.8546,-7.6958,-6.0177,-0.5456,-0.2293,-0.1013
2.9800,-0.4595,2.5577,0.9635,0.8605,-7.7294,-5.9737,-0.4854,-0.2394,-0.1535
2.9900,-0.5899,2.5137,0.8987,0.8629,-7.7597,-5.9340,-0.4365,-0.2400,-0.2094
3.0000,-0.7854,2.4587,0.7849,0.8608,-7.7873,-5.8980,-0.3981,-0.2033,-0.2720
3.0100,-0.8516,2.3731,0.6599,0.8516,-7.8130,-5.8652,-0.3532,-0.1145,-0.3493
3.0200,-0.7447,2.2794,0.4793,0.8309,-7.8366,-5.8366,-0.3021,0.0059,-0.4192
3.0300,-0.5116,2.1448,0.2401,0.7977,-7.8577,-5.8130,-0.2438,0.1091,-0.4717
3.0400,-0.1988,1.9088,0.0267,0.7543,-7.8755,-5.7946,-0.1818,0.1644,-0.5017
3.0500,0.0597,1.6297,-0.1564,0.7052,-7.8896,-5.7815,-0.1250,0.1671,-0.5001
3.0600,0.1412,1.4296,-0.2944,0.6561,-7.9003,-5.7728,-0.0752,0.1149,-0.4815
3.0700,0.1919,1.2431,-0.3068,0.6114,-7.9077,-5.7676,-0.0270,0.0315,-0.4662
3.0800,0.3982,0.9470,-0.2046,0.5727,-7.9120,-5.7656,0.0195,-0.0427,-0.4504
3.0900,0.6755,0.6287,-0.0190,0.5395,-7.9134,-5.7669,0.0656,-0.1187,-0.3957
3.1000,0.8137,0.4043,0.1795,0.5151,-7.9117,-5.7715,0.0971,-0.2137,-0.3215
3.1100,0.7694,0.2400,0.3813,0.5020,-7.9077,-5.7781,0.1074,-0.3127,-0.2665
3.1200,0.6478,0.0843,0.5821,0.4990,-7.9028,-5.7850,0.1111,-0.3933,-0.2265
3.1300,0.5268,-0.0407,0.7637,0.5039,-7.8975,-5.7918,0.1151,-0.4260,-0.1990
3.1400,0.3837,-0.1087,0.9276,0.5130,-7.8918,-5.7988,0.1224,-0.4086,-0.1761
3.1500,0.1532,-0.0922,1.0263,0.5231,-7.8856,-5.8064,0.1340,-0.3652,-0.1629
3.1600,-0.0831,-0.0356,1.0373,0.5320,-7.8787,-5.8149,0.1551,-0.3105,-0.1666
3.1700,-0.2657,0.0043,1.0320,0.5374,-7.8707,-5.8252,0.1881,-0.2540,-0.1791
3.1800,-0.4368,-0.0054,1.0474,0.5385,-7.8610,-5.8382,0.2238,-0.2110,-0.1953
3.1900,-0.5238,-0.0326,1.0584,0.5358,-7.8494,-5.8540,0.2482,-0.1759,-0.2127
3.2000,-0.6348,-0.0981,0.9766,0.5294,-7.8366,-5.8717,0.2598,-0.1258,-0.2201
3.2100,-0.7828,-0.1652,0.8323,0.5194,-7.8233,-5.8903,0.2705,-0.0518,-0.2191
3.2200,-0.8257,-0.2233,0.7464,0.5049,-7.8096,-5.9098,0.2788,0.0031,-0.2246
3.2300,-0.8443,-0.2948,0.6946,0.4864,-7.7955,-5.9298,0.2773,0.0105,-0.2417
3.2400,-0.8248,-0.3574,0.6626,0.4656,-7.7819,-5.9493,0.2690,-0.0088,-0.2668
3.2500,-0.7717,-0.4348,0.6474,0.4437,-7.7692,-5.9676,0.2574,-0.0378,-0.2921
3.2600,-0.7228,-0.5243,0.6402,0.4211,-7.7576,-5.9844,0.2446,-0.0604,-0.3096
3.2700,-0.6435,-0.6246,0.6290,0.3981,-7.7471,-5.9995,0.2296,-0.0604,-0.3108
3.2800,-0.5196,-0.7056,0.6293,0.3748,-7.7378,-6.0130,0.2110,-0.0338,-0.2882
3.2900,-0.3645,-0.7685,0.6312,0.3514,-7.7300,-6.0244,0.1905,0.0040,-0.2454
3.3000,-0.2140,-0.8108,0.6442,0.3290,-7.7236,-6.0338,0.1704,0.0370,-0.1862
3.3100,-0.1166,-0.8468,0.6551,0.3093,-7.7187,-6.0412,0.1490,0.0627,-0.1104
3.3200,-0.0369,-0.8838,0.6280,0.2943,-7.7152,-6.0464,0.1175,0.1027,0.0047
3.3300,0.0144,-0.9057,0.5550,0.2861,-7.7137,-6.0488,0.0836,0.1500,0.1312
3.3400,-0.0181,-0.8779,0.4468,0.2850,-7.7140,-6.0483,0.0570,0.1879,0.2308
3.3500,-0.1160,-0.7483,0.3094,0.2896,-7.7155,-6.0462,0.0320,0.2191,0.3117
3.3600,-0.2388,-0.5257,0.1396,0.2987,-7.7178,-6.0428,0.0121,0.2346,0.3612
3.3700,-0.3045,-0.2249,-0.0297,0.3105,-7.7206,-6.0387,-0.0025,0.2285,0.3761
3.3800,-0.3056,0.1444,-0.1359,0.3235,-7.7236,-6.0342,-0.0126,0.1968,0.3664
3.3900,-0.2931,0.5160,-0.1595,0.3374,-7.7264,-6.0298,-0.0114,0.1381,0.3395
3.4000,-0.2820,0.8675,-0.1174,0.3526,-7.7284,-6.0264,0.0024,0.0602,0.2998
3.4100,-0.2895,1.1608,-0.0155,0.3697,-7.7284,-6.0253,0.0271,-0.0137,0.2527
3.4200,-0.3029,1.3072,0.0710,0.3879,-7.7263,-6.0269,0.0589,-0.0525,0.2042
3.4300,-0.2974,1.2572,0.0887,0.4051,-7.7219,-6.0314,0.0906,-0.0354,0.1620
3.4400,-0.2687,1.0150,0.0339,0.4183,-7.7154,-6.0388,0.1181,0.0544,0.1168
3.4500,-0.1499,0.6669,-0.0914,0.4229,-7.7074,-6.0488,0.1316,0.1513,0.0689
3.4600,0.0286,0.2978,-0.2499,0.4179,-7.6986,-6.0603,0.1322,0.1901,0.0295
3.4700,0.2040,-0.0485,-0.4189,0.4077,-7.6898,-6.0721,0.1279,0.1861,0.0020
3.4800,0.3798,-0.3335,-0.5247,0.3959,-7.6814,-6.0836,0.1175,0.1516,-0.0032
3.4900,0.5164,-0.5699,-0.5179,0.3862,-7.6736,-6.0940,0.0995,0.1079,0.0142
3.5000,0.6031,-0.7226,-0.4709,0.3809,-7.6669,-6.1027,0.0744,0.0764,0.0441
3.5100,0.6493,-0.7517,-0.4225,0.3802,-7.6618,-6.1092,0.0503,0.0651,0.0786
3.5200,0.6952,-0.7111,-0.3786,0.3833,-7.6581,-6.1136,0.0357,0.0642,0.1040
3.5300,0.7614,-0.6157,-0.3359,0.3890,-7.6553,-6.1167,0.0314,0.0627,0.1135
3.5400,0.8047,-0.5045,-0.2974,0.3960,-7.6529,-6.1194,0.0329,0.0517,0.1132
3.5500,0.7905,-0.3777,-0.2181,0.4042,-7.6504,-6.1220,0.0323,0.0071,0.0927
3.5600,0.7354,-0.2053,-0.0518,0.4138,-7.6480,-6.1243,0.0283,-0.0619,0.0545
3.5700,0.6391,-0.0360,0.1808,0.4251,-7.6460,-6.1259,0.0268,-0.1279,0.0102
3.5800,0.4567,0.0666,0.3878,0.4376,-7.6445,-6.1270,0.0305,-0.1762,-0.0383
3.5900,0.2160,0.0652,0.4568,0.4496,-7.6432,-6.1278,0.0405,-0.1850,-0.0878
3.6000,0.0098,-0.0272,0.4030,0.4583,-7.6417,-6.1290,0.0549,-0.1539,-0.1309
3.6100,-0.0949,-0.1704,0.2711,0.4612,-7.6398,-6.1312,0.0705,-0.1080,-0.1623
3.6200,-0.1061,-0.3394,0.1332,0.4581,-7.6372,-6.1346,0.0833,-0.0699,-0.1816
3.6300,-0.0711,-0.5329,0.0851,0.4506,-7.6340,-6.1391,0.0879,-0.0436,-0.1816
3.6400,-0.0162,-0.6762,0.1329,0.4411,-7.6308,-6.1438,0.0821,-0.0241,-0.1614
3.6500,0.0171,-0.7100,0.3032,0.4318,-7.6281,-6.1478,0.0674,-0.0057,-0.1251
3.6600,0.0045,-0.6277,0.5271,0.4240,-7.6266,-6.1502,0.0448,0.0169,-0.0735
3.6700,-0.0570,-0.4864,0.6843,0.4186,-7.6266,-6.1506,0.0134,0.0453,-0.0276
3.6800,-0.1585,-0.3465,0.6949,0.4147,-7.6289,-6.1480,-0.0117,0.0813,0.0002
3.6900,-0.2703,-0.2432,0.5060,0.4103,-7.6328,-6.1434,-0.0184,0.1305,0.0188
3.7000,-0.3070,-0.1984,0.2116,0.4040,-7.6370,-6.1387,-0.0190,0.1864,0.0338
3.7100,-0.2537,-0.1622,-0.1314,0.3949,-7.6408,-6.1345,-0.0248,0.2319,0.0521
3.7200,-0.1644,-0.1119,-0.4589,0.3830,-7.6448,-6.1302,-0.0328,0.2471,0.0818
3.7300,-0.1113,-0.0826,-0.5977,0.3763,-7.6470,-6.1279,-0.0358,0.2448,0.1011
3.7400,-0.0195,-0.0270,-0.7604,0.3666,-7.6503,-6.1245,-0.0370,0.2340,0.1348
3.7500,0.0601,0.0299,-0.7613,0.3625,-7.6521,-6.1224,-0.0328,0.2200,0.1617
3.7600,0.1115,0.1174,-0.6659,0.3614,-7.6535,-6.1208,-0.0270,0.2090,0.1770
3.7700,0.1503,0.2150,-0.4824,0.3621,-7.6541,-6.1199,-0.0227,0.1937,0.1697
3.7800,0.1743,0.2726,-0.3066,0.3632,-7.6542,-6.1197,-0.0208,0.1568,0.1220
3.7900,0.1647,0.2617,-0.2143,0.3632,-7.6541,-6.1198,-0.0190,0.1082,0.0505
3.8000,0.1443,0.2005,-0.2032,0.3609,-7.6540,-6.1202,-0.0175,0.0664,-0.0209
3.8100,0.1182,0.1334,-0.2483,0.3558,-7.6539,-6.1206,-0.0169,0.0233,-0.0939
3.8200,0.0890,0.0736,-0.2970,0.3479,-7.6539,-6.1209,-0.0172,-0.0216,-0.1565
3.8300,0.0438,0.0296,-0.3063,0.3381,-7.6542,-6.1212,-0.0163,-0.0610,-0.1981
3.8400,0.0005,-0.0012,-0.2643,0.3275,-7.6545,-6.1214,-0.0150,-0.0885,-0.2170
3.8500,-0.0333,-0.0081,-0.1660,0.3170,-7.6549,-6.1215,-0.0129,-0.1007,-0.2167
3.8600,-0.0654,-0.0029,-0.0236,0.3072,-7.6553,-6.1214,-0.0086,-0.0992,-0.2008
3.8700,-0.0900,-0.0073,0.1021,0.2983,-7.6557,-6.1214,-0.0044,-0.0909,-0.1746
3.8800,-0.1363,-0.0357,0.1834,0.2907,-7.6560,-6.1213,0.0008,-0.0815,-0.1465
3.8900,-0.2427,-0.0977,0.2314,0.2846,-7.6562,-6.1214,0.0073,-0.0625,-0.1226
3.9000,-0.3293,-0.1577,0.2175,0.2791,-7.6560,-6.1219,0.0115,-0.0372,-0.1113
3.9100,-0.3290,-0.2180,0.1704,0.2727,-7.6556,-6.1226,0.0109,-0.0161,-0.1101
3.9200,-0.2698,-0.2745,0.1244,0.2651,-7.6554,-6.1233,0.0073,0.0001,-0.1046
3.9300,-0.2147,-0.3020,0.0708,0.2566,-7.6554,-6.1237,0.0036,0.0102,-0.0881
3.9400,-0.1781,-0.3065,0.0468,0.2488,-7.6557,-6.1236,0.0024,0.0172,-0.0622
3.9500,-0.1622,-0.3085,0.0454,0.2424,-7.6561,-6.1234,0.0039,0.0254,-0.0319
3.9600,-0.1958,-0.3238,0.0535,0.2377,-7.6564,-6.1231,0.0069,0.0380,-0.0038
3.9700,-0.2283,-0.3296,0.0989,0.2343,-7.6566,-6.1230,0.0097,0.0554,0.0145
3.9800,-0.2406,-0.3055,0.1719,0.2310,-7.6567,-6.1230,0.0097,0.0737,0.0228
3.9900,-0.2559,-0.2717,0.2340,0.2271,-7.6570,-6.1228,0.0076,0.0877,0.0255
4.0000,-0.7814,-0.0843,0.2741,0.2224,-7.6576,-6.1222,0.0051,0.0975,0.0304
4.0100,-1.0699,-0.0583,0.2899,0.2164,-7.6585,-6.1213,0.0076,0.1051,0.2314
4.0200,-0.9160,-0.1752,0.3202,0.2241,-7.6590,-6.1205,0.0186,0.1714,0.4607
4.0300,-0.7519,-0.2417,0.3036,0.2444,-7.6583,-6.1206,0.0344,0.3052,0.5331
4.0400,-0.2220,-0.4075,0.1890,0.2615,-7.6564,-6.1221,0.0448,0.4433,0.5582
4.0500,0.3154,-0.3800,0.0395,0.2724,-7.6540,-6.1247,0.0357,0.5428,0.4724
4.0600,0.7244,-0.1733,-0.1081,0.2716,-7.6524,-6.1267,0.0121,0.5505,0.3196
