seconds_elapsed,acc_z,acc_y,acc_x,grav_z,grav_y,grav_x,gyro_z,gyro_y,gyro_x
0.0300,-0.1676,-0.0845,0.0206,0.7858,-9.2461,3.1722,0.0224,0.0595,0.1046
0.0400,-0.2292,-0.0225,-0.0229,0.7964,-9.2461,3.1696,0.0224,0.0593,0.0842
0.0500,-0.2648,0.0248,-0.0608,0.8046,-9.2461,3.1673,0.0171,0.0392,0.0570
0.0600,-0.2770,0.0636,-0.0608,0.8093,-9.2462,3.1661,0.0060,0.0016,0.0309
0.0700,-0.2623,0.1076,-0.0762,0.8103,-9.2460,3.1662,-0.0044,-0.0440,0.0088
0.0800,-0.2336,0.1395,-0.1314,0.8082,-9.2457,3.1676,-0.0109,-0.0860,-0.0066
0.0900,-0.1820,0.1312,-0.1708,0.8039,-9.2454,3.1696,-0.0147,-0.1149,-0.0160
0.1000,-0.1307,0.0684,-0.1641,0.7982,-9.2451,3.1721,-0.0161,-0.1241,-0.0219
0.1100,-0.0887,-0.0203,-0.1258,0.7922,-9.2448,3.1745,-0.0160,-0.1163,-0.0234
0.1200,-0.0478,-0.0860,-0.0763,0.7866,-9.2444,3.1768,-0.0156,-0.1015,-0.0208
0.1300,-0.0184,-0.1012,-0.0480,0.7819,-9.2441,3.1789,-0.0136,-0.0835,-0.0162
0.1400,-0.0004,-0.0656,-0.0555,0.7783,-9.2438,3.1808,-0.0153,-0.0698,-0.0093
0.1500,0.0040,-0.0248,-0.0487,0.7756,-9.2432,3.1830,-0.0220,-0.0666,-0.0021
0.1600,-0.0120,-0.0216,-0.0256,0.7733,-9.2424,3.1860,-0.0298,-0.0734,0.0000
0.1700,-0.0601,-0.0810,0.0056,0.7706,-9.2413,3.1898,-0.0394,-0.0870,-0.0029
0.1800,-0.1140,-0.2137,0.0765,0.7669,-9.2399,3.1948,-0.0506,-0.1014,-0.0113
0.1900,-0.1398,-0.3693,0.1829,0.7617,-9.2382,3.2010,-0.0679,-0.1158,-0.0264
0.2000,-0.1540,-0.4750,0.3111,0.7543,-9.2358,3.2095,-0.0955,-0.1284,-0.0470
0.2100,-0.1821,-0.4701,0.4126,0.7443,-9.2327,3.2209,-0.1284,-0.1334,-0.0768
0.2200,-0.1959,-0.4349,0.4371,0.7311,-9.2287,3.2353,-0.1604,-0.1322,-0.1151
0.2300,-0.1995,-0.3716,0.3491,0.7143,-9.2240,3.2524,-0.1870,-0.1329,-0.1536
0.2400,-0.1920,-0.2733,0.2615,0.6940,-9.2186,3.2719,-0.2143,-0.1363,-0.1873
0.2500,-0.1609,-0.2436,0.2425,0.6707,-9.2126,3.2937,-0.2353,-0.1317,-0.2177
0.2600,-0.1465,-0.1292,0.1338,0.6449,-9.2063,3.3164,-0.2354,-0.1184,-0.2498
0.2700,-0.1296,-0.0147,0.0253,0.6165,-9.2001,3.3388,-0.2356,-0.1041,-0.2822
0.2800,-0.1326,0.0295,-0.0133,0.5857,-9.1938,3.3616,-0.2456,-0.0925,-0.3101
0.2900,-0.1184,0.0940,-0.0535,0.5530,-9.1871,3.3855,-0.2617,-0.0930,-0.3275
0.3000,-0.0456,0.2167,-0.1111,0.5192,-9.1792,3.4121,-0.3059,-0.0849,-0.3391
0.3100,-0.0214,0.3143,-0.4330,0.4845,-9.1698,3.4423,-0.3311,-0.0540,-0.3595
0.3200,-0.1381,0.1960,-0.9848,0.4482,-9.1611,3.4703,-0.2562,-0.0465,-0.3925
0.3300,-0.2055,0.2823,-1.2287,0.4085,-9.1560,3.4886,-0.1386,-0.0917,-0.4150
0.3400,-0.0646,0.6737,-1.0655,0.3661,-9.1539,3.4989,-0.0876,-0.1609,-0.4066
0.3500,0.2172,0.9592,-0.9048,0.3238,-9.1518,3.5084,-0.1073,-0.2025,-0.3657
0.3600,0.5521,0.9560,-0.9896,0.2861,-9.1487,3.5199,-0.1242,-0.1878,-0.2973
0.3700,0.8249,0.6650,-1.1693,0.2570,-9.1455,3.5303,-0.0869,-0.1259,-0.2119
0.3800,1.0012,0.2973,-1.1753,0.2391,-9.1443,3.5349,-0.0068,-0.0439,-0.1098
0.3900,1.0650,0.1279,-1.1110,0.2345,-9.1455,3.5320,0.0676,0.0334,0.0157
0.4000,1.1058,0.0183,-0.9915,0.2449,-9.1484,3.5238,0.1039,0.1064,0.1576
0.4100,1.1853,-0.1823,-0.7699,0.2712,-9.1517,3.5131,0.1197,0.1919,0.2994
0.4200,1.2191,-0.3054,-0.7326,0.3135,-9.1552,3.5004,0.1412,0.3044,0.4271
0.4300,1.1883,-0.3672,-0.8825,0.3709,-9.1591,3.4846,0.1756,0.4447,0.5331
0.4400,1.1267,-0.4238,-1.0004,0.4422,-9.1636,3.4644,0.2118,0.5921,0.6203
0.4500,1.0319,-0.4194,-1.0564,0.5258,-9.1669,3.4438,0.1422,0.6790,0.7127
0.4600,0.8477,-0.1711,-0.8633,0.6199,-9.1647,3.4340,-0.0193,0.6888,0.8145
0.4700,0.6630,0.0621,-0.7290,0.7231,-9.1571,3.4340,-0.0666,0.8229,0.8573
0.4800,0.7004,-0.3781,-1.0501,0.8337,-9.1488,3.4311,-0.0360,1.1299,0.8085
0.4900,0.6078,-1.0122,-0.9406,0.9475,-9.1415,3.4208,0.0083,1.4991,0.6716
0.5000,0.1331,-1.2322,-0.4479,1.0570,-9.1381,3.3978,0.1290,1.8627,0.4414
0.5100,-0.4606,-1.3060,-0.1662,1.1524,-9.1413,3.3581,0.2504,2.0356,0.1834
0.5200,-1.0651,-0.9615,0.3807,1.2258,-9.1499,3.3083,0.3062,1.9123,-0.0282
0.5300,-1.5547,-0.3244,1.0667,1.2741,-9.1618,3.2570,0.3333,1.5703,-0.1674
0.5400,-1.7428,0.0615,1.4028,1.2989,-9.1758,3.2074,0.3664,1.1118,-0.2325
0.5500,-1.6631,0.3351,1.5228,1.3046,-9.1910,3.1611,0.3849,0.6160,-0.2369
0.5600,-1.5091,0.5922,1.7442,1.2966,-9.2058,3.1213,0.3592,0.1702,-0.1985
0.5700,-1.1790,0.7357,2.0590,1.2807,-9.2181,3.0912,0.2858,-0.1732,-0.1405
0.5800,-0.7572,0.7894,2.1971,1.2614,-9.2269,3.0729,0.1869,-0.3758,-0.0859
0.5900,-0.4396,0.8523,2.0532,1.2426,-9.2320,3.0653,0.0871,-0.4055,-0.0551
0.6000,-0.2882,0.8984,1.9259,1.2267,-9.2339,3.0660,-0.0050,-0.2951,-0.0507
0.6100,-0.1320,0.9743,1.4836,1.2150,-9.2331,3.0732,-0.0927,-0.1371,-0.0597
0.6200,0.0365,1.0250,0.8438,1.2067,-9.2297,3.0867,-0.1774,-0.0087,-0.0744
0.6300,0.0727,0.8692,0.4552,1.1998,-9.2240,3.1061,-0.2444,0.0646,-0.0955
0.6400,0.1156,0.5533,0.1328,1.1921,-9.2171,3.1296,-0.2761,0.0775,-0.1197
0.6500,0.1475,0.3648,-0.0131,1.1819,-9.2099,3.1546,-0.2744,0.0258,-0.1377
0.6600,0.1219,0.1017,-0.2088,1.1682,-9.2031,3.1794,-0.2515,-0.0804,-0.1393
0.6700,0.0459,-0.2472,-0.4614,1.1512,-9.1971,3.2028,-0.2145,-0.2180,-0.1229
0.6800,-0.0432,-0.4186,-0.5808,1.1317,-9.1922,3.2237,-0.1645,-0.3515,-0.0973
0.6900,-0.0859,-0.5315,-0.6744,1.1110,-9.1887,3.2409,-0.1098,-0.4419,-0.0708
0.7000,-0.0350,-0.5290,-0.7131,1.0907,-9.1866,3.2538,-0.0638,-0.4560,-0.0485
0.7100,0.1045,-0.4255,-0.6715,1.0731,-9.1855,3.2629,-0.0347,-0.3776,-0.0323
0.7200,0.2605,-0.3063,-0.6151,1.0604,-9.1849,3.2686,-0.0196,-0.2269,-0.0239
0.7300,0.3358,-0.2552,-0.6026,1.0537,-9.1847,3.2713,-0.0029,-0.0543,-0.0213
0.7400,0.3316,-0.2566,-0.5592,1.0524,-9.1853,3.2701,0.0229,0.0902,-0.0205
0.7500,0.2711,-0.2115,-0.3910,1.0549,-9.1866,3.2656,0.0427,0.1697,-0.0185
0.7600,0.1870,-0.0967,-0.1832,1.0592,-9.1883,3.2594,0.0480,0.1754,-0.0148
0.7700,0.1477,-0.0298,-0.0901,1.0632,-9.1900,3.2533,0.0471,0.1321,-0.0119
0.7800,0.1053,0.0211,-0.0394,1.0655,-9.1916,3.2480,0.0461,0.0740,-0.0114
0.7900,0.0313,0.1137,0.0413,1.0660,-9.1932,3.2432,0.0439,0.0285,-0.0139
0.8000,-0.0081,0.1616,0.1106,1.0652,-9.1947,3.2392,0.0382,0.0082,-0.0148
0.8100,-0.0116,0.1661,0.1545,1.0642,-9.1961,3.2357,0.0339,0.0134,-0.0120
0.8200,-0.0153,0.1539,0.1581,1.0639,-9.1972,3.2325,0.0286,0.0299,-0.0101
0.8300,-0.0482,0.1375,0.1583,1.0640,-9.1981,3.2300,0.0182,0.0406,-0.0131
0.8400,-0.1058,0.1222,0.1764,1.0636,-9.1987,3.2284,0.0074,0.0408,-0.0233
0.8500,-0.1746,0.0963,0.1798,1.0618,-9.1992,3.2277,-0.0011,0.0307,-0.0431
0.8600,-0.2309,0.0728,0.1458,1.0573,-9.1996,3.2279,-0.0088,0.0122,-0.0691
0.8700,-0.2571,0.0815,0.0990,1.0498,-9.2001,3.2291,-0.0150,-0.0107,-0.0935
0.8800,-0.2523,0.1060,0.0394,1.0396,-9.2007,3.2307,-0.0152,-0.0352,-0.1100
0.8900,-0.2110,0.1181,-0.0462,1.0275,-9.2014,3.2324,-0.0124,-0.0610,-0.1158
0.9000,-0.1380,0.1173,-0.1164,1.0144,-9.2023,3.2341,-0.0099,-0.0860,-0.1131
0.9100,-0.0475,0.1057,-0.1593,1.0010,-9.2032,3.2357,-0.0049,-0.1087,-0.1060
0.9200,0.0309,0.0886,-0.2028,0.9877,-9.2042,3.2370,0.0042,-0.1309,-0.0984
0.9300,0.0845,0.0773,-0.2379,0.9743,-9.2054,3.2375,0.0146,-0.1521,-0.0914
0.9400,0.1201,0.0719,-0.2568,0.9610,-9.2069,3.2373,0.0218,-0.1735,-0.0815
0.9500,0.1579,0.0744,-0.2773,0.9480,-9.2084,3.2369,0.0255,-0.1956,-0.0686
0.9600,0.1875,0.0961,-0.2985,0.9355,-9.2098,3.2363,0.0289,-0.2122,-0.0558
0.9700,0.1834,0.1040,-0.2897,0.9239,-9.2113,3.2355,0.0331,-0.2212,-0.0421
0.9800,0.1649,0.0628,-0.2429,0.9133,-9.2127,3.2344,0.0365,-0.2275,-0.0288
0.9900,0.1422,0.0055,-0.1799,0.9037,-9.2142,3.2331,0.0370,-0.2327,-0.0174
1.0000,0.1117,-0.0379,-0.1248,0.8947,-9.2154,3.2320,0.0329,-0.2374,-0.0107
1.0100,0.0707,-0.0626,-0.0873,0.8861,-9.2165,3.2314,0.0268,-0.2396,-0.0103
1.0200,0.0196,-0.0690,-0.0756,0.8772,-9.2174,3.2313,0.0242,-0.2378,-0.0150
1.0300,-0.0244,-0.0379,-0.0878,0.8677,-9.2184,3.2310,0.0277,-0.2362,-0.0225
1.0400,-0.0584,0.0353,-0.1220,0.8576,-9.2196,3.2302,0.0351,-0.2376,-0.0293
1.0500,-0.0936,0.1012,-0.1639,0.8469,-9.2212,3.2284,0.0475,-0.2427,-0.0339
1.0600,-0.1070,0.1288,-0.1805,0.8357,-9.2233,3.2253,0.0646,-0.2510,-0.0350
1.0700,-0.1225,0.1226,-0.1773,0.8241,-9.2260,3.2206,0.0823,-0.2634,-0.0349
1.0800,-0.1587,0.1186,-0.1649,0.8120,-9.2292,3.2145,0.0986,-0.2810,-0.0357
1.0900,-0.1973,0.1218,-0.1355,0.7991,-9.2329,3.2071,0.1100,-0.3022,-0.0410
1.1000,-0.2475,0.1378,-0.1246,0.7845,-9.2369,3.1991,0.1185,-0.3285,-0.0542
1.1100,-0.3030,0.1674,-0.1205,0.7675,-9.2414,3.1903,0.1286,-0.3585,-0.0750
1.1200,-0.3342,0.1540,-0.0989,0.7473,-9.2464,3.1806,0.1424,-0.3878,-0.1004
1.1300,-0.2942,0.0573,-0.0506,0.7241,-9.2520,3.1696,0.1563,-0.4105,-0.1220
1.1400,-0.2172,-0.1120,0.0443,0.6989,-9.2580,3.1576,0.1634,-0.4194,-0.1343
1.1500,-0.1394,-0.2802,0.1431,0.6729,-9.2641,3.1454,0.1590,-0.4117,-0.1405
1.1600,-0.0832,-0.3463,0.1910,0.6470,-9.2699,3.1338,0.1444,-0.3842,-0.1460
1.1700,-0.0221,-0.3795,0.2107,0.6215,-9.2751,3.1235,0.1261,-0.3352,-0.1572
1.1800,0.0747,-0.4190,0.2242,0.5966,-9.2798,3.1144,0.1056,-0.2693,-0.1731
1.1900,0.1706,-0.3871,0.2215,0.5725,-9.2838,3.1069,0.0858,-0.1964,-0.1873
1.2000,0.2508,-0.2962,0.1913,0.5495,-9.2875,3.1002,0.0768,-0.1244,-0.1962
1.2100,0.3104,-0.1702,0.1070,0.5284,-9.2909,3.0935,0.0795,-0.0590,-0.1911
1.2200,0.3614,-0.0517,0.0117,0.5106,-9.2944,3.0860,0.0838,-0.0084,-0.1665
1.2300,0.4001,-0.0008,-0.0436,0.4973,-9.2978,3.0780,0.0848,0.0247,-0.1248
1.2400,0.4100,-0.0016,-0.0614,0.4890,-9.3009,3.0701,0.0815,0.0446,-0.0749
1.2500,0.3920,0.0012,-0.0648,0.4857,-9.3035,3.0624,0.0773,0.0543,-0.0280
1.2600,0.3587,-0.0086,-0.0614,0.4865,-9.3059,3.0551,0.0760,0.0531,0.0081
1.2700,0.2934,-0.0234,-0.0566,0.4897,-9.3082,3.0477,0.0764,0.0406,0.0282
1.2800,0.1863,-0.0064,-0.0630,0.4937,-9.3104,3.0404,0.0769,0.0210,0.0332
1.2900,0.0916,0.0327,-0.0686,0.4964,-9.3122,3.0343,0.0793,0.0001,0.0297
1.3000,0.0583,0.0564,-0.0678,0.4973,-9.3130,3.0318,0.0813,-0.0098,0.0268
1.3100,-0.0237,0.0977,-0.0725,0.4985,-9.3150,3.0254,0.0855,-0.0343,0.0199
1.3200,-0.1060,0.1199,-0.0690,0.4985,-9.3176,3.0174,0.0908,-0.0610,0.0133
1.3300,-0.1637,0.1086,-0.0481,0.4974,-9.3203,3.0091,0.0937,-0.0788,0.0076
1.3400,-0.2099,0.1005,0.0006,0.4953,-9.3231,3.0009,0.0897,-0.0827,-0.0002
1.3500,-0.2529,0.1073,0.0318,0.4922,-9.3258,2.9931,0.0872,-0.0803,-0.0122
1.3600,-0.2865,0.0739,0.0038,0.4878,-9.3286,2.9850,0.0962,-0.0800,-0.0301
1.3700,-0.3075,0.0588,-0.0145,0.4814,-9.3319,2.9757,0.1108,-0.0820,-0.0542
1.3800,-0.3171,0.1003,-0.0098,0.4724,-9.3357,2.9652,0.1211,-0.0861,-0.0842
1.3900,-0.3017,0.1190,0.0139,0.4603,-9.3398,2.9541,0.1239,-0.0936,-0.1152
1.4000,-0.2614,0.1437,0.0873,0.4451,-9.3439,2.9433,0.1113,-0.0965,-0.1461
1.4100,-0.2233,0.2465,0.1556,0.4269,-9.3475,2.9346,0.0822,-0.0792,-0.1859
1.4200,-0.1758,0.1360,0.0952,0.4060,-9.3506,2.9277,0.0767,-0.0667,-0.2079
1.4300,-0.1351,-0.0468,0.0141,0.3848,-9.3540,2.9198,0.1003,-0.0743,-0.1985
1.4400,-0.1122,-0.0013,0.0489,0.3647,-9.3578,2.9102,0.1089,-0.0896,-0.1778
1.4500,-0.0884,0.0022,0.0884,0.3462,-9.3614,2.9007,0.0992,-0.1177,-0.1499
1.4600,-0.0940,-0.0348,0.0721,0.3294,-9.3646,2.8923,0.0904,-0.1556,-0.1243
1.4700,-0.1106,-0.0355,0.0291,0.3134,-9.3676,2.8845,0.0882,-0.1953,-0.1110
1.4800,-0.1091,-0.0483,-0.0018,0.2968,-9.3705,2.8767,0.0917,-0.2278,-0.1130
1.4900,-0.1067,-0.0533,-0.0188,0.2785,-9.3736,2.8685,0.0964,-0.2486,-0.1296
1.5000,-0.0806,-0.0436,-0.0320,0.2578,-9.3768,2.8599,0.1000,-0.2568,-0.1553
1.5100,-0.0245,-0.0312,-0.0443,0.2347,-9.3801,2.8510,0.1022,-0.2512,-0.1782
1.5200,0.0413,-0.0229,-0.0833,0.2103,-9.3835,2.8418,0.1055,-0.2361,-0.1901
1.5300,0.0926,0.0205,-0.1411,0.1858,-9.3870,2.8319,0.1148,-0.2132,-0.1924
1.5400,0.1152,0.0913,-0.2115,0.1623,-9.3909,2.8205,0.1340,-0.1836,-0.1863
1.5500,0.1340,0.1241,-0.2456,0.1404,-9.3953,2.8068,0.1648,-0.1580,-0.1738
1.5600,0.1387,0.1592,-0.2650,0.1204,-9.4008,2.7895,0.2052,-0.1442,-0.1594
1.5700,0.1068,0.2365,-0.3159,0.1020,-9.4073,2.7682,0.2491,-0.1476,-0.1469
1.5800,0.0416,0.3182,-0.3272,0.0841,-9.4149,2.7428,0.2931,-0.1731,-0.1380
1.5900,-0.0383,0.3626,-0.3073,0.0660,-9.4237,2.7130,0.3414,-0.2176,-0.1329
1.6000,-0.1294,0.3776,-0.3012,0.0468,-9.4337,2.6781,0.3971,-0.2759,-0.1337
1.6100,-0.2125,0.3968,-0.2959,0.0255,-9.4452,2.6378,0.4551,-0.3314,-0.1436
1.6200,-0.2705,0.3934,-0.2880,0.0016,-9.4579,2.5918,0.5112,-0.3710,-0.1657
1.6300,-0.3243,0.3480,-0.2655,-0.0257,-9.4717,2.5407,0.5613,-0.3878,-0.1997
1.6400,-0.3701,0.2444,-0.1926,-0.0568,-9.4863,2.4853,0.5976,-0.3669,-0.2512
1.6500,-0.4059,0.0981,-0.1047,-0.0924,-9.5011,2.4270,0.6172,-0.2975,-0.3224
1.6600,-0.4259,-0.0408,-0.0116,-0.1331,-9.5155,2.3676,0.6181,-0.1866,-0.4021
1.6700,-0.4139,-0.2145,0.0936,-0.1779,-9.5292,2.3089,0.6036,-0.0466,-0.4729
1.6800,-0.3204,-0.4261,0.1874,-0.2250,-9.5418,2.2521,0.5802,0.1148,-0.5217
1.6900,-0.1411,-0.5951,0.2730,-0.2721,-9.5531,2.1985,0.5476,0.2914,-0.5502
1.7000,0.0682,-0.6689,0.3567,-0.3172,-9.5631,2.1487,0.5141,0.4684,-0.5577
1.7100,0.2747,-0.6138,0.4156,-0.3585,-9.5719,2.1022,0.4916,0.6255,-0.5401
1.7200,0.4799,-0.4535,0.4152,-0.3944,-9.5801,2.0583,0.4752,0.7499,-0.5032
1.7300,0.6465,-0.1418,0.4329,-0.4244,-9.5876,2.0170,0.4466,0.8319,-0.4552
1.7400,0.7034,0.1053,0.4817,-0.4486,-9.5943,1.9796,0.4056,0.8575,-0.3985
1.7500,0.6620,0.1277,0.5152,-0.4674,-9.6001,1.9465,0.3597,0.8162,-0.3336
1.7600,0.5834,0.0910,0.5329,-0.4813,-9.6053,1.9177,0.3117,0.7172,-0.2649
1.7700,0.4994,0.0680,0.5055,-0.4911,-9.6097,1.8929,0.2683,0.5802,-0.1954
1.7800,0.4019,0.0937,0.4726,-0.4973,-9.6136,1.8715,0.2271,0.4293,-0.1318
1.7900,0.3511,0.1166,0.4755,-0.5007,-9.6169,1.8532,0.1884,0.2810,-0.0763
1.8000,0.2678,0.1504,0.4119,-0.5016,-9.6199,1.8376,0.1580,0.1453,-0.0234
1.8100,0.1304,0.2042,0.2907,-0.5000,-9.6226,1.8238,0.1378,0.0349,0.0214
1.8200,0.0243,0.2394,0.1991,-0.4966,-9.6252,1.8111,0.1243,-0.0384,0.0476
1.8300,-0.0964,0.2757,0.1094,-0.4927,-9.6276,1.7992,0.1174,-0.0739,0.0513
1.8400,-0.2516,0.3081,0.0221,-0.4898,-9.6300,1.7873,0.1214,-0.0810,0.0347
1.8500,-0.4312,0.3179,-0.0449,-0.4895,-9.6323,1.7744,0.1355,-0.0721,-0.0008
1.8600,-0.5954,0.2902,-0.0813,-0.4930,-9.6348,1.7602,0.1538,-0.0543,-0.0482
1.8700,-0.6624,0.2636,-0.0820,-0.5007,-9.6373,1.7441,0.1742,-0.0305,-0.0948
1.8800,-0.7234,0.1915,-0.0545,-0.5123,-9.6399,1.7265,0.1846,0.0063,-0.1382
1.8900,-0.8031,0.0498,-0.0345,-0.5272,-9.6422,1.7087,0.1822,0.0547,-0.1800
1.9000,-0.8094,-0.0611,-0.0320,-0.5454,-9.6442,1.6919,0.1726,0.1015,-0.2196
1.9100,-0.7669,-0.1395,-0.0317,-0.5664,-9.6456,1.6766,0.1569,0.1477,-0.2564
1.9200,-0.7196,-0.1750,-0.0265,-0.5900,-9.6466,1.6630,0.1480,0.1936,-0.2889
1.9300,-0.6698,-0.2055,-0.0235,-0.6159,-9.6472,1.6499,0.1507,0.2346,-0.3199
1.9400,-0.5916,-0.2365,-0.0105,-0.6445,-9.6476,1.6365,0.1590,0.2668,-0.3524
1.9500,-0.4944,-0.2100,0.0442,-0.6756,-9.6478,1.6226,0.1657,0.2865,-0.3822
1.9600,-0.3624,-0.1686,0.1173,-0.7090,-9.6478,1.6083,0.1683,0.2899,-0.4035
1.9700,-0.2136,-0.1291,0.1476,-0.7441,-9.6476,1.5940,0.1688,0.2680,-0.4144
1.9800,-0.0657,-0.0932,0.1373,-0.7805,-9.6471,1.5796,0.1659,0.2217,-0.4141
1.9900,0.0867,-0.0850,0.1372,-0.8169,-9.6464,1.5652,0.1639,0.1660,-0.3974
2.0000,0.2475,-0.1034,0.1436,-0.8515,-9.6459,1.5499,0.1784,0.1266,-0.3601
2.0100,0.4241,-0.1524,0.1219,-0.8821,-9.6459,1.5323,0.2065,0.1298,-0.3064
2.0200,0.5779,-0.1377,0.0845,-0.9065,-9.6468,1.5124,0.2334,0.1769,-0.2426
2.0300,0.6340,-0.0774,0.0473,-0.9236,-9.6486,1.4905,0.2554,0.2483,-0.1768
2.0400,0.5672,-0.0897,-0.0069,-0.9335,-9.6512,1.4670,0.2791,0.3151,-0.1193
2.0500,0.3693,-0.1423,-0.0962,-0.9390,-9.6544,1.4424,0.2913,0.3444,-0.1019
2.0600,0.0004,-0.2048,-0.1866,-0.9454,-9.6575,1.4175,0.2841,0.3105,-0.1302
2.0700,-0.4332,-0.2758,-0.3127,-0.9562,-9.6599,1.3933,0.2623,0.2144,-0.1692
2.0800,-0.7180,-0.2674,-0.5172,-0.9721,-9.6615,1.3713,0.2177,0.0735,-0.1965
2.0900,-0.8285,-0.1706,-0.7392,-0.9914,-9.6622,1.3524,0.1741,-0.0765,-0.1953
2.1000,-0.6221,-0.1858,-1.0948,-1.0107,-9.6626,1.3351,0.1591,-0.1684,-0.1613
2.1100,-0.2296,-0.3568,-1.3692,-1.0260,-9.6634,1.3174,0.1742,-0.1580,-0.1057
2.1200,-0.0914,-0.4531,-1.3502,-1.0355,-9.6651,1.2979,0.2020,-0.0737,-0.0608
2.1300,-0.2093,-0.4301,-1.2929,-1.0413,-9.6673,1.2767,0.2299,0.0367,-0.0594
2.1400,-0.2970,-0.4232,-1.1571,-1.0477,-9.6695,1.2545,0.2466,0.1449,-0.0996
2.1500,-0.1175,-0.3938,-0.8054,-1.0574,-9.6712,1.2326,0.2462,0.2422,-0.1490
2.1600,0.2277,-0.3292,-0.5383,-1.0697,-9.6726,1.2112,0.2590,0.3212,-0.1684
2.1700,0.5866,-0.2348,-0.3994,-1.0805,-9.6742,1.1883,0.2928,0.3848,-0.1336
2.1800,0.8144,-0.0478,-0.1856,-1.0850,-9.6768,1.1629,0.3186,0.4431,-0.0535
2.1900,0.6975,0.1430,-0.0682,-1.0807,-9.6804,1.1367,0.3231,0.5004,0.0264
2.2000,0.5322,0.2165,-0.0555,-1.0701,-9.6846,1.1109,0.3255,0.5658,0.0572
2.2100,-0.0166,0.0346,-0.4760,-1.0600,-9.6887,1.0842,0.3683,0.6756,-0.0035
2.2200,-0.8139,-0.2659,-1.1281,-1.0597,-9.6923,1.0516,0.4695,0.8525,-0.1669
2.2300,-1.0760,-0.2861,-1.1218,-1.0762,-9.6948,1.0114,0.5578,1.0322,-0.3691
2.2400,-0.9352,-0.1515,-0.5276,-1.1091,-9.6954,0.9685,0.5559,1.1361,-0.5204
2.2500,-0.5729,-0.1213,0.0800,-1.1525,-9.6941,0.9300,0.4914,1.1440,-0.5779
2.2600,-0.0649,-0.1382,0.3794,-1.1969,-9.6918,0.8983,0.4311,1.0669,-0.5282
2.2700,0.4493,-0.1611,0.3922,-1.2327,-9.6899,0.8698,0.4094,0.9263,-0.3790
2.2800,0.6891,-0.0607,0.4968,-1.2536,-9.6897,0.8416,0.3832,0.7784,-0.2014
2.2900,0.5479,0.0552,0.5729,-1.2605,-9.6910,0.8158,0.3355,0.6871,-0.0761
2.3000,0.3866,0.0575,0.5077,-1.2601,-9.6930,0.7928,0.3102,0.5930,-0.0314
2.3100,-0.0013,-0.0252,0.2442,-1.2594,-9.6950,0.7695,0.3015,0.4009,-0.0386
2.3200,-0.6639,-0.1671,-0.1696,-1.2627,-9.6965,0.7437,0.2954,0.1293,-0.0762
2.3300,-1.1262,-0.1956,-0.4194,-1.2729,-9.6973,0.7159,0.2789,-0.0483,-0.1379
2.3400,-1.0149,-0.0729,-0.4073,-1.2891,-9.6971,0.6895,0.2464,-0.0084,-0.1796
2.3500,-0.2061,0.0413,-0.1126,-1.3069,-9.6962,0.6672,0.2244,0.0704,-0.1834
2.3600,0.2530,-0.0134,0.0111,-1.3222,-9.6956,0.6462,0.2253,0.0181,-0.1339
2.3700,0.2064,-0.1769,-0.1037,-1.3322,-9.6957,0.6238,0.2225,-0.0719,-0.0720
2.3800,0.2973,-0.2153,-0.1241,-1.3393,-9.6961,0.6014,0.2141,-0.0755,-0.0702
2.3900,0.4385,-0.1575,-0.0959,-1.3471,-9.6964,0.5791,0.2284,-0.0116,-0.0872
2.4000,0.6952,-0.1751,-0.1804,-1.3558,-9.6966,0.5550,0.2668,0.0054,-0.0894
2.4100,0.7413,-0.2653,-0.3096,-1.3645,-9.6970,0.5260,0.3219,-0.0525,-0.0837
2.4200,0.4769,-0.3377,-0.5504,-1.3728,-9.6977,0.4910,0.3739,-0.0920,-0.0764
2.4300,0.3498,-0.1458,-0.6749,-1.3807,-9.6984,0.4516,0.4070,-0.0925,-0.0769
2.4400,0.2878,0.2304,-0.5742,-1.3891,-9.6991,0.4107,0.3973,-0.0881,-0.0832
2.4500,0.2443,0.5919,-0.3976,-1.3976,-9.6993,0.3736,0.3316,-0.0974,-0.0800
2.4600,0.2833,0.9096,-0.2295,-1.4055,-9.6993,0.3437,0.2565,-0.0924,-0.0762
2.4700,0.3478,1.1496,-0.2829,-1.4137,-9.6989,0.3205,0.2028,-0.0571,-0.0897
2.4800,0.4211,1.4670,-0.5929,-1.4235,-9.6981,0.3020,0.1672,-0.0179,-0.1068
2.4900,0.6245,1.7137,-0.8572,-1.4338,-9.6970,0.2873,0.1347,0.0211,-0.1018
2.5000,1.0238,1.6146,-0.9223,-1.4414,-9.6962,0.2768,0.0896,0.0629,-0.0505
2.5100,1.4437,1.1708,-0.9496,-1.4417,-9.6963,0.2724,0.0210,0.0993,0.0440
2.5200,1.6954,0.4562,-0.9972,-1.4318,-9.6976,0.2760,-0.0637,0.1268,0.1511
2.5300,1.7585,0.0505,-1.0449,-1.4127,-9.7001,0.2887,-0.1477,0.1972,0.2223
2.5400,1.5528,-0.8026,-1.0740,-1.3888,-9.7029,0.3091,-0.1999,0.2770,0.2442
2.5500,1.3476,-1.6560,-1.1067,-1.3655,-9.7054,0.3332,-0.2058,0.2975,0.2066
2.5600,0.9036,-1.5827,-0.8905,-1.3496,-9.7068,0.3561,-0.1763,0.2867,0.0913
2.5700,0.4720,-1.0058,-0.2751,-1.3471,-9.7064,0.3760,-0.1565,0.2690,-0.0588
2.5800,0.5647,-0.0767,0.3310,-1.3576,-9.7042,0.3954,-0.1735,0.2395,-0.1663
2.5900,0.6890,0.4167,0.4005,-1.3744,-9.7009,0.4158,-0.1779,0.1990,-0.1861
2.6000,0.6944,0.4312,0.0324,-1.3897,-9.6980,0.4343,-0.1433,0.1819,-0.1374
2.6100,0.5277,0.3675,-0.4076,-1.3989,-9.6960,0.4483,-0.0917,0.1824,-0.0686
2.6200,0.2872,0.3963,-0.8517,-1.4021,-9.6951,0.4577,-0.0525,0.1613,-0.0168
2.6300,0.1780,0.4969,-1.2578,-1.4018,-9.6949,0.4639,-0.0394,0.1182,0.0071
2.6400,0.2418,0.5533,-1.5516,-1.4004,-9.6948,0.4697,-0.0555,0.0881,0.0098
2.6500,0.3243,0.4977,-1.7948,-1.3995,-9.6945,0.4779,-0.0891,0.0923,0.0003
2.6600,0.2753,0.4154,-1.9691,-1.3999,-9.6938,0.4901,-0.1332,0.1278,-0.0212
2.6700,0.0814,0.4259,-1.9802,-1.4029,-9.6925,0.5081,-0.1942,0.1702,-0.0579
2.6800,-0.0482,0.4679,-1.9643,-1.4099,-9.6901,0.5332,-0.2710,0.1802,-0.1068
2.6900,-0.1836,0.5191,-1.8814,-1.4221,-9.6864,0.5661,-0.3596,0.1443,-0.1643
2.7000,-0.4511,0.4779,-1.6013,-1.4405,-9.6812,0.6069,-0.4441,0.0722,-0.2248
2.7100,-0.7043,0.1262,-1.2500,-1.4648,-9.6745,0.6538,-0.5065,-0.0187,-0.2738
2.7200,-0.8705,-0.3683,-0.8834,-1.4932,-9.6667,0.7038,-0.5366,-0.1035,-0.2990
2.7300,-0.8526,-0.6792,-0.5009,-1.5238,-9.6581,0.7539,-0.5310,-0.1502,-0.3101
2.7400,-0.7389,-0.7609,-0.1911,-1.5558,-9.6492,0.8013,-0.4891,-0.1501,-0.3251
2.7500,-0.6622,-0.8280,-0.0107,-1.5896,-9.6401,0.8433,-0.4207,-0.1220,-0.3486
2.7600,-0.6154,-0.9917,0.0944,-1.6258,-9.6309,0.8792,-0.3580,-0.0855,-0.3800
2.7700,-0.5741,-1.1773,0.2333,-1.6647,-9.6213,0.9110,-0.3328,-0.0731,-0.4090
2.7800,-0.5775,-1.4095,0.3905,-1.7057,-9.6110,0.9430,-0.3660,-0.0996,-0.4182
2.7900,-0.5623,-1.7592,0.5622,-1.7468,-9.5998,0.9806,-0.4623,-0.1346,-0.4052
2.8000,-0.4652,-2.2368,0.7917,-1.7862,-9.5875,1.0292,-0.5982,-0.1331,-0.3833
2.8100,-0.3889,-2.9027,0.9752,-1.8233,-9.5735,1.0919,-0.7402,-0.0757,-0.3634
2.8200,-0.2959,-3.6997,1.0517,-1.8570,-9.5580,1.1680,-0.8513,-0.0010,-0.3222
2.8300,-0.0202,-4.6467,0.9709,-1.8833,-9.5420,1.2539,-0.9200,0.0745,-0.2267
2.8400,0.5623,-5.7245,0.7672,-1.8966,-9.5266,1.3469,-0.9674,0.1933,-0.0805
2.8500,1.3621,-6.6204,0.5941,-1.8922,-9.5130,1.4459,-0.9901,0.3495,0.0937
2.8600,2.0148,-7.1820,0.3484,-1.8687,-9.5014,1.5486,-0.9894,0.4951,0.2631
2.8700,2.3873,-6.7992,-0.0194,-1.8273,-9.4919,1.6525,-0.9731,0.5942,0.4139
2.8800,2.4892,-5.6089,-0.3901,-1.7706,-9.4844,1.7545,-0.9305,0.6199,0.5536
2.8900,2.4350,-4.3913,-0.6334,-1.7006,-9.4790,1.8505,-0.8576,0.5820,0.6842
2.9000,2.4069,-3.2407,-0.7123,-1.6187,-9.4761,1.9367,-0.7532,0.5178,0.8126
2.9100,2.4143,-2.1543,-0.7614,-1.5252,-9.4763,2.0101,-0.6205,0.4698,0.9442
2.9200,2.4950,-1.0167,-0.8760,-1.4193,-9.4800,2.0691,-0.4717,0.4716,1.0771
2.9300,2.6945,0.0095,-1.0967,-1.2995,-9.4874,2.1135,-0.3212,0.5185,1.2198
2.9400,2.9865,0.5805,-1.3448,-1.1632,-9.4981,2.1443,-0.1848,0.6012,1.3875
2.9500,3.2320,0.4966,-1.4834,-1.0074,-9.5114,2.1636,-0.0756,0.7355,1.5703
2.9600,3.1535,-0.1614,-1.5097,-0.8317,-9.5259,2.1743,0.0072,0.9316,1.7123
2.9700,2.5652,-1.1321,-1.4959,-0.6417,-9.5398,2.1776,0.0794,1.1315,1.7662
2.9800,1.5956,-2.1207,-1.5198,-0.4471,-9.5520,2.1727,0.1569,1.2198,1.7400
2.9900,0.5730,-2.8487,-1.5300,-0.2574,-9.5624,2.1576,0.2491,1.1443,1.6662
3.0000,-0.0475,-3.2901,-1.4455,-0.0782,-9.5719,2.1297,0.3722,0.9513,1.5882
3.0100,-0.1206,-3.3257,-1.1790,0.0900,-9.5812,2.0871,0.5096,0.7007,1.5452
3.0200,0.3517,-2.8741,-0.6561,0.2517,-9.5902,2.0318,0.6141,0.4978,1.5632
3.0300,1.2741,-2.3018,-0.0656,0.4162,-9.5976,1.9683,0.6593,0.4864,1.6522
3.0400,2.0018,-1.8535,0.6465,0.5937,-9.6015,1.9022,0.6333,0.7041,1.7939
3.0500,2.1047,-1.6673,1.1167,0.7918,-9.5995,1.8387,0.5453,1.0774,1.9670
3.0600,1.8093,-1.5178,1.5035,1.0137,-9.5895,1.7801,0.4201,1.4582,2.1519
3.0700,1.2630,-1.2205,2.0390,1.2156,-9.5742,1.7356,0.3151,1.6962,2.3044
3.0800,0.9072,-1.0755,2.2185,1.3006,-9.5660,1.7188,0.2787,1.7660,2.3647
3.0900,0.0489,-0.7667,2.4777,1.5207,-9.5407,1.6776,0.2160,1.8677,2.4799
3.1000,-1.0032,-0.6438,2.3988,1.7920,-9.5021,1.6276,0.1804,1.8659,2.5214
3.1100,-2.1790,-0.5981,2.0754,2.0583,-9.4568,1.5762,0.1810,1.6949,2.4466
3.1200,-3.2196,-0.3432,1.8009,2.3076,-9.4080,1.5226,0.2556,1.3345,2.2940
3.1300,-3.9242,-0.1436,1.4755,2.5306,-9.3599,1.4649,0.4092,0.8680,2.0646
3.1400,-4.6463,-0.2427,1.2972,2.7198,-9.3168,1.4006,0.6043,0.4560,1.7575
3.1500,-5.1915,-0.6884,1.2378,2.8747,-9.2818,1.3218,0.8748,0.3198,1.4485
3.1600,-4.6195,-1.2855,0.5720,3.0014,-9.2569,1.2100,1.2764,0.5679,1.1592
3.1700,-3.4185,-1.8885,-0.9804,3.1056,-9.2427,1.0417,1.7962,1.1351,0.8911
3.1800,-2.2147,-2.7251,-2.7860,3.1930,-9.2362,0.8045,2.2848,1.7925,0.7237
3.1900,-0.8246,-3.4865,-3.2702,3.2718,-9.2292,0.5106,2.6116,2.1681,0.7152
3.2000,0.1053,-3.8397,-2.4805,3.3514,-9.2127,0.1885,2.7688,2.0762,0.8514
3.2100,0.3340,-3.9185,-1.4162,3.4414,-9.1806,-0.1303,2.7427,1.5647,1.0775
3.2200,0.0045,-3.5405,-0.0311,3.5497,-9.1310,-0.4170,2.5665,0.8156,1.3291
3.2300,-0.8650,-2.8119,1.2646,3.6768,-9.0662,-0.6609,2.3687,0.2483,1.4831
3.2400,-1.7750,-2.1571,2.0094,3.8112,-8.9924,-0.8753,2.2707,0.0481,1.4720
3.2500,-2.9270,-1.1787,2.1970,3.9408,-8.9142,-1.0780,2.2631,-0.0626,1.3912
3.2600,-3.8430,-0.2685,2.2319,4.0640,-8.8326,-1.2745,2.2746,-0.2489,1.3364
3.2700,-4.0676,0.0695,2.3782,4.1880,-8.7458,-1.4588,2.2510,-0.5405,1.3652
3.2800,-4.0547,0.4292,2.4330,4.3260,-8.6495,-1.6212,2.2073,-0.9355,1.5266
3.2900,-3.9149,0.9824,2.5716,4.4876,-8.5397,-1.7581,2.1191,-1.3127,1.7698
3.3000,-3.8267,1.8001,2.7566,4.6747,-8.4154,-1.8659,1.9538,-1.5645,2.0058
3.3100,-3.8618,2.5767,2.8191,4.8808,-8.2795,-1.9444,1.7733,-1.6529,2.1431
3.3200,-4.1114,3.2114,2.9205,5.0921,-8.1379,-1.9996,1.5798,-1.6751,2.1697
3.3300,-4.3432,4.1401,2.9116,5.3021,-7.9951,-2.0301,1.3685,-1.7464,2.1518
3.3400,-4.3981,5.0841,2.7275,5.5069,-7.8542,-2.0352,1.1712,-1.7683,2.0719
3.3500,-4.2833,5.5783,2.5077,5.6985,-7.7195,-2.0236,1.0263,-1.6818,1.9107
3.3600,-4.0517,5.6881,2.4675,5.8706,-7.5947,-2.0040,0.9141,-1.5628,1.7019
3.3700,-3.8112,5.8331,2.4536,6.0206,-7.4830,-1.9799,0.8111,-1.4295,1.4578
3.3800,-3.5887,6.2816,2.2967,6.1466,-7.3869,-1.9540,0.7314,-1.3035,1.1821
3.3900,-3.4053,6.7425,2.2439,6.2463,-7.3093,-1.9297,0.6760,-1.1412,0.8637
3.4000,-3.2485,6.8462,2.1941,6.3164,-7.2533,-1.9137,0.6462,-0.8953,0.5075
3.4100,-3.0541,6.6434,1.9752,6.3552,-7.2199,-1.9116,0.6410,-0.6338,0.1556
3.4200,-2.6703,6.2964,1.7251,6.3635,-7.2085,-1.9271,0.6524,-0.3468,-0.1845
3.4300,-2.1831,5.7373,1.5651,6.3417,-7.2178,-1.9634,0.6681,-0.0142,-0.5095
3.4400,-1.8105,5.0920,1.4952,6.2919,-7.2456,-2.0201,0.6580,0.2649,-0.7769
3.4500,-1.6109,4.8145,1.5168,6.2206,-7.2876,-2.0886,0.6031,0.4150,-0.9612
3.4600,-1.4806,4.5728,1.4567,6.1361,-7.3391,-2.1568,0.5159,0.4357,-1.0771
3.4700,-1.3782,4.0545,1.2138,6.0449,-7.3970,-2.2159,0.4066,0.3681,-1.1400
3.4800,-1.2452,3.5870,0.9393,5.9517,-7.4588,-2.2607,0.2848,0.2548,-1.1600
3.4900,-0.9301,3.1532,0.7212,5.8601,-7.5224,-2.2891,0.1573,0.1387,-1.1502
3.5000,-0.4604,2.6770,0.6341,5.7713,-7.5869,-2.3018,0.0252,0.0678,-1.1275
3.5100,0.1466,2.1440,0.7504,5.6847,-7.6522,-2.3012,-0.1176,0.0338,-1.1040
3.5200,0.7190,1.5926,0.9777,5.5996,-7.7190,-2.2869,-0.2741,-0.0033,-1.0926
3.5300,1.0818,1.0437,1.1585,5.5147,-7.7881,-2.2582,-0.4318,-0.0344,-1.0967
3.5400,1.4212,0.4807,1.1816,5.4287,-7.8598,-2.2178,-0.5538,0.0021,-1.1010
3.5500,2.1081,-0.1037,0.8373,5.3403,-7.9316,-2.1768,-0.5712,0.1811,-1.0773
3.5600,3.4261,-0.9060,-0.3229,5.2498,-7.9981,-2.1534,-0.4329,0.4851,-0.9966
3.5700,5.1394,-2.2417,-2.4001,5.1595,-8.0550,-2.1594,-0.1852,0.6932,-0.9389
3.5800,5.4694,-4.1994,-4.2919,5.0658,-8.1071,-2.1862,-0.0747,0.5949,-0.9869
3.5900,3.1868,-5.6724,-3.6740,4.9773,-8.1587,-2.1977,-0.2734,0.3100,-0.8702
3.6000,1.4695,-5.0907,-0.6414,4.9161,-8.2031,-2.1705,-0.5158,-0.0817,-0.5576
3.6100,1.5299,-3.6793,1.2017,4.8854,-8.2384,-2.1046,-0.6727,-0.6016,-0.3854
3.6200,1.2100,-2.8181,1.6378,4.8696,-8.2729,-2.0032,-0.8249,-0.9431,-0.4074
3.6300,0.5303,-2.2277,1.3186,4.8500,-8.3126,-1.8826,-0.9464,-0.9215,-0.5108
3.6400,0.1387,-1.6434,0.4374,4.8176,-8.3585,-1.7585,-1.0231,-0.7731,-0.6361
3.6500,-0.4017,-0.7594,0.2239,4.7691,-8.4111,-1.6354,-1.0547,-0.7015,-0.8216
3.6600,-1.1431,0.0357,0.5090,4.6995,-8.4729,-1.5130,-1.0697,-0.6475,-1.0733
3.6700,-1.4262,0.6270,0.7960,4.6060,-8.5443,-1.3939,-1.0732,-0.5187,-1.3073
3.6800,-1.7212,1.1723,0.8542,4.4907,-8.6229,-1.2811,-1.0725,-0.3640,-1.5027
3.6900,-2.1540,1.3425,1.0349,4.3550,-8.7072,-1.1743,-1.0839,-0.2067,-1.6929
3.7000,-2.1909,1.2622,1.2561,4.1999,-8.7960,-1.0728,-1.1060,-0.0259,-1.8575
3.7100,-1.9389,1.0815,1.4239,4.0286,-8.8868,-0.9763,-1.1263,0.1727,-1.9731
3.7200,-1.7927,0.6862,1.5962,3.8453,-8.9770,-0.8853,-1.1346,0.3661,-2.0474
3.7300,-1.7566,0.2679,1.7492,3.6533,-9.0648,-0.7997,-1.1238,0.5330,-2.0977
3.7400,-1.6582,-0.0902,1.8474,3.4547,-9.1490,-0.7193,-1.0998,0.6786,-2.1363
3.7500,-1.5577,-0.5356,1.9474,3.2508,-9.2290,-0.6444,-1.0558,0.7942,-2.1653
3.7600,-1.4724,-1.0215,2.1103,3.0435,-9.3039,-0.5756,-0.9852,0.8728,-2.1706
3.7700,-1.2590,-1.3906,2.3242,2.8362,-9.3729,-0.5131,-0.9123,0.9184,-2.1357
3.7800,-0.8363,-1.6705,2.4251,2.6329,-9.4350,-0.4559,-0.8416,0.9506,-2.0613
3.7900,-0.2359,-1.7812,2.3472,2.4374,-9.4898,-0.4037,-0.7786,0.9862,-1.9554
3.8000,0.1818,-1.7479,2.2617,2.2528,-9.5374,-0.3536,-0.7612,0.9746,-1.8236
3.8100,0.3701,-1.7656,2.2139,2.0820,-9.5780,-0.2994,-0.7908,0.8588,-1.6579
3.8200,0.5727,-1.6763,1.9308,1.9307,-9.6115,-0.2365,-0.8291,0.6200,-1.4233
3.8300,0.7306,-1.5366,1.6308,1.8067,-9.6372,-0.1630,-0.8719,0.2831,-1.1091
3.8400,0.8699,-1.3208,1.4543,1.7164,-9.6548,-0.0773,-0.9345,-0.1015,-0.7447
3.8500,0.9553,-0.9322,1.2283,1.6620,-9.6646,0.0226,-1.0261,-0.4921,-0.3787
3.8600,0.8728,-0.6394,1.1392,1.6409,-9.6672,0.1394,-1.1494,-0.8828,-0.0524
3.8700,0.5924,-0.5143,1.0915,1.6464,-9.6633,0.2751,-1.2787,-1.2455,0.2023
3.8800,0.2196,-0.5051,0.9610,1.6696,-9.6537,0.4276,-1.3697,-1.5606,0.3685
3.8900,-0.2741,-0.6783,0.6370,1.7009,-9.6396,0.5903,-1.3753,-1.8411,0.4529
3.9000,-0.9472,-1.0554,0.0225,1.7323,-9.6227,0.7531,-1.2778,-2.0623,0.4602
3.9100,-1.5939,-1.4632,-0.6655,1.7560,-9.6052,0.9067,-1.1042,-2.2774,0.3953
3.9200,-2.3535,-1.7563,-1.3270,1.7642,-9.5895,1.0462,-0.9022,-2.5378,0.2591
3.9300,-3.2478,-1.7539,-1.9996,1.7499,-9.5778,1.1703,-0.7025,-2.7437,0.0494
3.9400,-3.8336,-1.4568,-2.6972,1.7074,-9.5720,1.2765,-0.5037,-2.7237,-0.2342
3.9500,-3.8411,-0.9842,-3.4334,1.6350,-9.5732,1.3596,-0.3236,-2.3976,-0.5629
3.9600,-3.3854,-0.4035,-3.9158,1.5357,-9.5812,1.4174,-0.1762,-1.8182,-0.8763
3.9700,-2.7540,0.2180,-3.9556,1.4181,-9.5944,1.4501,-0.0451,-1.0979,-1.1129
3.9800,-1.9825,0.8570,-3.6686,1.2927,-9.6108,1.4586,0.0748,-0.3415,-1.2526
3.9900,-1.2004,1.4353,-3.1688,1.1681,-9.6286,1.4464,0.1773,0.3379,-1.3176
4.0000,-0.6390,1.8984,-2.2263,1.0483,-9.6465,1.4184,0.2639,0.8547,-1.3279
4.0100,-0.3604,2.1160,-1.5521,0.9346,-9.6640,1.3783,0.3512,1.1878,-1.3131
4.0200,-0.3613,1.7287,-1.4284,0.8233,-9.6812,1.3278,0.4602,1.3536,-1.3408
4.0300,-0.3466,1.0629,-1.1798,0.7055,-9.6987,1.2663,0.5849,1.3987,-1.4543
4.0400,-0.0129,0.5378,-0.8270,0.5735,-9.7164,1.1946,0.7027,1.3268,-1.5984
4.0500,0.7609,-0.0156,-0.3635,0.4275,-9.7334,1.1138,0.8130,1.1358,-1.6659
4.0600,1.8709,-0.6301,0.2774,0.2779,-9.7484,1.0266,0.8778,0.8793,-1.5935
4.0700,2.8821,-1.2433,1.2541,0.1388,-9.7601,0.9410,0.8131,0.5651,-1.3751
4.0800,3.1702,-1.5394,2.1522,0.0222,-9.7678,0.8701,0.6064,0.1202,-1.0611
4.0900,2.5652,-1.3794,2.2969,-0.0678,-9.7717,0.8232,0.3447,-0.3626,-0.7648
4.1000,1.5102,-1.0494,1.6360,-0.1394,-9.7730,0.7983,0.1626,-0.4710,-0.6502
4.1100,0.5953,-0.4562,1.0640,-0.2096,-9.7727,0.7870,0.0727,-0.0570,-0.7531
4.1200,0.4323,0.3772,0.6213,-0.2888,-9.7711,0.7820,0.0515,0.4756,-0.8780
4.1300,0.8311,0.9673,0.2158,-0.3699,-9.7687,0.7771,0.0912,0.7021,-0.8457
4.1400,1.0284,1.3852,0.4457,-0.4398,-9.7664,0.7699,0.1067,0.5657,-0.6738
4.1500,0.7951,1.7774,0.7620,-0.4942,-9.7645,0.7622,0.0889,0.3523,-0.5186
4.1600,0.4572,1.9737,0.7844,-0.5398,-9.7625,0.7565,0.0568,0.2825,-0.4713
4.1700,0.2915,1.8201,0.5187,-0.5844,-9.7601,0.7543,0.0201,0.2766,-0.4859
4.1800,0.3468,1.3693,-0.0335,-0.6309,-9.7571,0.7551,-0.0024,0.2356,-0.4970
4.1900,0.6914,0.9047,-0.5378,-0.6768,-9.7539,0.7576,-0.0237,0.1662,-0.4637
4.2000,0.9617,0.6928,-0.7276,-0.7173,-9.7506,0.7622,-0.0470,0.1287,-0.3791
4.2100,1.2663,0.4298,-0.8992,-0.7486,-9.7478,0.7687,-0.0602,0.1798,-0.2852
4.2200,1.7206,-0.0729,-1.1953,-0.7712,-9.7454,0.7764,-0.0592,0.2707,-0.2140
4.2300,1.8553,-0.5002,-1.4858,-0.7874,-9.7435,0.7843,-0.0539,0.3306,-0.1698
4.2400,1.6790,-0.7501,-1.7417,-0.8006,-9.7418,0.7923,-0.0562,0.3347,-0.1575
4.2500,1.3384,-0.6980,-1.9120,-0.8146,-9.7399,0.8011,-0.0765,0.2728,-0.1814
4.2600,0.8623,-0.3636,-2.0276,-0.8326,-9.7373,0.8131,-0.1362,0.1634,-0.2211
4.2700,0.4782,0.1337,-1.9336,-0.8543,-9.7339,0.8317,-0.2273,0.0668,-0.2362
4.2800,0.4096,0.5668,-1.6535,-0.8762,-9.7296,0.8587,-0.3140,0.0367,-0.2155
4.2900,0.5042,0.7093,-1.4030,-0.8950,-9.7248,0.8931,-0.3794,0.0749,-0.1797
4.3000,0.6211,0.6807,-1.2075,-0.9101,-9.7196,0.9335,-0.4240,0.1374,-0.1487
4.3100,0.6874,0.6722,-1.0821,-0.9219,-9.7141,0.9777,-0.4477,0.1890,-0.1255
4.3200,0.7264,0.6970,-1.0427,-0.9311,-9.7085,1.0236,-0.4533,0.2062,-0.1043
4.3300,0.7491,0.6995,-1.0549,-0.9386,-9.7029,1.0694,-0.4447,0.1856,-0.0926
4.3400,0.6385,0.6724,-1.0903,-0.9455,-9.6972,1.1133,-0.4200,0.1624,-0.0875
4.3500,0.5316,0.5821,-1.1913,-0.9520,-9.6919,1.1532,-0.3634,0.1532,-0.0875
4.3600,0.2935,0.2893,-1.4315,-0.9617,-9.6871,1.1852,-0.2567,0.1346,-0.1585
4.3700,-0.7243,-0.4339,-1.8157,-0.9844,-9.6825,1.2040,-0.1076,0.0542,-0.3411
4.3800,-1.8880,-1.6245,-1.9222,-1.0270,-9.6774,1.2092,-0.0206,-0.0834,-0.5188
4.3900,-1.6525,-1.8634,-1.0411,-1.0826,-9.6709,1.2130,-0.1156,-0.1953,-0.5709
4.4000,-0.6848,-1.2412,0.1884,-1.1383,-9.6620,1.2325,-0.3443,-0.2322,-0.5099
4.4100,-0.3103,-1.0695,0.6323,-1.1853,-9.6509,1.2749,-0.5697,-0.1377,-0.4077
4.4200,-0.0048,-1.2014,1.3519,-1.2216,-9.6377,1.3382,-0.7395,0.0593,-0.3381
4.4300,-0.0439,-1.3488,2.4348,-1.2523,-9.6225,1.4168,-0.8473,0.1286,-0.3361
4.4400,-0.6546,-1.4223,2.9105,-1.2867,-9.6051,1.5013,-0.8794,-0.0391,-0.3986
4.4500,-1.1014,-1.7806,2.9572,-1.3330,-9.5858,1.5823,-0.8372,-0.2751,-0.5131
4.4600,-1.3023,-2.4870,2.7774,-1.3946,-9.5647,1.6551,-0.7751,-0.3795,-0.6529
4.4700,-1.2012,-3.1923,2.5801,-1.4689,-9.5415,1.7232,-0.7567,-0.3252,-0.7572
4.4800,-0.8076,-3.8573,2.1877,-1.5476,-9.5161,1.7932,-0.7925,-0.2042,-0.7725
4.4900,-0.1991,-4.7663,1.5652,-1.6209,-9.4891,1.8702,-0.8679,-0.0583,-0.7005
4.5000,0.5398,-5.9857,0.8656,-1.6805,-9.4611,1.9572,-0.9541,0.1061,-0.5510
4.5100,1.2843,-6.9662,0.2497,-1.7196,-9.4333,2.0549,-1.0302,0.2948,-0.3538
4.5200,1.8647,-7.1452,-0.3085,-1.7352,-9.4066,2.1616,-1.0737,0.4711,-0.1490
4.5300,2.1985,-6.4554,-0.9900,-1.7283,-9.3820,2.2713,-1.0444,0.5769,0.0417
4.5400,2.3784,-5.1664,-1.6913,-1.7024,-9.3610,2.3749,-0.9266,0.5972,0.2130
4.5500,2.5315,-3.7716,-2.2169,-1.6606,-9.3457,2.4633,-0.7440,0.5274,0.3851
4.5600,2.5883,-3.1098,-2.4492,-1.6039,-9.3375,2.5312,-0.5373,0.4139,0.5729
4.5700,2.8450,-2.2224,-2.6648,-1.5312,-9.3369,2.5780,-0.3381,0.3223,0.7811
4.5800,3.0824,-1.3273,-2.8610,-1.4391,-9.3439,2.6054,-0.1518,0.2754,1.0205
4.5900,3.2333,-1.0870,-2.9976,-1.3231,-9.3584,2.6148,0.0334,0.2668,1.3002
4.6000,3.6867,-0.7933,-3.3220,-1.1788,-9.3800,2.6057,0.2344,0.2940,1.6078
4.6100,4.1674,-0.8279,-3.7433,-1.0040,-9.4082,2.5765,0.4632,0.3684,1.9108
4.6200,4.5884,-1.1491,-4.1298,-0.7996,-9.4415,2.5249,0.7127,0.4994,2.1606
4.6300,4.7804,-1.6915,-4.3036,-0.5714,-9.4779,2.4487,0.9718,0.6634,2.3201
4.6400,4.4905,-2.4432,-4.1929,-0.3289,-9.5145,2.3489,1.1786,0.8577,2.3620
4.6500,3.6750,-3.1101,-3.6014,-0.0829,-9.5481,2.2312,1.3021,1.0956,2.2877
4.6600,2.3686,-3.5700,-2.6625,0.1565,-9.5765,2.1019,1.3675,1.3678,2.1293
4.6700,0.7661,-3.7940,-1.5780,0.3830,-9.5995,1.9637,1.4120,1.5900,1.9452
4.6800,-0.7169,-3.6302,-0.5547,0.5940,-9.6177,1.8171,1.4616,1.6518,1.7906
4.6900,-1.7056,-3.0225,0.1917,0.7904,-9.6315,1.6626,1.5060,1.4936,1.7054
4.7000,-2.1511,-2.1554,0.7587,0.9771,-9.6405,1.5039,1.5146,1.2032,1.7109
4.7100,-2.0980,-1.3775,1.3809,1.1607,-9.6432,1.3483,1.4495,0.9509,1.7611
4.7200,-1.8480,-0.7616,2.1848,1.3445,-9.6386,1.2026,1.3142,0.8437,1.7897
4.7300,-1.7942,-0.2487,3.0154,1.5282,-9.6267,1.0724,1.1106,0.8422,1.8056
4.7400,-1.7605,0.2533,3.9823,1.7141,-9.6069,0.9637,0.8447,0.8617,1.8669
4.7500,-1.4512,0.6705,5.1865,1.9072,-9.5785,0.8793,0.5771,0.9059,1.9687
4.7600,-1.3728,0.8864,5.9710,2.1071,-9.5423,0.8146,0.4008,0.9228,2.0186
4.7700,-1.9642,0.7706,5.1333,2.3053,-9.5011,0.7580,0.4120,0.8330,1.9566
4.7800,-2.6174,0.1430,2.3864,2.4903,-9.4598,0.6869,0.7349,0.7272,1.7820
4.7900,-3.1971,-1.1764,-0.8415,2.6505,-9.4239,0.5699,1.3654,0.7255,1.4770
4.8000,-3.5491,-2.8719,-2.6808,2.7753,-9.3971,0.3850,2.0776,0.8873,1.0723
4.8100,-3.1286,-4.2162,-2.5552,2.8596,-9.3784,0.1320,2.5947,1.3113,0.6674
4.8200,-2.1503,-4.9412,-1.5979,2.9078,-9.3626,-0.1722,2.8658,1.8251,0.3966
4.8300,-1.4921,-5.1001,-1.3031,2.9338,-9.3421,-0.5082,3.0429,2.0803,0.3265
4.8400,-1.2139,-4.7524,-1.2238,2.9507,-9.3163,-0.8008,3.1407,2.0335,0.4000
4.8500,-1.0429,-4.4716,-1.0003,2.9580,-9.3031,-0.9194,3.1532,1.9599,0.4607
4.8600,-0.6345,-3.5385,-0.1289,2.9856,-9.2612,-1.2071,3.0772,1.6678,0.6579
4.8700,-0.4305,-2.3859,0.7291,3.0415,-9.1961,-1.5254,2.8482,1.1252,0.9580
4.8800,-0.6492,-1.5396,0.9958,3.1288,-9.1167,-1.8016,2.5930,0.5575,1.2231
4.8900,-1.3051,-0.9990,1.0970,3.2403,-9.0269,-2.0413,2.4321,0.1745,1.3463
4.9000,-2.3321,-0.5492,1.4040,3.3614,-8.9304,-2.2589,2.3616,-0.0774,1.3419
4.9100,-3.1604,-0.1053,1.8593,3.4841,-8.8293,-2.4615,2.3279,-0.3163,1.3018
4.9200,-3.4272,0.2108,2.2526,3.6120,-8.7229,-2.6493,2.3106,-0.6398,1.3293
4.9300,-3.3573,0.4281,2.6402,3.7569,-8.6084,-2.8171,2.2549,-1.0546,1.4713
4.9400,-3.1093,0.7858,2.7378,3.9290,-8.4830,-2.9590,2.1626,-1.4254,1.6921
4.9500,-2.8811,1.2617,2.7541,4.1258,-8.3464,-3.0768,2.0856,-1.5456,1.8409
4.9600,-3.1967,1.8598,3.0157,4.3318,-8.2027,-3.1785,1.9809,-1.5998,1.8915
4.9700,-3.6670,2.1754,3.2020,4.5442,-8.0559,-3.2565,1.7874,-1.8692,1.9560
4.9800,-4.0633,2.7520,3.3426,4.7709,-7.9076,-3.2954,1.5434,-2.1785,2.0227
4.9900,-4.3872,3.6410,3.4504,5.0052,-7.7610,-3.2963,1.2851,-2.2985,2.0170
5.0000,-4.2552,4.1280,3.4913,5.2329,-7.6216,-3.2681,1.0129,-2.2442,1.9162
5.0100,-4.0006,4.6169,3.4789,5.4442,-7.4941,-3.2177,0.7620,-2.1436,1.7516
5.0200,-3.7799,5.1080,3.2959,5.6344,-7.3813,-3.1508,0.5435,-2.0088,1.5461
5.0300,-3.5047,5.5033,3.1012,5.7996,-7.2852,-3.0743,0.3590,-1.8001,1.3057
5.0400,-3.2232,5.7587,2.9143,5.9360,-7.2073,-2.9971,0.2262,-1.5328,1.0367
5.0500,-2.9275,5.9625,2.6780,6.0419,-7.1482,-2.9266,0.1439,-1.2519,0.7507
5.0600,-2.7142,6.0545,2.4497,6.1175,-7.1077,-2.8679,0.1126,-0.9639,0.4587
5.0700,-2.5691,5.9477,2.1588,6.1633,-7.0849,-2.8262,0.1383,-0.6721,0.1702
5.0800,-2.4303,5.6898,1.7796,6.1798,-7.0788,-2.8057,0.2025,-0.3781,-0.1245
5.0900,-2.3753,5.3531,1.4421,6.1670,-7.0889,-2.8079,0.2790,-0.1052,-0.4194
5.1000,-2.2564,4.9752,1.1480,6.1273,-7.1143,-2.8306,0.3498,0.0960,-0.6854
5.1100,-2.1287,4.4811,0.8769,6.0657,-7.1523,-2.8671,0.3952,0.2075,-0.8995
5.1200,-2.0386,3.9519,0.7779,5.9880,-7.2001,-2.9102,0.4033,0.2531,-1.0564
5.1300,-1.8178,3.6167,0.8673,5.8993,-7.2554,-2.9538,0.3700,0.2526,-1.1730
5.1400,-1.6336,3.4656,1.0253,5.8031,-7.3172,-2.9917,0.3015,0.1858,-1.2673
5.1500,-1.6632,3.2743,1.0617,5.7025,-7.3851,-3.0180,0.2098,0.0566,-1.3488
5.1600,-1.4994,2.9940,1.0026,5.5997,-7.4589,-3.0289,0.1026,-0.0826,-1.4143
5.1700,-1.0030,2.7197,0.9048,5.4951,-7.5377,-3.0252,-0.0112,-0.1694,-1.4625
5.1800,-0.6400,2.4167,0.7386,5.3867,-7.6213,-3.0106,-0.1249,-0.1673,-1.5211
5.1900,0.2139,1.8253,0.1660,5.2703,-7.7095,-2.9920,-0.1922,-0.0200,-1.5762
5.2000,3.3966,0.4550,-1.7927,5.1447,-7.7948,-2.9897,-0.0921,0.4570,-1.4664
5.2100,7.4778,-2.1117,-4.6454,5.0174,-7.8602,-3.0344,0.1912,1.1806,-1.1376
5.2200,5.6099,-5.9670,-6.1118,4.8836,-7.9036,-3.1377,0.5416,1.5851,-1.1268
5.2300,-0.1580,-7.9724,-3.7236,4.7397,-7.9455,-3.2505,0.4314,1.1653,-1.2688
5.2400,-0.4471,-6.5585,-0.1822,4.6242,-7.9928,-3.3014,-0.0815,0.3811,-0.9216
5.2500,1.9383,-5.0736,0.9632,4.5700,-8.0319,-3.2822,-0.3604,-0.3730,-0.4441
5.2600,2.0090,-4.6400,1.5853,4.5690,-8.0598,-3.2144,-0.4679,-1.0876,-0.2088
5.2700,1.0966,-4.2578,1.7094,4.5959,-8.0836,-3.1145,-0.5489,-1.3850,-0.1311
5.2800,0.5263,-3.1055,0.8292,4.6292,-8.1060,-3.0050,-0.5744,-1.3322,-0.0850
5.2900,1.0530,-1.2316,0.1138,4.6613,-8.1266,-2.8980,-0.5919,-1.2246,-0.0649
5.3000,0.9762,0.2510,-0.1218,4.6876,-8.1489,-2.7909,-0.6446,-1.1986,-0.1536
5.3100,0.3913,1.2584,0.1540,4.7004,-8.1793,-2.6782,-0.7220,-1.1966,-0.3486
5.3200,0.4634,2.1503,0.4811,4.6918,-8.2215,-2.5612,-0.8022,-1.0790,-0.5984
5.3300,0.3434,2.6002,0.5184,4.6540,-8.2777,-2.4466,-0.8593,-0.8408,-0.9023
5.3400,0.3543,2.7449,0.5264,4.5832,-8.3475,-2.3405,-0.9062,-0.5439,-1.1854
5.3500,0.5849,2.8847,0.5288,4.4822,-8.4285,-2.2438,-0.9638,-0.2417,-1.4224
5.3600,0.4424,2.7508,0.6772,4.3531,-8.5189,-2.1540,-1.0445,0.0434,-1.6538
5.3700,-0.1976,1.8707,1.1400,4.1982,-8.6175,-2.0670,-1.1410,0.2848,-1.8510
5.3800,-0.8897,0.4344,1.6058,4.0231,-8.7209,-1.9793,-1.2320,0.4803,-1.9775
5.3900,-1.1252,-0.9128,1.9612,3.8352,-8.8250,-1.8888,-1.3104,0.6206,-2.0338
5.4000,-1.0715,-1.9719,2.2190,3.6410,-8.9265,-1.7936,-1.3701,0.6778,-2.0358
5.4100,-1.1198,-2.7852,2.3233,3.4477,-9.0226,-1.6922,-1.3950,0.6338,-1.9821
5.4200,-1.2676,-3.0947,2.1789,3.2615,-9.1107,-1.5858,-1.3675,0.5356,-1.8889
5.4300,-1.2596,-2.8188,1.8784,3.0851,-9.1899,-1.4791,-1.2960,0.4725,-1.7793
5.4400,-1.1017,-2.2615,1.6117,2.9182,-9.2600,-1.3772,-1.2067,0.4654,-1.6773
5.4500,-1.0252,-1.4655,1.4132,2.7588,-9.3224,-1.2816,-1.1286,0.4740,-1.6052
5.4600,-1.0456,-0.5421,1.2599,2.6042,-9.3787,-1.1915,-1.0666,0.4845,-1.5619
5.4700,-0.9701,0.2466,1.0716,2.4516,-9.4303,-1.1049,-1.0404,0.5143,-1.5495
5.4800,-0.8499,0.7650,1.0564,2.2982,-9.4786,-1.0179,-1.0599,0.5421,-1.5581
5.4900,-0.8540,0.9742,1.1411,2.1440,-9.5240,-0.9268,-1.1061,0.5522,-1.5535
5.5000,-0.7859,0.9133,1.0964,1.9924,-9.5659,-0.8287,-1.1756,0.5324,-1.4967
5.5100,-0.5578,0.6602,1.0957,1.8499,-9.6031,-0.7214,-1.2486,0.4579,-1.3707
5.5200,-0.3716,0.2323,1.0611,1.7230,-9.6348,-0.6045,-1.3148,0.3261,-1.1923
5.5300,-0.5005,-0.5649,1.0442,1.6158,-9.6604,-0.4782,-1.3641,0.1131,-0.9881
5.5400,-0.6576,-1.1062,1.0192,1.5301,-9.6801,-0.3445,-1.3720,-0.1765,-0.7728
5.5500,-0.7652,-1.5623,0.7419,1.4659,-9.6940,-0.2076,-1.3326,-0.4854,-0.5649
5.5600,-0.9109,-2.0230,0.3878,1.4208,-9.7027,-0.0724,-1.2492,-0.7762,-0.3843
5.5700,-0.9530,-1.8456,0.1840,1.3903,-9.7072,0.0578,-1.1558,-1.0461,-0.2429
5.5800,-0.9938,-1.5259,0.0840,1.3704,-9.7085,0.1841,-1.1059,-1.2901,-0.1394
5.5900,-0.9543,-1.2192,-0.1154,1.3563,-9.7072,0.3104,-1.0952,-1.4759,-0.0861
5.6000,-0.8920,-1.0330,-0.5861,1.3425,-9.7043,0.4370,-1.0641,-1.5995,-0.0838
5.6100,-0.9262,-1.0699,-1.2011,1.3249,-9.7005,0.5585,-0.9736,-1.6716,-0.1121
5.6200,-1.3063,-1.2883,-1.8697,1.2997,-9.6969,0.6690,-0.8267,-1.7200,-0.2000
5.6300,-1.8173,-1.6028,-2.6189,1.2591,-9.6954,0.7626,-0.6314,-1.7096,-0.3861
5.6400,-2.1906,-1.3700,-2.8876,1.1958,-9.6974,0.8360,-0.4568,-1.6139,-0.6428
5.6500,-2.3502,-0.7788,-2.5627,1.1068,-9.7029,0.8918,-0.3356,-1.4250,-0.9079
5.6600,-2.0814,-0.3688,-1.9991,0.9948,-9.7112,0.9325,-0.2308,-1.0747,-1.1444
5.6700,-1.8520,0.1217,-1.4948,0.8648,-9.7210,0.9587,-0.1359,-0.6502,-1.3422
5.6800,-1.6665,0.5828,-1.1774,0.7216,-9.7315,0.9711,-0.0454,-0.2563,-1.4876
5.6900,-1.0252,1.0124,-0.6813,0.5713,-9.7412,0.9736,0.0001,0.0931,-1.5513
5.7000,0.0301,1.6771,-0.0809,0.4232,-9.7487,0.9739,-0.0368,0.3894,-1.5030
5.7100,0.9754,2.2926,0.2490,0.2869,-9.7532,0.9792,-0.1029,0.6060,-1.3677
5.7200,1.2931,2.4451,-0.0816,0.1667,-9.7552,0.9880,-0.0883,0.6810,-1.2186
5.7300,1.3328,2.3987,-0.4666,0.0567,-9.7565,0.9870,0.1215,0.6645,-1.1850
5.7400,0.8764,2.0202,-1.3022,-0.0599,-9.7593,0.9578,0.4699,0.6620,-1.3363
5.7500,-0.0682,1.1459,-2.5304,-0.1931,-9.7632,0.8986,0.7213,0.6668,-1.4848
5.7600,0.3112,0.4296,-2.2066,-0.3322,-9.7657,0.8277,0.7371,0.7185,-1.4448
5.7700,2.1754,0.0884,-0.6812,-0.4589,-9.7656,0.7669,0.5343,0.7666,-1.2402
5.7800,3.5100,-0.0741,0.8636,-0.5618,-9.7630,0.7329,0.2298,0.6864,-0.9655
5.7900,3.6850,-0.0758,1.8704,-0.6398,-9.7588,0.7257,0.0127,0.5599,-0.7283
5.8000,3.1796,0.0029,1.6737,-0.7003,-9.7541,0.7328,-0.0836,0.4617,-0.5987
5.8100,2.3433,0.2822,1.2347,-0.7520,-9.7491,0.7480,-0.1774,0.2590,-0.5140
5.8200,1.5615,0.6123,1.6869,-0.7964,-9.7439,0.7696,-0.2335,0.0461,-0.4056
5.8300,1.3194,0.6196,1.8254,-0.8315,-9.7393,0.7904,-0.1656,0.1119,-0.3277
5.8400,1.4769,0.5398,0.9855,-0.8613,-9.7358,0.8011,-0.0093,0.3114,-0.3260
5.8500,1.0687,0.5033,0.0052,-0.8910,-9.7334,0.7978,0.1331,0.4064,-0.3376
5.8600,0.5546,0.4297,-0.5574,-0.9193,-9.7318,0.7855,0.1847,0.4591,-0.3068
5.8700,0.7115,0.4646,-0.7455,-0.9431,-9.7305,0.7730,0.1625,0.5562,-0.2621
5.8800,0.9639,0.4801,-0.9692,-0.9617,-9.7294,0.7641,0.1389,0.6290,-0.2093
5.8900,0.9395,0.2051,-1.5214,-0.9737,-9.7289,0.7561,0.1572,0.6494,-0.1341
5.9000,0.8892,-0.1440,-2.2412,-0.9783,-9.7293,0.7448,0.2054,0.6577,-0.0658
5.9100,0.6298,-0.3181,-3.0769,-0.9778,-9.7306,0.7283,0.2569,0.6159,-0.0275
5.9200,0.1895,-0.1347,-3.4686,-0.9761,-9.7322,0.7081,0.2586,0.5104,-0.0262
5.9300,-0.0317,0.4534,-3.1252,-0.9768,-9.7334,0.6913,0.1584,0.3635,-0.0546
5.9400,-0.1350,1.1140,-2.6341,-0.9822,-9.7331,0.6875,-0.0347,0.2020,-0.0963
5.9500,-0.1279,1.5106,-2.2513,-0.9932,-9.7309,0.7030,-0.2527,0.0975,-0.1508
5.9600,0.0742,1.5270,-1.9997,-1.0101,-9.7265,0.7376,-0.4323,0.0866,-0.2072
5.9700,0.3419,1.3657,-1.6533,-1.0317,-9.7203,0.7880,-0.5715,0.1387,-0.2514
5.9800,0.5104,1.2078,-1.1931,-1.0565,-9.7122,0.8518,-0.6943,0.2109,-0.2826
5.9900,0.5462,0.9454,-0.9357,-1.0826,-9.7025,0.9268,-0.7827,0.2624,-0.2935
6.0000,0.4117,0.4322,-1.0037,-1.1083,-9.6915,1.0071,-0.7935,0.2707,-0.2875
6.0100,-0.0941,-0.4325,-1.2203,-1.1345,-9.6803,1.0835,-0.7030,0.2386,-0.3119
6.0200,-0.9203,-1.6162,-1.3772,-1.1663,-9.6694,1.1457,-0.5201,0.1566,-0.3954
6.0300,-1.4249,-2.5021,-1.0314,-1.2087,-9.6590,1.1882,-0.3381,0.0604,-0.5022
6.0400,-1.4961,-2.5320,0.0269,-1.2617,-9.6485,1.2178,-0.2883,-0.0256,-0.5873
6.0500,-1.6808,-2.2000,1.0514,-1.3224,-9.6365,1.2486,-0.3813,-0.1380,-0.6415
6.0600,-1.7905,-2.1102,1.5805,-1.3886,-9.6216,1.2904,-0.5336,-0.1897,-0.6792
6.0700,-1.4904,-2.3414,1.8056,-1.4566,-9.6038,1.3464,-0.6675,-0.1403,-0.6747
6.0800,-1.1221,-2.7376,1.7280,-1.5203,-9.5845,1.4123,-0.7282,-0.1066,-0.6070
6.0900,-0.7619,-3.0656,1.6028,-1.5758,-9.5651,1.4811,-0.7370,-0.1311,-0.5104
6.1000,-0.0684,-3.5505,1.5541,-1.6220,-9.5467,1.5489,-0.7188,-0.1407,-0.4054
6.1100,0.4200,-3.9123,1.4747,-1.6578,-9.5295,1.6156,-0.7111,-0.0546,-0.3078
6.1200,0.8601,-4.3791,1.6380,-1.6830,-9.5130,1.6851,-0.7294,0.0981,-0.2203
6.1300,1.5745,-5.6317,1.8756,-1.6959,-9.4975,1.7579,-0.7195,0.2861,-0.1128
6.1400,2.1236,-7.1526,1.8361,-1.6940,-9.4839,1.8316,-0.6787,0.4876,0.0082
6.1500,2.5315,-8.0398,1.6678,-1.6766,-9.4734,1.9005,-0.5680,0.5791,0.1484
6.1600,2.7226,-7.9502,1.0710,-1.6433,-9.4680,1.9562,-0.4016,0.5391,0.3231
6.1700,2.8363,-6.7234,0.1485,-1.5924,-9.4685,1.9952,-0.2490,0.4429,0.5473
6.1800,3.0171,-4.7757,-0.6838,-1.5193,-9.4755,2.0187,-0.1210,0.3255,0.8320
6.1900,3.1874,-3.1032,-1.5340,-1.4192,-9.4887,2.0292,-0.0157,0.2089,1.1571
6.2000,3.2490,-1.9989,-2.3735,-1.2895,-9.5074,2.0278,0.0944,0.1097,1.4888
6.2100,3.1895,-1.2094,-3.1820,-1.1310,-9.5304,2.0136,0.2277,0.0421,1.7827
6.2200,3.0100,-0.5301,-3.8689,-0.9480,-9.5564,1.9843,0.3939,-0.0034,2.0133
6.2300,2.6851,-0.1190,-4.3880,-0.7468,-9.5838,1.9367,0.5955,-0.0081,2.1593
6.2400,2.1707,-0.0870,-4.6880,-0.5348,-9.6113,1.8692,0.8039,0.0652,2.2151
6.2500,1.5178,-0.5750,-4.4795,-0.3181,-9.6371,1.7837,0.9636,0.2469,2.1997
6.2600,0.8191,-1.5139,-3.6328,-0.1007,-9.6592,1.6867,1.0345,0.5484,2.1372
6.2700,0.1676,-2.5195,-2.3958,0.1146,-9.6762,1.5854,1.0395,0.8924,2.0489
6.2800,-0.3137,-3.3098,-1.2047,0.3252,-9.6879,1.4815,1.0518,1.0994,1.9610
6.2900,-0.5866,-3.6983,-0.1598,0.5286,-9.6951,1.3721,1.1027,1.1127,1.8871
6.3000,-0.5371,-3.5538,0.7516,0.7244,-9.6984,1.2548,1.1703,1.0001,1.8457
6.3100,-0.0244,-2.9903,1.7660,0.9158,-9.6974,1.1308,1.2123,0.8529,1.8604
6.3200,0.6938,-2.2205,3.2517,1.1089,-9.6910,1.0059,1.1631,0.8201,1.9280
6.3300,0.9605,-1.2535,4.9644,1.3095,-9.6774,0.8893,1.0005,0.9287,2.0229
6.3400,0.5467,-0.2281,6.3205,1.5184,-9.6555,0.7887,0.7640,1.1118,2.0954
6.3500,-0.2833,0.4865,6.7572,1.7315,-9.6260,0.7062,0.5333,1.2941,2.1041
6.3600,-0.8786,0.7067,6.7188,1.9406,-9.5909,0.6387,0.3605,1.3701,2.0235
6.3700,-1.9210,0.9972,5.7178,2.1366,-9.5528,0.5829,0.2393,1.2590,1.8730
6.3800,-3.1037,1.3331,4.2019,2.3144,-9.5140,0.5390,0.1612,0.9793,1.6979
6.3900,-3.3149,1.2194,2.7357,2.4719,-9.4764,0.5028,0.1941,0.7342,1.4977
6.4000,-3.7208,0.7368,0.5517,2.6051,-9.4429,0.4597,0.4087,0.5691,1.2148
6.4100,-4.2536,-0.5014,-3.1773,2.7041,-9.4186,0.3799,0.9950,0.6261,0.8127
6.4200,-3.3143,-2.2097,-6.3139,2.7646,-9.4057,0.2216,1.8514,1.1153,0.4443
6.4300,-1.5768,-3.3197,-5.4694,2.7991,-9.3976,-0.0262,2.4782,1.7725,0.2945
6.4400,-0.9490,-3.3249,-2.5083,2.8240,-9.3841,-0.3285,2.6729,2.1690,0.3378
6.4500,-1.2698,-2.5706,-0.5525,2.8530,-9.3595,-0.6377,2.5861,1.9959,0.5089
6.4600,-1.3421,-1.9518,-0.3144,2.8996,-9.3215,-0.9239,2.4630,1.3852,0.7648
6.4700,-0.6892,-1.6514,-0.4541,2.9748,-9.2688,-1.1804,2.3680,0.7408,1.0709
6.4800,-0.3892,-1.5505,-0.2447,3.0808,-9.2017,-1.4106,2.2755,0.2807,1.3280
6.4900,-1.0735,-1.7855,-0.0459,3.2059,-9.1240,-1.6215,2.1942,0.0596,1.4183
6.5000,-1.6417,-2.0204,0.1085,3.3338,-9.0409,-1.8178,2.1016,-0.0681,1.3717
6.5100,-2.0987,-1.7773,0.6190,3.4587,-8.9558,-1.9972,2.0051,-0.3080,1.3081
6.5200,-2.7097,-1.2426,1.1327,3.5840,-8.8687,-2.1586,1.9492,-0.5255,1.2833
6.5300,-2.6771,-0.7800,1.4842,3.7167,-8.7772,-2.3034,1.8806,-0.8252,1.3716
6.5400,-2.6451,-0.1428,1.9712,3.8697,-8.6779,-2.4243,1.7681,-1.2212,1.5586
6.5500,-2.8903,0.4665,2.3000,4.0437,-8.5705,-2.5204,1.6562,-1.3802,1.6911
6.5600,-2.8423,0.7591,2.5870,4.2283,-8.4572,-2.5990,1.5465,-1.4235,1.7676
6.5700,-2.8789,1.1772,2.9191,4.4172,-8.3397,-2.6637,1.4549,-1.4950,1.8133
6.5800,-3.0993,1.6420,2.9295,4.6131,-8.2183,-2.7082,1.3294,-1.7071,1.8712
6.5900,-3.4868,2.4636,2.6311,4.8182,-8.0947,-2.7231,1.1574,-1.9304,1.8968
6.6000,-3.7637,3.4551,2.3496,5.0225,-7.9729,-2.7137,0.9985,-1.9546,1.8317
6.6100,-3.7404,3.9572,2.1381,5.1851,-7.8753,-2.6934,0.8647,-1.8923,1.7444
6.6200,-3.7196,4.1354,2.0399,5.2475,-7.8375,-2.6827,0.8067,-1.8521,1.7013
6.6300,-3.5581,4.5897,2.0480,5.3948,-7.7482,-2.6498,0.6513,-1.7528,1.5821
6.6400,-3.3568,5.0724,2.2253,5.5554,-7.6509,-2.6005,0.4767,-1.6220,1.4106
6.6500,-3.2471,5.5778,2.2605,5.6959,-7.5662,-2.5444,0.3549,-1.4794,1.2092
6.6600,-3.2643,5.9838,2.1071,5.8139,-7.4949,-2.4881,0.2813,-1.2901,0.9747
6.6700,-3.2833,6.1334,1.9594,5.9058,-7.4391,-2.4390,0.2372,-1.0317,0.7037
6.6800,-3.0395,5.7802,1.7325,5.9694,-7.4000,-2.4034,0.2340,-0.7511,0.4205
6.6900,-2.7643,5.1367,1.4267,6.0051,-7.3770,-2.3852,0.2698,-0.4725,0.1465
6.7000,-2.5306,4.6744,1.2811,6.0146,-7.3687,-2.3866,0.3234,-0.2119,-0.1070
6.7100,-2.2019,4.2940,1.2192,6.0006,-7.3735,-2.4071,0.3852,0.0112,-0.3307
6.7200,-1.8421,3.9735,1.2336,5.9663,-7.3891,-2.4441,0.4382,0.1921,-0.5185
6.7300,-1.5729,3.7300,1.3292,5.9154,-7.4135,-2.4934,0.4656,0.3227,-0.6710
6.7400,-1.4720,3.6393,1.4101,5.8515,-7.4451,-2.5493,0.4610,0.3822,-0.7950
6.7500,-1.2665,3.7107,1.4372,5.7779,-7.4831,-2.6052,0.4177,0.3941,-0.8936
6.7600,-0.8877,3.7637,1.3727,5.6968,-7.5269,-2.6571,0.3429,0.4124,-0.9730
6.7700,-0.6604,3.5622,1.1017,5.6086,-7.5762,-2.7041,0.2557,0.4419,-1.0486
6.7800,-0.6739,3.0903,0.6352,5.5125,-7.6316,-2.7456,0.1629,0.4681,-1.1400
6.7900,-0.6755,2.4456,0.1556,5.4073,-7.6938,-2.7807,0.0582,0.4948,-1.2436
6.8000,-0.5097,1.7977,-0.2880,5.2926,-7.7634,-2.8077,-0.0705,0.5244,-1.3355
6.8100,-0.2225,1.2457,-0.8393,5.1704,-7.8393,-2.8244,-0.2144,0.5280,-1.3917
6.8200,0.1044,0.6724,-1.5252,5.0450,-7.9191,-2.8285,-0.3347,0.4862,-1.4085
6.8300,0.9044,0.0476,-2.5069,4.9194,-7.9999,-2.8224,-0.3698,0.4222,-1.4068
6.8400,2.8869,-0.8909,-3.6723,4.7958,-8.0771,-2.8155,-0.3002,0.4338,-1.3397
6.8500,5.3931,-2.6872,-4.4409,4.6782,-8.1436,-2.8217,-0.1291,0.6426,-1.1945
6.8600,5.2733,-4.7256,-3.8765,4.5696,-8.1968,-2.8456,-0.0157,0.5838,-1.0280
6.8700,3.2872,-5.6034,-1.3689,4.4862,-8.2406,-2.8522,-0.2416,0.1029,-0.7430
6.8800,2.5998,-5.5928,0.3188,4.4415,-8.2786,-2.8117,-0.6192,-0.2565,-0.4073
6.8900,2.3708,-5.6998,0.5708,4.4288,-8.3122,-2.7316,-0.8339,-0.6064,-0.1904
6.9000,1.4191,-5.5906,0.7817,4.4402,-8.3417,-2.6205,-0.9296,-1.0316,-0.0771
6.9100,0.6929,-5.0488,0.7729,4.4645,-8.3695,-2.4869,-1.0076,-1.2737,-0.0713
6.9200,0.3754,-4.2141,0.6736,4.4876,-8.4000,-2.3381,-1.1142,-1.3643,-0.1521
6.9300,0.0048,-2.8549,0.5936,4.5001,-8.4364,-2.1771,-1.2298,-1.3507,-0.2878
6.9400,0.1786,-1.4247,0.8204,4.4953,-8.4801,-2.0109,-1.2935,-1.2144,-0.4716
6.9500,0.3833,-0.0888,0.9034,4.4665,-8.5316,-1.8510,-1.2717,-0.9957,-0.7124
6.9600,-0.2935,1.0682,0.8845,4.4083,-8.5919,-1.7056,-1.1953,-0.7513,-1.0081
6.9700,-1.3505,1.8578,1.0488,4.3177,-8.6620,-1.5779,-1.1264,-0.4718,-1.3162
6.9800,-1.7514,2.6138,1.2287,4.1946,-8.7415,-1.4673,-1.0998,-0.1526,-1.6031
6.9900,-1.6034,2.9838,1.3171,4.0421,-8.8287,-1.3696,-1.1276,0.1677,-1.8390
7.0000,-1.4534,2.7485,1.4457,3.8658,-8.9208,-1.2775,-1.2123,0.4396,-2.0154
7.0100,-1.6185,2.2589,1.7567,3.6709,-9.0154,-1.1846,-1.3100,0.6671,-2.1492
7.0200,-1.8495,1.4637,2.0406,3.4616,-9.1095,-1.0897,-1.3754,0.8831,-2.2437
7.0300,-1.8877,0.4605,2.1709,3.2421,-9.2007,-0.9951,-1.3846,1.0627,-2.3007
7.0400,-1.9037,-0.3712,2.1857,3.0164,-9.2864,-0.9042,-1.3315,1.2065,-2.3186
7.0500,-1.7799,-0.9598,2.0385,2.7891,-9.3650,-0.8203,-1.2387,1.3059,-2.2874
7.0600,-1.6335,-1.4156,1.7697,2.5654,-9.4351,-0.7438,-1.1378,1.3422,-2.2232
7.0700,-1.5271,-1.6083,1.5694,2.3479,-9.4969,-0.6737,-1.0281,1.3145,-2.1479
7.0800,-1.4078,-1.7822,1.4160,2.1380,-9.5507,-0.6088,-0.9311,1.2206,-2.0624
7.0900,-1.2552,-2.0817,1.3276,1.9374,-9.5973,-0.5457,-0.8793,1.0842,-1.9585
7.1000,-0.9765,-2.2069,1.3608,1.7490,-9.6370,-0.4801,-0.8668,0.9155,-1.8263
7.1100,-0.7069,-2.0464,1.3150,1.5761,-9.6701,-0.4087,-0.8896,0.6985,-1.6537
7.1200,-0.4412,-1.6011,1.0891,1.4234,-9.6969,-0.3287,-0.9334,0.4308,-1.4306
7.1300,-0.2486,-1.3357,0.8638,1.2949,-9.7176,-0.2394,-0.9799,0.1359,-1.1818
7.1400,-0.1335,-1.1645,0.5533,1.1908,-9.7328,-0.1427,-0.9936,-0.1581,-0.9452
7.1500,0.0099,-0.9299,0.1922,1.1091,-9.7434,-0.0434,-0.9608,-0.4253,-0.7279
7.1600,0.1736,-0.8228,-0.0087,1.0483,-9.7502,0.0529,-0.8829,-0.6439,-0.5107
7.1700,0.2698,-0.6345,0.0239,1.0082,-9.7535,0.1445,-0.8373,-0.8276,-0.2908
7.1800,0.2192,-0.6356,0.1973,0.9879,-9.7538,0.2362,-0.8548,-0.9838,-0.0933
7.1900,0.1193,-0.7338,0.1593,0.9832,-9.7514,0.3333,-0.9122,-1.1007,0.0532
7.2000,0.0638,-0.8277,-0.1636,0.9891,-9.7467,0.4367,-0.9554,-1.1902,0.1545
7.2100,0.0319,-0.9815,-0.4646,1.0014,-9.7401,0.5427,-0.9510,-1.2759,0.2163
7.2200,-0.3226,-1.1081,-1.0102,1.0151,-9.7323,0.6482,-0.9263,-1.3869,0.2204
7.2300,-0.9239,-1.2654,-1.8443,1.0232,-9.7240,0.7512,-0.8649,-1.5074,0.1449
7.2400,-1.5149,-1.4890,-2.6217,1.0168,-9.7169,0.8461,-0.7359,-1.6097,-0.0285
7.2500,-2.0474,-1.5072,-3.0845,0.9881,-9.7129,0.9235,-0.5128,-1.6391,-0.2658
7.2600,-2.2100,-1.3351,-3.1321,0.9346,-9.7129,0.9770,-0.2699,-1.5662,-0.5104
7.2700,-2.2273,-0.8755,-2.9335,0.8585,-9.7169,1.0068,-0.0677,-1.4083,-0.7413
7.2800,-2.3031,-0.0677,-2.5938,0.7620,-9.7240,1.0157,0.0901,-1.1299,-0.9687
7.2900,-2.1480,0.5164,-2.2396,0.6464,-9.7329,1.0093,0.1656,-0.7396,-1.1967
7.3000,-1.7553,0.9960,-1.6241,0.5145,-9.7420,0.9972,0.1417,-0.3388,-1.3699
7.3100,-1.1444,1.3502,-0.9189,0.3767,-9.7493,0.9873,0.0795,0.0018,-1.3841
7.3200,0.0323,1.5450,-0.5157,0.2473,-9.7542,0.9803,0.0703,0.2401,-1.2696
7.3300,0.9974,1.6549,-0.6237,0.1311,-9.7579,0.9664,0.2327,0.3585,-1.1751
7.3400,0.8500,1.4211,-1.6853,0.0167,-9.7626,0.9265,0.5910,0.4787,-1.2627
7.3500,-0.1600,0.8908,-3.3179,-0.1147,-9.7686,0.8506,0.9394,0.7353,-1.5262
7.3600,-0.6866,0.6869,-3.4767,-0.2662,-9.7736,0.7538,1.0401,0.9912,-1.6654
7.3700,0.6059,0.6702,-1.6744,-0.4163,-9.7752,0.6601,0.9210,1.0754,-1.5028
7.3800,2.6178,0.3525,0.1522,-0.5410,-9.7740,0.5852,0.6944,1.0290,-1.1615
7.3900,3.8471,0.1773,1.3526,-0.6328,-9.7714,0.5358,0.4243,0.8413,-0.8236
7.4000,3.9773,0.3845,2.1992,-0.6983,-9.7684,0.5092,0.2144,0.5317,-0.5998
7.4100,3.1433,0.6589,2.4478,-0.7505,-9.7651,0.4990,0.0432,0.1907,-0.5157
7.4200,1.9646,0.9795,2.7159,-0.7985,-9.7611,0.5033,-0.1249,-0.1380,-0.4685
7.4300,1.3137,1.3063,3.1315,-0.8416,-9.7568,0.5168,-0.1741,-0.4021,-0.3748
7.4400,1.6062,1.0682,1.5616,-0.8751,-9.7534,0.5247,-0.0474,-0.4534,-0.2590
7.4500,2.4084,0.5436,-0.5371,-0.8961,-9.7520,0.5164,0.1520,-0.2079,-0.1272
7.4600,3.0513,0.2688,-1.2366,-0.9007,-9.7528,0.4925,0.3300,0.1889,0.0404
7.4700,3.1943,0.1096,-1.8631,-0.8857,-9.7559,0.4558,0.4882,0.5836,0.2289
7.4800,2.8863,0.1865,-2.4710,-0.8521,-9.7610,0.4066,0.6424,0.8704,0.3809
7.4900,2.1909,0.4661,-2.8688,-0.8074,-9.7672,0.3449,0.7632,0.9448,0.4452
7.5000,1.1988,0.7417,-2.7814,-0.7621,-9.7730,0.2748,0.7908,0.7906,0.4092
7.5100,0.2511,0.8424,-2.1127,-0.7246,-9.7776,0.2064,0.6870,0.5146,0.3186
7.5200,-0.4580,0.6855,-1.3629,-0.6969,-9.7807,0.1503,0.5022,0.2344,0.2337
7.5300,-0.8872,0.4609,-1.0463,-0.6768,-9.7826,0.1105,0.3289,0.0123,0.1736
7.5400,-1.0225,0.3818,-1.0081,-0.6613,-9.7840,0.0843,0.2027,-0.0962,0.1477
7.5500,-0.6391,0.5814,-0.9695,-0.6461,-9.7851,0.0689,0.0970,-0.0761,0.1678
7.5600,-0.3365,0.9101,-0.7065,-0.6280,-9.7863,0.0653,-0.0334,0.0100,0.1965
7.5700,-0.6687,1.0999,-0.1736,-0.6096,-9.7874,0.0772,-0.2075,0.0816,0.1666
7.5800,-1.0992,1.1061,0.4762,-0.5981,-9.7878,0.1087,-0.4241,0.1194,0.0541
7.5900,-1.3858,0.8152,1.1737,-0.6005,-9.7868,0.1634,-0.6728,0.1606,-0.1095
7.6000,-1.6720,0.0942,1.6823,-0.6195,-9.7839,0.2426,-0.9101,0.2069,-0.2860
7.6100,-2.2000,-1.1612,1.7606,-0.6558,-9.7785,0.3420,-1.0692,0.2106,-0.4648
7.6200,-2.8008,-2.7987,1.5333,-0.7092,-9.7703,0.4516,-1.1227,0.1531,-0.6327
7.6300,-2.8650,-4.3334,1.2580,-0.7771,-9.7595,0.5614,-1.0863,0.0912,-0.7551
7.6400,-2.6306,-5.0089,1.0772,-0.8544,-9.7466,0.6640,-0.9867,0.1027,-0.8286
7.6500,-2.2150,-5.1752,0.9171,-0.9374,-9.7322,0.7568,-0.8856,0.1822,-0.8855
7.6600,-1.5765,-4.9196,0.7993,-1.0247,-9.7163,0.8429,-0.8425,0.2354,-0.9336
7.6700,-1.2502,-3.9861,0.7294,-1.1148,-9.6985,0.9284,-0.8637,0.2232,-0.9484
7.6800,-1.0310,-3.2165,0.6009,-1.2035,-9.6789,1.0179,-0.9284,0.1972,-0.9040
7.6900,-0.5139,-2.9719,0.5104,-1.2843,-9.6579,1.1147,-1.0179,0.1771,-0.7889
7.7000,0.2927,-3.2881,0.4006,-1.3502,-9.6361,1.2200,-1.1039,0.1758,-0.5989
7.7100,1.3034,-4.2738,0.1592,-1.3940,-9.6149,1.3328,-1.1663,0.2595,-0.3574
7.7200,2.3969,-5.7649,-0.0929,-1.4122,-9.5951,1.4516,-1.1863,0.4732,-0.1244
7.7300,3.2916,-7.1155,-0.3270,-1.4048,-9.5770,1.5730,-1.1503,0.7444,0.0791
7.7400,3.7303,-7.7861,-0.6227,-1.3748,-9.5612,1.6914,-1.0647,0.9051,0.2574
7.7500,3.5669,-7.3849,-1.0090,-1.3270,-9.5481,1.7998,-0.9273,0.8840,0.4049
7.7600,3.0854,-5.8856,-1.5249,-1.2663,-9.5387,1.8914,-0.7536,0.7557,0.5446
7.7700,2.6645,-4.0514,-1.9388,-1.1935,-9.5336,1.9633,-0.5683,0.6219,0.7011
7.7800,2.3570,-2.5544,-2.2179,-1.1063,-9.5332,2.0156,-0.3829,0.5450,0.8768
7.7900,2.1086,-1.4426,-2.5627,-1.0025,-9.5374,2.0493,-0.2057,0.5212,1.0626
7.8000,1.8584,-0.4896,-2.9616,-0.8808,-9.5459,2.0657,-0.0316,0.5236,1.2472
7.8100,1.6686,0.3326,-3.3807,-0.7415,-9.5579,2.0643,0.1541,0.5359,1.4209
7.8200,1.6681,0.6472,-3.9911,-0.5859,-9.5731,2.0436,0.3499,0.5507,1.5755
7.8300,1.6908,0.2434,-4.4167,-0.4164,-9.5904,2.0031,0.5479,0.5888,1.6979
7.8400,1.6402,-0.5319,-4.3358,-0.2364,-9.6089,1.9428,0.7384,0.6797,1.7630
7.8500,1.5462,-1.3490,-3.9228,-0.0518,-9.6271,1.8647,0.8911,0.7985,1.7527
7.8600,1.3878,-2.0298,-3.3164,0.1302,-9.6438,1.7722,1.0055,0.9015,1.6741
7.8700,1.2209,-2.2987,-2.9579,0.3040,-9.6585,1.6674,1.1104,0.9592,1.5777
7.8800,1.2356,-2.4007,-2.1559,0.4704,-9.6713,1.5508,1.2095,0.9649,1.5346
7.8900,1.4125,-2.2485,-0.8029,0.6359,-9.6812,1.4244,1.2679,0.9607,1.5812
7.9000,1.5851,-1.7149,0.2923,0.8093,-9.6866,1.2932,1.2732,1.0279,1.7079
7.9100,1.5402,-1.2742,1.1431,0.9969,-9.6859,1.1603,1.2451,1.1608,1.8682
7.9200,0.9507,-0.9206,2.0226,1.1987,-9.6778,1.0293,1.1540,1.2838,1.9901
7.9300,-0.0477,-0.6345,2.8532,1.4075,-9.6619,0.9067,1.0049,1.3538,2.0296
7.9400,-1.0838,-0.4702,3.3114,1.6140,-9.6394,0.7960,0.8499,1.3762,1.9721
7.9500,-1.9904,-0.3554,3.5100,1.8082,-9.6127,0.6964,0.7152,1.4038,1.8096
7.9600,-2.8403,-0.2481,3.4438,1.9808,-9.5850,0.6051,0.6338,1.3605,1.5695
7.9700,-3.4738,-0.2460,2.9600,2.1261,-9.5591,0.5179,0.6442,1.1858,1.3003
7.9800,-3.5122,-0.1791,2.0281,2.2443,-9.5365,0.4283,0.7527,0.9347,1.0604
7.9900,-3.3767,-0.1192,0.5374,2.3371,-9.5182,0.3267,0.9737,0.7694,0.8100
8.0000,-3.3742,-0.5727,-1.7037,2.4020,-9.5056,0.1974,1.3638,0.8327,0.5045
8.0100,-3.3536,-0.9677,-2.9146,2.4376,-9.4983,0.0165,1.9426,1.1852,0.2335
8.0200,-2.5492,-1.6854,-4.1495,2.4509,-9.4915,-0.2330,2.5067,1.7390,0.1115
8.0300,-0.7365,-2.9827,-4.9892,2.4563,-9.4777,-0.5345,2.7728,2.0542,0.1881
8.0400,0.7183,-3.6195,-2.9019,2.4701,-9.4513,-0.8472,2.7465,1.8165,0.3952
8.0500,0.8949,-3.3749,-0.3259,2.5051,-9.4115,-1.1397,2.6333,1.1530,0.6482
8.0600,0.2047,-2.6602,0.7264,2.5697,-9.3583,-1.4037,2.5502,0.3739,0.9196
8.0700,-0.2615,-2.2808,0.9008,2.6670,-9.2922,-1.6417,2.5036,-0.2591,1.1547
8.0800,-0.7698,-2.2223,1.1425,2.7894,-9.2146,-1.8609,2.4992,-0.6640,1.2688
8.0900,-2.0325,-2.2105,1.2312,2.9216,-9.1287,-2.0702,2.5162,-0.8378,1.2467
8.1000,-3.2412,-2.1782,1.3970,3.0485,-9.0375,-2.2769,2.5706,-0.7578,1.1186
8.1100,-3.6682,-2.0746,1.8295,3.1604,-8.9421,-2.4908,2.6594,-0.6381,0.9889
8.1200,-3.5543,-1.9145,2.1442,3.2657,-8.8400,-2.7098,2.7036,-0.7172,1.0048
8.1300,-3.1281,-1.4643,2.4125,3.3850,-8.7275,-2.9198,2.6666,-0.9329,1.1780
8.1400,-2.5707,-1.1687,2.6981,3.5296,-8.6032,-3.1111,2.5548,-1.1777,1.4086
8.1500,-2.3339,-1.0615,2.7399,3.7028,-8.4687,-3.2744,2.3641,-1.4655,1.6341
8.1600,-2.6101,-0.6923,2.6537,3.9024,-8.3273,-3.4027,2.1347,-1.7449,1.7984
8.1700,-3.0454,0.0203,2.6474,4.1184,-8.1827,-3.4976,1.9509,-1.9028,1.8464
8.1800,-3.4568,0.7660,2.6161,4.3320,-8.0385,-3.5734,1.8510,-1.8848,1.7592
8.1900,-3.7576,2.4565,2.9576,4.5396,-7.8965,-3.6319,1.7140,-2.0110,1.7151
8.2000,-3.9542,3.7659,3.3500,4.7540,-7.7572,-3.6577,1.4559,-2.2225,1.7470
8.2100,-3.6891,4.3670,3.6839,4.9683,-7.6248,-3.6515,1.1788,-2.1619,1.6738
8.2200,-3.2813,5.3549,4.2515,5.1656,-7.5048,-3.6267,0.9467,-1.9737,1.5084
8.2300,-3.2500,5.8149,4.5310,5.3376,-7.4003,-3.5925,0.7648,-1.7445,1.2741
8.2400,-3.2573,6.2310,4.4982,5.4791,-7.3142,-3.5561,0.6321,-1.4942,0.9686
8.2500,-3.2223,6.3650,4.1496,5.5874,-7.2486,-3.5222,0.5393,-1.2712,0.6452
8.2600,-3.0203,5.8704,3.5805,5.6646,-7.2027,-3.4933,0.4735,-1.0580,0.3636
8.2700,-2.7651,5.1364,2.9845,5.7148,-7.1727,-3.4733,0.4550,-0.8087,0.1264
8.2800,-2.6006,4.5491,2.5897,5.7395,-7.1556,-3.4680,0.4692,-0.5298,-0.0873
8.2900,-2.5157,4.3820,2.3882,5.7398,-7.1498,-3.4793,0.4823,-0.2667,-0.2895
8.3000,-2.3781,4.3252,2.0744,5.7174,-7.1548,-3.5057,0.4862,-0.0309,-0.4725
8.3100,-2.0160,4.2154,1.6640,5.6748,-7.1695,-3.5447,0.4659,0.1892,-0.6279
8.3200,-1.5556,4.1450,1.2124,5.6141,-7.1931,-3.5931,0.4208,0.3806,-0.7641
8.3300,-1.1016,3.9801,0.6748,5.5374,-7.2251,-3.6473,0.3718,0.5231,-0.8911
8.3400,-0.6636,3.7409,0.2024,5.4471,-7.2647,-3.7040,0.3248,0.5984,-1.0097
8.3500,-0.2948,3.4375,-0.1603,5.3470,-7.3109,-3.7585,0.2704,0.5899,-1.1024
8.3600,-0.0305,3.0537,-0.5409,5.2427,-7.3620,-3.8054,0.2083,0.5021,-1.1565
8.3700,0.0250,2.6022,-1.0015,5.1394,-7.4164,-3.8407,0.1426,0.3398,-1.1808
8.3800,-0.0478,2.2416,-1.3492,5.0571,-7.4634,-3.8588,0.0810,0.1668,-1.1910
8.3900,-0.0750,2.1199,-1.4376,5.0256,-7.4827,-3.8626,0.0523,0.0957,-1.1942
8.4000,-0.0582,2.0286,-1.5287,4.9498,-7.5325,-3.8638,-0.0269,-0.0651,-1.2007
8.4100,0.0932,1.9341,-1.5500,4.8641,-7.5947,-3.8508,-0.1321,-0.2156,-1.2012
8.4200,0.3432,1.6527,-1.6099,4.7822,-7.6608,-3.8223,-0.2654,-0.3408,-1.2148
8.4300,0.2997,1.3994,-1.4991,4.7021,-7.7331,-3.7757,-0.4431,-0.4657,-1.2536
8.4400,0.0333,1.3528,-1.0795,4.6221,-7.8125,-3.7103,-0.6209,-0.5118,-1.2657
8.4500,0.5311,1.5961,-0.8970,4.5412,-7.8935,-3.6382,-0.6642,-0.3269,-1.1783
8.4600,2.5760,1.3153,-1.8318,4.4608,-7.9626,-3.5869,-0.5069,0.1853,-0.8909
8.4700,6.8272,-0.5621,-3.8071,4.3877,-8.0092,-3.5735,-0.2227,0.4694,-0.6447
8.4800,8.5236,-4.5111,-5.7740,4.3142,-8.0453,-3.5817,-0.1315,0.2879,-0.7784
8.4900,3.7151,-8.4175,-4.7695,4.2436,-8.0905,-3.5642,-0.5036,-0.0773,-0.7849
8.5000,0.3389,-8.2795,0.0242,4.2030,-8.1437,-3.4901,-0.9252,-0.5864,-0.5076
8.5100,1.4053,-5.4237,3.0279,4.1966,-8.1962,-3.3727,-1.0755,-1.0052,-0.3410
8.5200,2.2499,-3.2272,3.2627,4.2069,-8.2461,-3.2355,-1.1051,-1.1678,-0.3195
8.5300,1.3111,-2.5006,2.6908,4.2104,-8.2979,-3.0957,-1.1226,-1.0448,-0.4719
8.5400,0.0045,-2.2072,1.1699,4.1891,-8.3579,-2.9599,-1.1928,-0.8126,-0.7153
8.5500,-0.2200,-1.1011,0.3368,4.1391,-8.4291,-2.8250,-1.2743,-0.6583,-0.9720
8.5600,-0.7125,-0.2428,0.3565,4.0626,-8.5102,-2.6895,-1.3217,-0.5412,-1.2088
8.5700,-1.3879,0.5313,0.6684,3.9630,-8.5982,-2.5548,-1.3495,-0.4404,-1.4035
8.5800,-1.7122,1.6731,1.0926,3.8430,-8.6906,-2.4215,-1.3711,-0.3216,-1.5749
8.5900,-1.6237,2.1001,1.3987,3.7039,-8.7858,-2.2909,-1.3996,-0.1444,-1.7151
8.6000,-1.2864,2.0815,1.7022,3.5478,-8.8823,-2.1621,-1.4726,0.0637,-1.8177
8.6100,-1.2934,1.8413,1.9951,3.3777,-8.9790,-2.0307,-1.5828,0.2673,-1.8872
8.6200,-1.3931,1.0735,2.1013,3.1976,-9.0741,-1.8951,-1.6530,0.4402,-1.9221
8.6300,-1.3446,0.3513,2.1443,3.0120,-9.1646,-1.7586,-1.6633,0.5788,-1.9178
8.6400,-1.3340,-0.1172,2.2283,2.8249,-9.2487,-1.6241,-1.6330,0.6674,-1.8924
8.6500,-1.4696,-0.5111,2.3475,2.6385,-9.3254,-1.4936,-1.5671,0.7075,-1.8688
8.6600,-1.5904,-0.8793,2.5457,2.4534,-9.3950,-1.3681,-1.4902,0.7211,-1.8449
8.6700,-1.6266,-1.2860,2.7366,2.2704,-9.4578,-1.2462,-1.4408,0.7035,-1.8147
8.6800,-1.6113,-1.6599,2.7924,2.0902,-9.5144,-1.1247,-1.4354,0.6512,-1.7935
8.6900,-1.5350,-1.9213,2.7758,1.9121,-9.5660,-0.9964,-1.4997,0.5379,-1.7781
8.7000,-1.1666,-2.1148,2.1240,1.7391,-9.6123,-0.8586,-1.5175,0.3642,-1.7108
8.7100,-0.6121,-2.1236,1.1835,1.5777,-9.6514,-0.7216,-1.4003,0.2150,-1.5688
8.7200,-0.4166,-1.8736,0.7500,1.4336,-9.6826,-0.5954,-1.2339,0.0543,-1.3720
8.7300,-0.5258,-1.3630,0.6420,1.3106,-9.7064,-0.4831,-1.0636,-0.1319,-1.1581
8.7400,-0.7425,-0.6818,0.8207,1.2074,-9.7243,-0.3834,-0.9344,-0.2917,-0.9792
8.7500,-1.0452,-0.0069,1.1072,1.1198,-9.7380,-0.2904,-0.8839,-0.4686,-0.8405
8.7600,-1.2020,0.5130,1.2510,1.0445,-9.7487,-0.1981,-0.8790,-0.6442,-0.7255
8.7700,-1.1717,0.7853,1.1558,0.9797,-9.7569,-0.1049,-0.8728,-0.7723,-0.6163
8.7800,-1.1112,0.8527,1.0081,0.9254,-9.7627,-0.0124,-0.8483,-0.8527,-0.4978
8.7900,-0.9955,0.8724,0.8663,0.8830,-9.7664,0.0770,-0.8095,-0.8714,-0.3571
8.8000,-0.7641,0.7396,0.6999,0.8542,-9.7679,0.1627,-0.7870,-0.8419,-0.2082
8.8100,-0.5683,0.3231,0.6188,0.8388,-9.7675,0.2475,-0.8055,-0.8072,-0.0748
8.8200,-0.4311,-0.0854,0.4839,0.8339,-9.7653,0.3351,-0.8434,-0.7956,0.0126
8.8300,-0.3226,-0.4331,0.0126,0.8310,-9.7619,0.4275,-0.9022,-0.8220,-0.0238
8.8400,-0.4149,-1.1003,-0.6530,0.8188,-9.7582,0.5247,-0.9181,-0.9136,-0.1447
8.8500,-0.4865,-1.6923,-1.5168,0.7943,-9.7547,0.6189,-0.8290,-0.9844,-0.2289
8.8600,-0.1881,-1.8200,-2.4047,0.7636,-9.7515,0.7025,-0.7204,-1.0250,-0.2538
8.8700,0.0461,-1.5837,-2.7877,0.7318,-9.7483,0.7775,-0.6569,-1.0938,-0.2265
8.8800,0.0183,-1.0950,-2.8489,0.7039,-9.7444,0.8486,-0.6335,-1.1426,-0.1518
8.8900,0.0645,-0.5489,-2.8141,0.6818,-9.7398,0.9172,-0.5976,-1.1628,-0.0968
8.9000,0.0928,-0.0566,-2.6087,0.6608,-9.7351,0.9798,-0.5130,-1.1525,-0.1132
8.9100,0.0250,0.3785,-2.2975,0.6356,-9.7315,1.0314,-0.3857,-1.1069,-0.1699
8.9200,0.0133,0.7761,-2.0053,0.6041,-9.7295,1.0685,-0.2406,-1.0222,-0.2440
8.9300,0.0392,1.0937,-1.7278,0.5658,-9.7293,1.0911,-0.1113,-0.8912,-0.3221
8.9400,0.0864,1.3155,-1.3586,0.5226,-9.7304,1.1026,-0.0400,-0.7437,-0.3696
8.9500,0.1205,1.4410,-0.9871,0.4789,-9.7320,1.1083,-0.0106,-0.6174,-0.3627
8.9600,-0.0903,1.1340,-0.6621,0.4389,-9.7337,1.1104,0.0219,-0.5321,-0.3209
8.9700,-0.4306,0.5828,-0.3468,0.4044,-9.7353,1.1089,0.0498,-0.4950,-0.2683
8.9800,-0.6870,0.2956,-0.0816,0.3750,-9.7370,1.1051,0.0626,-0.4917,-0.2225
8.9900,-0.9499,0.2018,0.1284,0.3489,-9.7383,1.1016,0.0411,-0.5282,-0.1978
9.0000,-1.1523,0.2998,0.2130,0.3237,-9.7392,1.1019,-0.0114,-0.5787,-0.1940
9.0100,-1.2178,0.4838,0.1765,0.2973,-9.7393,1.1077,-0.0678,-0.6180,-0.2114
9.0200,-1.1371,0.6132,0.0878,0.2683,-9.7390,1.1183,-0.1064,-0.6233,-0.2372
9.0300,-0.8973,0.6608,-0.0939,0.2374,-9.7384,1.1303,-0.0994,-0.5626,-0.2526
9.0400,-0.6431,0.5799,-0.2963,0.2061,-9.7381,1.1385,-0.0398,-0.4322,-0.2699
9.0500,-0.4475,0.3934,-0.3633,0.1740,-9.7387,1.1389,0.0460,-0.2459,-0.3067
9.0600,-0.3118,0.2047,-0.3493,0.1399,-9.7403,1.1301,0.1370,-0.0289,-0.3611
9.0700,-0.2045,-0.1419,-0.3003,0.1023,-9.7428,1.1121,0.2293,0.1975,-0.4270
9.0800,-0.1766,-0.3838,-0.2455,0.0601,-9.7461,1.0860,0.2955,0.3798,-0.4987
9.0900,-0.0938,-0.3592,-0.1687,0.0141,-9.7497,1.0549,0.3315,0.5253,-0.5328
9.1000,0.1628,-0.3471,-0.0097,-0.0310,-9.7532,1.0212,0.3588,0.6878,-0.5066
9.1100,0.2336,-0.3495,0.1857,-0.0707,-9.7566,0.9862,0.3556,0.8262,-0.4568
9.1200,0.0894,-0.4519,0.3495,-0.1048,-9.7595,0.9545,0.2978,0.8824,-0.4113
9.1300,-0.0192,-0.5945,0.3545,-0.1347,-9.7614,0.9312,0.1930,0.8385,-0.3643
9.1400,-0.0583,-0.6798,0.1871,-0.1601,-9.7621,0.9193,0.0718,0.7004,-0.2986
9.1500,-0.0222,-0.7113,-0.0719,-0.1801,-9.7619,0.9187,-0.0388,0.4930,-0.2206
9.1600,0.0223,-0.6993,-0.2303,-0.1944,-9.7608,0.9272,-0.1170,0.2382,-0.1371
9.1700,0.0755,-0.6034,-0.3857,-0.2028,-9.7593,0.9413,-0.1651,-0.0407,-0.0532
9.1800,0.1779,-0.3435,-0.5657,-0.2061,-9.7575,0.9587,-0.1965,-0.3077,0.0183
9.1900,0.2878,-0.0861,-0.5912,-0.2057,-9.7556,0.9780,-0.2141,-0.5415,0.0747
9.2000,0.3624,0.0820,-0.5565,-0.2026,-9.7537,0.9977,-0.2133,-0.7394,0.1207
9.2100,0.3490,0.1320,-0.5352,-0.1973,-9.7519,1.0160,-0.1931,-0.8973,0.1567
9.2200,0.2457,0.0262,-0.5378,-0.1903,-9.7502,1.0331,-0.1909,-1.0286,0.1893
9.2300,0.0756,-0.0579,-0.4727,-0.1802,-9.7487,1.0495,-0.1858,-1.1443,0.2464
9.2400,-0.0664,0.0075,-0.4218,-0.1653,-9.7473,1.0645,-0.1627,-1.2198,0.3178
9.2500,-0.1363,-0.0023,-0.3813,-0.1445,-9.7461,1.0783,-0.1569,-1.2552,0.3795
9.2600,-0.2651,-0.0391,-0.2515,-0.1192,-9.7449,1.0923,-0.1700,-1.2510,0.4107
9.2700,-0.4777,-0.0483,-0.0748,-0.0927,-9.7433,1.1092,-0.2070,-1.2360,0.4111
9.2800,-0.7605,0.0373,0.0402,-0.0668,-9.7410,1.1306,-0.2468,-1.2460,0.4011
9.2900,-1.1254,0.1202,0.0036,-0.0433,-9.7382,1.1557,-0.2772,-1.2877,0.3753
9.3000,-1.5239,0.0609,-0.1278,-0.0229,-9.7350,1.1830,-0.2905,-1.3705,0.3599
9.3100,-1.7646,0.2231,-0.3023,-0.0055,-9.7315,1.2114,-0.2941,-1.4000,0.3336
9.3200,-1.7532,0.3788,-0.3369,0.0078,-9.7279,1.2402,-0.2940,-1.3167,0.2807
9.3300,-1.5686,0.5554,-0.3227,0.0173,-9.7243,1.2680,-0.2670,-1.1210,0.2327
9.3400,-1.0589,0.9077,-0.3351,0.0252,-9.7211,1.2920,-0.2218,-0.7909,0.1836
9.3500,-0.6045,0.8061,-0.1719,0.0328,-9.7184,1.3122,-0.1933,-0.3731,0.1290
9.3600,-0.4581,0.3080,0.0768,0.0409,-9.7158,1.3308,-0.1873,0.0561,0.0805
9.3700,-0.2840,-0.0027,0.3265,0.0502,-9.7133,1.3486,-0.1760,0.4595,0.0389
9.3800,-0.0624,-0.0362,0.5003,0.0607,-9.7112,1.3635,-0.1313,0.8148,-0.0048
9.3900,0.0995,0.1036,0.6088,0.0713,-9.7100,1.3715,-0.0412,1.0899,-0.0472
9.4000,0.1734,0.3272,0.7483,0.0811,-9.7103,1.3690,0.0762,1.2866,-0.0880
9.4100,0.2175,0.4255,0.9199,0.0891,-9.7123,1.3541,0.2056,1.4167,-0.1300
9.4200,0.1860,0.3670,1.1868,0.0936,-9.7160,1.3272,0.3121,1.4798,-0.1783
9.4300,0.0919,0.5047,1.5809,0.0931,-9.7205,1.2936,0.3325,1.4640,-0.2283
9.4400,0.0528,0.6566,1.9394,0.0873,-9.7246,1.2629,0.2590,1.3640,-0.2617
9.4500,0.1260,0.4139,2.0929,0.0774,-9.7274,1.2419,0.1471,1.2040,-0.2681
9.4600,0.3252,0.0001,1.9720,0.0660,-9.7288,1.2318,0.0459,1.0212,-0.2449
9.4700,0.5981,-0.1659,1.5568,0.0559,-9.7290,1.2303,-0.0261,0.8453,-0.1913
9.4800,0.8150,-0.0712,0.9678,0.0505,-9.7284,1.2352,-0.0808,0.6791,-0.1081
9.4900,0.8840,0.0419,0.4286,0.0524,-9.7271,1.2457,-0.1431,0.5040,-0.0023
9.5000,0.7940,0.0249,-0.0024,0.0630,-9.7248,1.2628,-0.2089,0.3122,0.1141
9.5100,0.5950,-0.1087,-0.3625,0.0822,-9.7217,1.2851,-0.2490,0.1171,0.2186
9.5200,0.3522,-0.2578,-0.6180,0.1074,-9.7182,1.3099,-0.2559,-0.0478,0.2815
9.5300,0.1033,-0.3677,-0.7924,0.1340,-9.7145,1.3341,-0.2354,-0.1422,0.2834
9.5400,-0.0260,-0.4076,-0.8787,0.1573,-9.7113,1.3550,-0.1811,-0.1558,0.2294
9.5500,-0.1657,-0.4388,-0.9064,0.1741,-9.7091,1.3689,-0.0987,-0.1147,0.1551
9.5600,-0.3512,-0.5667,-0.8529,0.1850,-9.7079,1.3760,-0.0521,-0.0653,0.0954
9.5700,-0.4346,-0.5656,-0.6664,0.1917,-9.7068,1.3823,-0.0833,-0.0454,0.0611
9.5800,-0.4696,-0.2506,-0.5383,0.1963,-9.7052,1.3931,-0.1323,-0.0639,0.0490
9.5900,-0.4637,-0.0358,-0.5991,0.1995,-9.7033,1.4061,-0.1223,-0.0911,0.0428
9.6000,-0.3569,-0.0458,-0.6972,0.2017,-9.7019,1.4154,-0.0636,-0.0748,0.0257
9.6100,-0.1107,0.0391,-0.5802,0.2025,-9.7013,1.4191,-0.0167,-0.0004,0.0023
9.6200,0.1859,0.1689,-0.2485,0.2027,-9.7012,1.4196,0.0014,0.1044,-0.0105
9.6300,0.4360,0.1572,0.0797,0.2042,-9.7013,1.4186,0.0130,0.2089,0.0003
9.6400,0.6057,0.0351,0.2575,0.2095,-9.7017,1.4157,0.0370,0.3025,0.0343
9.6500,0.7098,-0.1224,0.3297,0.2197,-9.7022,1.4101,0.0597,0.3848,0.0740
9.6600,0.7195,-0.2807,0.4379,0.2342,-9.7029,1.4032,0.0587,0.4434,0.1006
9.6700,0.5593,-0.3387,0.6109,0.2510,-9.7033,1.3976,0.0309,0.4529,0.1123
9.6800,0.2595,-0.1904,0.7584,0.2681,-9.7033,1.3944,0.0033,0.4160,0.1126
9.6900,-0.0553,0.0149,0.8234,0.2841,-9.7027,1.3955,-0.0535,0.3310,0.1061
9.7000,-0.3328,0.3096,0.7795,0.2974,-9.7010,1.4047,-0.1487,0.2139,0.0850
9.7100,-0.4992,0.5619,0.5202,0.3062,-9.6982,1.4221,-0.2132,0.1052,0.0475
9.7200,-0.2580,0.4017,-0.0606,0.3104,-9.6950,1.4425,-0.2045,0.0393,0.0211
9.7300,0.2366,0.0862,-0.5427,0.3126,-9.6920,1.4619,-0.1911,0.0321,0.0187
9.7400,0.6253,-0.2847,-0.7602,0.3161,-9.6893,1.4792,-0.1622,0.0735,0.0429
9.7500,0.9115,-0.4937,-0.7013,0.3242,-9.6871,1.4916,-0.1010,0.1509,0.0913
9.7600,0.9555,-0.4102,-0.3380,0.3388,-9.6852,1.5006,-0.0977,0.1961,0.1578
9.7700,0.8080,-0.3332,-0.1073,0.3606,-9.6830,1.5099,-0.1065,0.1590,0.2349
9.7800,0.6563,-0.0441,0.0914,0.3885,-9.6804,1.5193,-0.0952,0.0736,0.2981
9.7900,0.3839,0.1874,0.2613,0.4196,-9.6779,1.5274,-0.0708,-0.0382,0.3285
9.8000,0.0017,0.2520,0.3375,0.4497,-9.6756,1.5332,-0.0404,-0.1815,0.3206
9.8100,-0.2280,0.3456,0.6088,0.4750,-9.6735,1.5387,-0.0591,-0.3279,0.2791
9.8200,-0.2816,0.2120,0.9565,0.4935,-9.6705,1.5516,-0.1744,-0.4897,0.2340
9.8300,-0.2632,-0.2530,1.0455,0.5057,-9.6654,1.5796,-0.3464,-0.6639,0.2064
9.8400,-0.0877,-0.6854,0.9090,0.5133,-9.6576,1.6240,-0.4841,-0.7754,0.1915
9.8500,0.0514,-0.6167,0.6015,0.5189,-9.6478,1.6793,-0.5555,-0.8005,0.1954
9.8600,-0.0059,0.0073,0.0822,0.5250,-9.6373,1.7365,-0.5324,-0.7387,0.2048
9.8700,-0.1509,0.5787,-0.4541,0.5327,-9.6280,1.7856,-0.3971,-0.6051,0.2028
9.8800,-0.3051,0.4137,-0.5963,0.5426,-9.6213,1.8183,-0.2220,-0.4368,0.1977
9.8900,-0.3803,-0.3061,-0.2434,0.5548,-9.6173,1.8356,-0.1119,-0.2385,0.1822
9.9000,-0.4881,-0.8257,0.1115,0.5683,-9.6145,1.8462,-0.1013,-0.0367,0.1490
9.9100,-0.6222,-0.7735,0.1638,0.5815,-9.6115,1.8578,-0.1473,0.1331,0.1057
9.9200,-0.6687,-0.6375,0.1094,0.5934,-9.6079,1.8724,-0.1760,0.3050,0.0539
9.9300,-0.5853,-0.2608,-0.0051,0.6033,-9.6046,1.8865,-0.1627,0.5035,-0.0091
9.9400,-0.4524,0.6652,-0.1457,0.6104,-9.6019,1.8975,-0.1395,0.6823,-0.0785
9.9500,-0.4444,1.6069,-0.1745,0.6136,-9.6002,1.9052,-0.1166,0.7810,-0.1467
9.9600,-0.5419,2.0955,-0.1905,0.6113,-9.5992,1.9111,-0.1105,0.7810,-0.2147
9.9700,-0.6633,2.0340,-0.1761,0.6015,-9.5984,1.9183,-0.1359,0.6964,-0.2861
9.9800,-0.7405,1.4659,-0.0843,0.5827,-9.5973,1.9294,-0.1725,0.5572,-0.3520
9.9900,-0.6541,0.5789,-0.0025,0.5557,-9.5959,1.9443,-0.1924,0.4142,-0.4012
10.0000,-0.3813,-0.3033,0.0130,0.5229,-9.5943,1.9611,-0.1944,0.3025,-0.4200
10.0100,0.0034,-0.9874,0.0419,0.4889,-9.5927,1.9779,-0.1799,0.2232,-0.3850
10.0200,0.4763,-1.3302,0.0453,0.4596,-9.5911,1.9927,-0.1455,0.1878,-0.3022
10.0300,0.9276,-1.2427,-0.1039,0.4391,-9.5895,2.0046,-0.1256,0.2149,-0.2058
10.0400,1.1993,-0.7425,-0.2726,0.4283,-9.5876,2.0164,-0.1445,0.2687,-0.1214
10.0500,1.1707,-0.2465,-0.3658,0.4255,-9.5846,2.0308,-0.1816,0.2674,-0.0519
10.0600,0.8578,-0.1079,-0.5077,0.4277,-9.5805,2.0499,-0.2408,0.1882,-0.0056
10.0700,0.4699,-0.0474,-0.5800,0.4309,-9.5745,2.0768,-0.3321,0.0584,0.0164
10.0800,0.2023,-0.0307,-0.5112,0.4327,-9.5664,2.1133,-0.4204,-0.1078,0.0335
10.0900,0.0853,-0.2112,-0.5243,0.4324,-9.5566,2.1573,-0.4744,-0.2764,0.0465
10.1000,0.0344,-0.4102,-0.6468,0.4299,-9.5459,2.2049,-0.4781,-0.4181,0.0627
10.1100,0.0389,-0.4092,-0.8628,0.4268,-9.5354,2.2504,-0.4191,-0.5240,0.0977
10.1200,0.0764,-0.1906,-0.9873,0.4257,-9.5265,2.2879,-0.3091,-0.5762,0.1453
10.1300,0.0868,0.1781,-0.9157,0.4285,-9.5201,2.3140,-0.1865,-0.5564,0.1876
10.1400,0.0328,0.4410,-0.8384,0.4359,-9.5163,2.3280,-0.0594,-0.4804,0.2189
10.1500,-0.0701,0.5443,-0.6750,0.4477,-9.5154,2.3298,0.0533,-0.3616,0.2316
10.1600,-0.1812,0.6036,-0.4153,0.4597,-9.5161,2.3244,0.1041,-0.2344,0.2133
10.1700,-0.2412,0.5981,-0.2936,0.4647,-9.5166,2.3212,0.1102,-0.1784,0.1958
10.1800,-0.3490,0.5535,-0.0560,0.4759,-9.5180,2.3134,0.0931,-0.0364,0.1373
10.1900,-0.3865,0.5468,0.1298,0.4864,-9.5189,2.3073,0.0239,0.1293,0.0573
10.2000,-0.3659,0.4708,0.3437,0.4929,-9.5179,2.3102,-0.1153,0.2676,-0.0200
10.2100,-0.3534,0.4679,0.5860,0.4944,-9.5131,2.3296,-0.3315,0.3641,-0.1035
10.2200,-0.3006,0.4823,0.4507,0.4903,-9.5034,2.3695,-0.5350,0.3813,-0.1624
10.2300,-0.1901,0.3265,0.0457,0.4825,-9.4897,2.4252,-0.6565,0.3186,-0.1725
10.2400,-0.1214,0.1078,-0.3044,0.4735,-9.4738,2.4883,-0.6796,0.2116,-0.1498
10.2500,-0.1131,-0.4825,-0.6840,0.4656,-9.4585,2.5473,-0.5503,0.0372,-0.0759
10.2600,-0.0682,-1.2444,-0.6740,0.4619,-9.4476,2.5883,-0.3006,-0.1565,0.0314
10.2700,0.0421,-1.5605,-0.0139,0.4626,-9.4426,2.6063,-0.0671,-0.2490,0.0903
10.2800,0.1934,-1.3799,0.7489,0.4652,-9.4427,2.6057,0.0946,-0.2073,0.0882
10.2900,0.3662,-0.7386,1.2331,0.4687,-9.4460,2.5931,0.1716,-0.0558,0.0595
10.3000,0.3275,0.2291,1.3230,0.4735,-9.4500,2.5775,0.1433,0.1157,0.0252
10.3100,0.1997,0.7275,1.2461,0.4790,-9.4527,2.5666,0.0687,0.1832,0.0078
10.3200,-0.0127,0.9462,0.9476,0.4840,-9.4536,2.5622,0.0122,0.1355,0.0091
10.3300,-0.3233,0.9961,0.4288,0.4875,-9.4534,2.5625,-0.0262,0.0294,0.0214
10.3400,-0.4246,0.5688,0.1464,0.4894,-9.4521,2.5668,-0.0631,-0.0687,0.0281
10.3500,-0.3598,0.2293,0.0620,0.4892,-9.4499,2.5748,-0.0931,-0.1197,0.0184
10.3600,-0.2054,0.0772,-0.0135,0.4866,-9.4473,2.5849,-0.1016,-0.1334,-0.0034
10.3700,-0.0729,-0.0983,-0.1572,0.4818,-9.4449,2.5945,-0.0850,-0.1294,-0.0240
10.3800,0.0287,-0.3160,-0.2908,0.4756,-9.4433,2.6015,-0.0526,-0.1082,-0.0404
10.3900,0.1026,-0.4295,-0.3407,0.4686,-9.4425,2.6057,-0.0308,-0.0900,-0.0523
10.4000,0.0562,-0.4168,-0.2885,0.4615,-9.4419,2.6090,-0.0304,-0.1071,-0.0409
10.4100,-0.0329,-0.3982,-0.2211,0.4559,-9.4411,2.6130,-0.0443,-0.1489,-0.0009
10.4200,-0.0431,-0.3583,-0.2168,0.4544,-9.4396,2.6189,-0.0602,-0.1785,0.0635
10.4300,0.0512,-0.2471,-0.2055,0.4591,-9.4376,2.6252,-0.0507,-0.1541,0.1283
10.4400,0.2096,-0.0128,-0.2229,0.4705,-9.4359,2.6293,-0.0206,-0.1189,0.1874
10.4500,0.1920,0.2445,-0.2634,0.4884,-9.4347,2.6302,0.0156,-0.1014,0.2519
10.4600,0.0756,0.3178,-0.1903,0.5127,-9.4344,2.6268,0.0664,-0.0615,0.3053
10.4700,0.0678,0.2244,-0.0867,0.5425,-9.4350,2.6185,0.1127,-0.0453,0.3500
10.4800,-0.0544,0.2071,-0.0822,0.5759,-9.4362,2.6070,0.1304,-0.0254,0.3698
10.4900,-0.1225,0.1039,0.1673,0.6102,-9.4374,2.5948,0.1227,0.0556,0.3430
10.5000,-0.1407,0.1141,0.2885,0.6426,-9.4384,2.5833,0.1056,0.1287,0.2862
10.5100,-0.3614,0.3830,0.0186,0.6699,-9.4392,2.5736,0.0765,0.1254,0.2142
10.5200,-0.5405,0.4503,-0.1582,0.6889,-9.4394,2.5676,0.0371,0.0413,0.1384
10.5300,-0.5976,0.2827,-0.3042,0.6980,-9.4393,2.5657,0.0094,-0.0946,0.0674
10.5400,-0.5762,0.0446,-0.4410,0.6968,-9.4392,2.5665,0.0034,-0.2485,0.0028
10.5500,-0.4190,-0.2067,-0.4726,0.6862,-9.4396,2.5676,0.0221,-0.3695,-0.0545
10.5600,-0.1760,-0.4048,-0.3599,0.6685,-9.4410,2.5672,0.0421,-0.4209,-0.0988
10.5700,-0.0410,-0.4607,-0.2631,0.6467,-9.4429,2.5659,0.0413,-0.4027,-0.1311
10.5800,0.0908,-0.2815,-0.1866,0.6238,-9.4448,2.5645,0.0401,-0.3297,-0.1490
10.5900,0.2087,-0.0019,-0.1090,0.6024,-9.4469,2.5620,0.0491,-0.2257,-0.1471
10.6000,0.1884,0.1438,-0.0755,0.5848,-9.4490,2.5581,0.0532,-0.1183,-0.1275
10.6100,0.1431,0.1368,-0.0138,0.5724,-9.4509,2.5540,0.0422,-0.0277,-0.0939
10.6200,0.1170,-0.0148,0.0003,0.5655,-9.4521,2.5510,0.0218,0.0346,-0.0516
10.6300,0.1440,-0.1287,-0.1192,0.5641,-9.4527,2.5492,0.0104,0.0681,-0.0084
10.6400,0.2173,-0.1698,-0.2540,0.5668,-9.4530,2.5477,0.0157,0.0849,0.0219
10.6500,0.2871,-0.1888,-0.2374,0.5717,-9.4534,2.5448,0.0368,0.1075,0.0278
10.6600,0.2568,-0.1415,-0.1278,0.5766,-9.4546,2.5394,0.0588,0.1292,0.0096
10.6700,0.1416,-0.0778,-0.0176,0.5795,-9.4562,2.5329,0.0603,0.1158,-0.0166
10.6800,0.0409,-0.0138,0.0115,0.5791,-9.4577,2.5272,0.0456,0.0561,-0.0364
10.6900,0.0055,0.0261,-0.0065,0.5753,-9.4589,2.5235,0.0301,-0.0329,-0.0481
10.7000,-0.0099,0.0871,-0.0526,0.5683,-9.4598,2.5217,0.0203,-0.1241,-0.0542
10.7100,-0.0250,0.1587,-0.1279,0.5589,-9.4606,2.5209,0.0163,-0.1935,-0.0578
10.7200,-0.0049,0.1060,-0.1240,0.5479,-9.4614,2.5202,0.0257,-0.2209,-0.0601
10.7300,0.0680,-0.0143,-0.0548,0.5368,-9.4628,2.5177,0.0528,-0.1887,-0.0630
10.7400,0.1425,-0.0656,0.0543,0.5268,-9.4647,2.5124,0.0731,-0.1128,-0.0670
10.7500,0.1307,-0.0671,0.2354,0.5183,-9.4669,2.5061,0.0665,-0.0401,-0.0695
10.7600,0.0282,-0.0982,0.3829,0.5114,-9.4686,2.5009,0.0450,0.0041,-0.0675
10.7700,-0.0746,-0.1382,0.3786,0.5058,-9.4698,2.4973,0.0293,0.0309,-0.0581
10.7800,-0.0805,-0.1531,0.2665,0.5020,-9.4708,2.4944,0.0284,0.0609,-0.0442
10.7900,-0.0230,-0.0916,0.1083,0.5005,-9.4718,2.4910,0.0349,0.0987,-0.0303
10.8000,0.0157,0.0583,-0.0536,0.5009,-9.4729,2.4868,0.0411,0.1393,-0.0257
10.8100,-0.0000,0.1868,-0.1501,0.5021,-9.4741,2.4819,0.0413,0.1814,-0.0355
10.8200,-0.0578,0.1722,-0.1439,0.5029,-9.4753,2.4773,0.0324,0.2151,-0.0536
10.8300,-0.1008,0.0249,-0.0559,0.5024,-9.4762,2.4737,0.0197,0.2319,-0.0706
10.8400,-0.1021,-0.1727,0.0666,0.5010,-9.4770,2.4709,0.0157,0.2335,-0.0793
10.8500,-0.0616,-0.2497,0.1559,0.4991,-9.4779,2.4680,0.0209,0.2158,-0.0746
10.8600,-0.0182,-0.1335,0.1943,0.4975,-9.4787,2.4650,0.0196,0.1728,-0.0580
10.8700,-0.0650,0.0943,0.1978,0.4964,-9.4793,2.4632,0.0025,0.1036,-0.0374
10.8800,-0.1196,0.2329,0.1876,0.4952,-9.4792,2.4638,-0.0241,0.0224,-0.0211
10.8900,-0.1684,0.1583,0.1573,0.4932,-9.4784,2.4672,-0.0451,-0.0437,-0.0164
10.9000,-0.1365,0.0369,0.1164,0.4907,-9.4771,2.4726,-0.0619,-0.0465,-0.0063
10.9100,0.0813,-0.0506,0.0653,0.4921,-9.4753,2.4793,-0.0774,0.0646,0.0421
10.9200,0.2381,-0.0688,-0.0377,0.5042,-9.4728,2.4863,-0.0894,0.2788,0.1262
10.9300,0.1537,-0.0102,-0.1789,0.5297,-9.4696,2.4931,-0.0957,0.5082,0.1958
10.9400,0.0309,0.0246,-0.2589,0.5638,-9.4662,2.4985,-0.0838,0.6541,0.1992
10.9500,-0.3142,-0.0176,-0.3611,0.5964,-9.4635,2.5015,-0.0596,0.6638,0.1246
10.9600,-0.7273,-0.1029,-0.4804,0.6172,-9.4620,2.5022,-0.0291,0.5146,-0.0126
10.9700,-0.7346,-0.1956,-0.4634,0.6182,-9.4622,2.5010,0.0039,0.2406,-0.1651
10.9800,-0.3250,-0.2969,-0.2613,0.5995,-9.4639,2.4989,0.0230,-0.0373,-0.2683
10.9900,0.3554,-0.3322,0.0610,0.5692,-9.4662,2.4975,0.0189,-0.2031,-0.2871
11.0000,0.8530,-0.1955,0.2841,0.5385,-9.4678,2.4982,-0.0080,-0.2481,-0.2278
11.0100,0.9692,0.0134,0.3139,0.5156,-9.4681,2.5017,-0.0384,-0.2204,-0.1257
11.0200,0.7589,0.1410,0.2096,0.5039,-9.4673,2.5074,-0.0588,-0.1611,-0.0195
11.0300,0.3393,0.1443,0.0713,0.5029,-9.4655,2.5143,-0.0723,-0.1050,0.0634
11.0400,-0.1144,0.0856,-0.0675,0.5091,-9.4632,2.5219,-0.0774,-0.0606,0.1051
11.0500,-0.4516,0.0382,-0.2129,0.5183,-9.4607,2.5291,-0.0683,-0.0164,0.1036
11.0600,-0.6020,0.0199,-0.3369,0.5270,-9.4588,2.5344,-0.0438,0.0419,0.0702
11.0700,-0.6304,0.0237,-0.3844,0.5334,-9.4577,2.5372,-0.0235,0.1003,0.0284
11.0800,-0.4772,0.0329,-0.3982,0.5377,-9.4571,2.5384,-0.0205,0.1498,-0.0037
11.0900,-0.3227,0.0422,-0.4121,0.5406,-9.4567,2.5396,-0.0261,0.1888,-0.0238
11.1000,-0.2119,0.0352,-0.4444,0.5431,-9.4561,2.5411,-0.0273,0.2019,-0.0299
11.1100,-0.0169,0.0193,-0.5000,0.5453,-9.4557,2.5422,-0.0173,0.1877,-0.0262
11.1200,0.1249,0.0123,-0.4989,0.5475,-9.4556,2.5421,-0.0024,0.1505,-0.0191
11.1300,0.1934,0.0156,-0.4039,0.5492,-9.4558,2.5410,0.0098,0.0958,-0.0096
11.1400,0.1841,0.0073,-0.2437,0.5503,-9.4561,2.5396,0.0089,0.0305,-0.0018
11.1500,0.1258,-0.0188,-0.0682,0.5501,-9.4562,2.5393,-0.0059,-0.0345,-0.0014
11.1600,0.0272,-0.0369,0.0634,0.5480,-9.4559,2.5410,-0.0240,-0.0896,-0.0107
11.1700,-0.0847,-0.0063,0.0866,0.5435,-9.4551,2.5446,-0.0403,-0.1351,-0.0243
11.1800,-0.1682,0.0529,0.0036,0.5367,-9.4541,2.5498,-0.0523,-0.1696,-0.0354
11.1900,-0.2040,0.0668,-0.1119,0.5284,-9.4530,2.5558,-0.0527,-0.1828,-0.0428
11.2000,-0.1594,0.0301,-0.2345,0.5195,-9.4520,2.5611,-0.0391,-0.1700,-0.0453
11.2100,-0.0507,-0.0080,-0.3369,0.5115,-9.4515,2.5649,-0.0233,-0.1368,-0.0401
11.2200,0.0509,-0.0201,-0.3838,0.5051,-9.4512,2.5672,-0.0155,-0.0963,-0.0290
11.2300,0.0952,-0.0059,-0.4003,0.5009,-9.4510,2.5688,-0.0129,-0.0624,-0.0178
11.2400,0.0677,-0.0136,-0.4022,0.4983,-9.4507,2.5702,-0.0110,-0.0409,-0.0089
11.2500,-0.0081,-0.0488,-0.3586,0.4968,-9.4504,2.5715,-0.0124,-0.0380,-0.0023
11.2600,-0.0826,-0.0456,-0.2800,0.4955,-9.4501,2.5731,-0.0183,-0.0585,0.0014
11.2700,-0.1234,0.0012,-0.2162,0.4936,-9.4495,2.5755,-0.0228,-0.0959,-0.0012
11.2800,-0.1365,0.0232,-0.1368,0.4899,-9.4490,2.5782,-0.0223,-0.1383,-0.0108
11.2900,-0.0812,-0.0196,0.0063,0.4843,-9.4485,2.5809,-0.0188,-0.1701,-0.0212
11.3000,0.2261,-0.0082,0.1185,0.4805,-9.4480,2.5834,-0.0225,-0.0867,0.0298
11.3100,0.4697,0.0397,0.1418,0.4885,-9.4473,2.5846,-0.0026,0.1387,0.1339
11.3200,0.2813,-0.0315,0.1585,0.5115,-9.4469,2.5817,0.0354,0.3706,0.2010
11.3300,-0.1123,-0.1225,0.2251,0.5422,-9.4468,2.5755,0.0399,0.4973,0.1934
11.3400,-0.5340,-0.1084,0.2136,0.5689,-9.4469,2.5697,0.0255,0.4409,0.0936
11.3500,-0.7499,-0.0650,0.0903,0.5791,-9.4473,2.5660,0.0120,0.2082,-0.0614
11.3600,-0.5279,-0.1081,0.0151,0.5683,-9.4481,2.5653,-0.0045,-0.0926,-0.1880
11.3700,-0.0096,-0.1628,-0.0140,0.5420,-9.4492,2.5670,-0.0031,-0.3365,-0.2351
11.3800,0.4750,-0.1635,0.0546,0.5102,-9.4505,2.5685,0.0181,-0.4566,-0.2044
