seconds_elapsed,acc_z,acc_y,acc_x,grav_z,grav_y,grav_x,gyro_z,gyro_y,gyro_x
10.09,0.24641220271587372,0.31150579452514643,0.03419029712677005,-0.7779249846935272,-9.510327816009521,-2.261994957923889,0.008552114479243748,-1.3226760029792786,0.5810092091560364
10.1,-0.21928957104682925,0.17701196670532227,0.3630642294883728,-0.6929013133049011,-9.514697551727295,-2.2712429761886597,-0.0687223402783274,-1.3220651149749756,0.5593234896659851
10.11,-0.4826885461807251,0.2676677703857422,0.668326199054718,-0.6102645397186279,-9.520359516143799,-2.2712442874908447,-0.14263703674077985,-1.1968377232551577,0.557490885257721
10.12,-0.5558151006698608,0.40510559082031244,0.879351794719696,-0.5311524271965027,-9.527313709259033,-2.262003302574158,-0.1963931769132614,-1.0380127727985382,0.5510767996311188
10.13,-0.5942757725715637,0.46547842025756836,0.9385320544242859,-0.45677873492240906,-9.535014152526855,-2.2457661628723145,-0.22907446324825287,-0.9002626538276672,0.5327508449554443
10.14,-0.5196703374385834,0.5428376197814941,0.9596954584121704,-0.3877320885658264,-9.542941093444824,-2.225031018257141,-0.2516764774918556,-0.7615962326526642,0.4936554729938507
10.15,-0.6845361888408661,0.6045756340026855,0.8101065158843994,-0.32581688463687897,-9.550809383392334,-2.201137661933899,-0.2687807083129882,-0.6415612101554871,0.45028404891490936
10.16,-0.9368804097175598,0.6350297927856445,0.5038378834724426,-0.2709942832589149,-9.558518886566162,-2.174990653991699,-0.25259277969598765,-0.48487429320812225,0.41149410605430603
10.17,-0.9590645134449005,0.6874141693115234,0.1495850682258606,-0.22367110848426813,-9.565413475036621,-2.149940609931946,-0.1997529342770576,-0.26771169900894165,0.36964982748031616
10.18,-0.6765849739313126,0.6484832763671875,-0.06940436363220209,-0.18532764166593552,-9.570775032043457,-2.1296699047088623,-0.13225232437252996,-0.10369437374174595,0.32078060507774353
10.19,-0.34750498086214066,0.5850563049316406,-0.1382802724838256,-0.15527736395597455,-9.574385643005371,-2.1158605813980103,-0.07360926084220405,-0.07712173648178575,0.27038422971963877
10.2,-0.24053982645273203,0.6207036972045898,-0.10791969299316401,-0.13056143745779986,-9.57651424407959,-2.1079139709472656,-0.018325956538319598,-0.16081027686595914,0.2386192381381988
10.21,-0.3264136910438537,0.6981077194213867,0.09089773893356325,-0.1069368198513984,-9.577303886413574,-2.105618476867676,0.04489859566092485,-0.29825495928525925,0.21662808954715723
10.22,-0.4815346747636795,0.7118382453918457,0.4157189726829529,-0.08229980617761605,-9.576669216156006,-2.1096166372299194,0.1139263696968555,-0.43539419770240784,0.1845576614141464
10.23,-0.6151242554187775,0.6091270446777344,0.7615046501159668,-0.0576464254409074,-9.574514389038086,-2.120214104652405,0.17287486791610715,-0.5175555646419525,0.14698944985866547
10.24,-0.7182278037071228,0.3471231460571289,0.9282795190811156,-0.03474865760654205,-9.57108449935913,-2.136154294013977,0.21777345985174174,-0.5190827399492264,0.12805262953042978
10.25,-0.7810370028018951,-0.1779708862304688,0.8689252734184265,-0.0138379714917391,-9.566729545593262,-2.155808687210083,0.2638937905430794,-0.4378376752138138,0.14332425594329828
10.26,-0.7912208139896393,-0.9050455093383789,0.7243655920028687,0.005922667915001501,-9.561506748199463,-2.178843140602112,0.30970868468284607,-0.29061914980411524,0.1750892475247383
10.27,-0.8055360317230225,-1.6124749183654785,0.5621480345726013,0.023829204961657448,-9.555578231811523,-2.2045704126358032,0.3460551649332046,-0.17577647417783737,0.19494237005710602
10.28,-0.8536702394485474,-2.2749390602111816,0.355093240737915,0.039641691371798446,-9.54912519454956,-2.2321473360061646,0.37690386176109314,-0.1492038294672966,0.21113029867410654
10.29,-0.7985720634460449,-2.968313217163086,-0.015986919403076144,0.0575666390359401,-9.5416898727417,-2.2632930278778076,0.4080579876899719,-0.18646661192178726,0.25450173020362854
10.3,-0.7494795322418213,-3.6225762367248535,-0.5645160675048828,0.08389145880937571,-9.53266429901123,-2.300146222114563,0.4404338449239731,-0.31658091396093363,0.3412445932626724
10.31,-1.115954875946045,-4.169415473937988,-1.137191653251648,0.12355828657746311,-9.522126197814941,-2.3415833711624146,0.48166725039482117,-0.5364924073219299,0.46586109697818756
10.32,-1.8876714706420898,-4.828126430511475,-1.6093615293502808,0.1806055754423141,-9.50999927520752,-2.386561155319214,0.5348125398159027,-0.7582364976406097,0.5880341529846191
10.33,-2.6250540018081665,-5.803750514984131,-1.7625387907028198,0.2547942623496055,-9.49579668045044,-2.435694098472595,0.5781839787960052,-0.8877399265766144,0.6408739984035492
10.34,-2.880100727081299,-6.866145133972168,-1.4613323211669922,0.33745852112770075,-9.479668617248535,-2.4879034757614136,0.5619960427284241,-0.8788823783397675,0.5354997366666794
10.35,-2.3495723009109497,-7.452045440673828,-0.774518609046936,0.41026890277862543,-9.46358871459961,-2.5378594398498535,0.4508185535669327,-0.7496843636035919,0.21723895054310555
10.36,-1.8793308734893799,-7.541067123413086,-0.32687652111053467,0.44999243319034576,-9.451181411743164,-2.577290177345276,0.2724458947777748,-0.5539020448923111,-0.24671320337802177
10.37,-1.0670973658561707,-6.366524696350098,-0.030670762062072754,0.4410135895013809,-9.445232391357422,-2.600556969642639,0.12736540287733075,-0.21487184800207615,-0.7253261357545853
10.38,-0.12791345020135242,-4.4403012593587246,-0.1616254647572835,0.35935295124848676,-9.444771448771158,-2.6132543881734214,0.054163385881111,0.09697485715150828,-0.9484955668449402
10.39,-0.009708712498346955,-3.6933991114298506,-0.5727879206339517,0.2954167822996775,-9.445480664571127,-2.6186830202738447,0.0283034234307706,0.17944166436791414,-0.9438122510910035
10.4,-0.18128889054059977,-1.9963636398315432,-1.3403284549713135,0.1836830899119377,-9.447022438049316,-2.6244696378707886,-0.02535090676974505,0.19990564882755274,-0.8875108361244202
10.41,-0.7577908337116239,-0.22273540496826172,-1.8715368509292603,0.0945969820022583,-9.448941707611084,-2.6223798990249634,-0.04703662358224385,0.06398813286796215,-0.8175667822360992
10.42,-1.3324851393699646,0.974851131439209,-2.0997745990753174,0.0156742474064231,-9.450624465942383,-2.618000030517578,-0.021685716812498798,-0.047800207044929204,-0.8526915311813354
10.43,-1.9151450395584106,1.3594675064086914,-2.1963695287704468,-0.06366261932998894,-9.450971603393555,-2.6159759759902954,0.0274889365537092,-0.042913285033136996,-0.9919688105583191
10.44,-2.343263268470764,1.0391926765441895,-2.229668974876404,-0.15628332644700998,-9.44912576675415,-2.6185895204544067,0.103236224502325,0.11316278861340837,-1.1776718497276306
10.45,-2.6803526878356934,0.13967657089233398,-2.168750524520874,-0.2705009505152702,-9.443843841552734,-2.628032684326172,0.18020524829626078,0.36086864024400706,-1.3868932127952576
10.46,-3.1600247621536255,-1.0442309379577637,-1.9794847965240479,-0.41092707216739655,-9.434292316436768,-2.643718719482422,0.20433443039655685,0.6418666541576385,-1.5927547812461853
10.47,-3.8501163721084595,-2.1110548973083496,-1.5577036142349243,-0.5781093835830688,-9.42091703414917,-2.6596826314926147,0.15210544690489763,0.9387471675872803,-1.7637970447540283
10.48,-4.499606609344482,-2.737576961517334,-0.9285632371902466,-0.7691334784030914,-9.404916286468506,-2.667527675628662,0.036957345902919755,1.2438743710517883,-1.9000200033187864
10.49,-3.9609971046447754,-2.7971458435058594,-0.16400575637817383,-0.9807848036289215,-9.387246131896973,-2.659955143928528,-0.14233159646391866,1.6409367918968203,-2.0423516035079956
10.5,-1.8501261472702026,-2.4089102745056152,0.40529143810272217,-1.2156491875648499,-9.368467330932617,-2.6283077001571655,-0.3145955950021744,1.9744691848754885,-2.152307391166687
10.51,1.401334524154663,-1.6731014251708987,0.6724578142166138,-1.4683721661567688,-9.347708225250244,-2.5722568035125732,-0.4120286107063293,2.019367754459381,-2.1742985248565674
10.52,4.663887143135071,-0.8545770645141602,1.0507548451423645,-1.722610592842102,-9.323473453521729,-2.5016410350799556,-0.4572326391935348,1.7316502332687376,-2.1339813470840454
10.53,5.447606086730957,-0.5055232048034668,1.7235488295555115,-1.9640430212020874,-9.295440673828125,-2.427444100379944,-0.49388454854488373,1.1415544152259827,-2.0805306434631348
10.54,3.20327627658844,-0.6948676109313965,2.340360641479492,-2.1845436096191406,-9.264113903045654,-2.3583171367645264,-0.588874101638794,0.7536549866199493,-2.0371592044830322
10.55,0.9563268423080444,-0.8893952369689941,2.4793989658355713,-2.3904536962509155,-9.231194972991943,-2.286665678024292,-0.7330383062362671,1.046564906835556,-1.9739346504211426
10.56,0.2670625448226928,-0.8275361061096191,1.9448307752609253,-2.595423698425293,-9.198482990264893,-2.192630648612976,-0.8338310718536377,1.70721572637558,-1.874669075012207
10.57,0.13441264629364005,-0.7031345367431641,1.0051137208938599,-2.8027503490448,-9.166064262390137,-2.069336414337158,-0.8393288552761078,2.1739166975021362,-1.79800546169281
10.58,0.2588497400283813,-0.14044857025146484,-0.11357206106185913,-3.008590340614319,-9.131396770477295,-1.928682029247284,-0.822530061006546,2.2020164728164673,-1.7934240102767944
10.59,0.4667583703994751,0.5841503143310547,-1.1527461409568787,-3.209316372871399,-9.092245101928711,-1.7849393486976624,-0.8341364860534668,1.8199203014373777,-1.8016707301139832
10.6,0.7861047983169556,0.8331623077392578,-1.767839252948761,-3.398178815841675,-9.049164772033691,-1.6498836874961853,-0.8765916228294373,1.1018481850624084,-1.7735708951950073
10.61,1.1439464092254639,0.9280998706817627,-2.1710686087608337,-3.568075656890869,-9.00404167175293,-1.5351557731628418,-0.9089674949645996,0.38835758715867996,-1.778152346611023
10.62,1.3792095184326172,1.1227970123291016,-2.333688974380493,-3.7243300676345825,-8.955727100372314,-1.4443614482879639,-0.8570439517498016,-0.03130684047937393,-1.8227455019950867
10.63,1.9494928121566772,1.2634577751159668,-2.0151206851005554,-3.8780221939086914,-8.901260375976562,-1.3750689029693604,-0.7596109509468079,-0.2692388594150543,-1.8621463179588318
10.64,2.452939748764038,1.634291648864746,-1.5195960998535156,-4.0331127643585205,-8.839941024780273,-1.3235183954238892,-0.6850853860378265,-0.44547347724437714,-1.9000200033187866
10.65,2.58890962600708,1.9650931358337402,-1.3416318893432617,-4.1906304359436035,-8.77210807800293,-1.2848074436187744,-0.6206390857696533,-0.6534730792045593,-1.952859878540039
10.66,2.8277103900909424,1.0580284595489502,-0.27146491408348083,-4.351619720458984,-8.697028160095215,-1.259627103805542,-0.5830708742141724,-0.9818131327629089,-2.0215821862220764
10.67,2.0877413749694824,-0.265681266784668,1.0433573424816132,-4.514264822006226,-8.61471176147461,-1.2528499960899353,-0.6356053054332733,-1.317178189754486,-2.043267846107483
10.68,1.2824251651763916,-0.7440743446350098,1.5212414860725403,-4.672614812850952,-8.52896785736084,-1.2590764164924622,-0.7596109509468079,-1.42316335439682,-2.0405189990997314
10.69,1.6496777534484863,-0.35442352294921875,1.6898267269134521,-4.8267834186553955,-8.442172527313232,-1.2624617218971252,-0.8952230215072632,-1.3999504446983335,-2.024941921234131
10.7,1.6392229795455933,-0.017894744873046847,1.7205764651298523,-4.9779372215271,-8.35492753982544,-1.256101369857788,-0.9816604554653168,-1.4191926717758179,-1.938809871673584
10.71,1.3470829725265503,-0.029806137084960896,1.656771183013916,-5.120344877243042,-8.269993305206299,-1.2461656332015991,-1.0555751323699951,-1.3996449708938599,-1.7851772904396057
10.72,1.2817614078521729,0.2708926200866699,1.1958058178424835,-5.248953580856323,-8.191211223602295,-1.2317188382148743,-1.1661417484283447,-1.2279918193817139,-1.579621136188507
10.73,1.4536980390548706,0.7237021923065186,0.6162024438381195,-5.362232208251953,-8.122084617614746,-1.2015847563743591,-1.237613022327423,-1.0771081447601318,-1.4421764612197876
10.74,1.7226927280426025,1.1439940929412842,-0.042164444923400934,-5.466027021408081,-8.0587477684021,-1.1597248315811157,-1.2428053617477417,-1.1323914527893066,-1.4409547448158264
10.75,1.5069864988327026,1.5084292888641357,-0.8515236973762512,-5.568749666213989,-7.993423700332642,-1.1224956512451172,-1.188438355922699,-1.276250183582306,-1.4882968068122864
10.76,1.3442904949188232,1.847374439239502,-1.573449969291687,-5.673007249832153,-7.922960519790649,-1.099676251411438,-1.0800097584724426,-1.326952040195465,-1.5249487161636353
10.77,1.5002741813659668,2.219590425491333,-2.1093982458114624,-5.778712749481201,-7.847460985183716,-1.0904523134231567,-0.9734137654304504,-1.2646437883377075,-1.5273922085762024
10.78,1.6979434490203857,2.5828664302825928,-2.4923853874206543,-5.884205102920532,-7.769006729125977,-1.088143229484558,-0.8988882303237915,-1.1320860385894775,-1.4992924332618711
10.79,2.0589181184768677,2.8832905292510986,-2.4935202598571777,-5.987802982330322,-7.689800024032593,-1.0858111977577207,-0.8432994782924652,-0.9640980958938599,-1.4461471438407898
10.8,2.494320034980774,3.128491163253784,-2.171870529651642,-6.088016748428345,-7.611633777618408,-1.0794552564620972,-0.7776314616203308,-0.8303185701370239,-1.3758976459503174
10.81,2.8900831937789917,3.1949076652526855,-1.7608762979507449,-6.183307647705078,-7.535595417022705,-1.0714643001556396,-0.6881397068500519,-0.7270823419094086,-1.295263409614563
10.82,3.0548739433288574,3.037811040878296,-1.3506544828414917,-6.272680997848511,-7.462295770645142,-1.065095067024231,-0.5922338664531708,-0.6281221807003021,-1.1877511143684387
10.83,2.780892014503479,2.8230977058410645,-0.98392254114151,-6.354238033294678,-7.3936285972595215,-1.0607256889343262,-0.5045747011899948,-0.48456884920597076,-0.9983828961849213
10.84,2.3082306385040283,2.6916799545288086,-0.7603263258934021,-6.422666311264038,-7.335233926773071,-1.0544785261154175,-0.4535674452781677,-0.29733864963054657,-0.7775550782680511
10.85,1.9250428676605225,2.6774370670318604,-0.8282158970832825,-6.4764204025268555,-7.2898664474487305,-1.0404585003852844,-0.43646322190761566,-0.1201877333223819,-0.5994878709316254
10.86,1.7806596755981445,2.677708148956299,-0.9658909440040588,-6.518784999847412,-7.2554216384887695,-1.0165080428123474,-0.413555771112442,0.018173240125179298,-0.4608214795589447
10.87,1.6309092044830322,2.6517486572265625,-1.2041417360305786,-6.552340507507324,-7.229462146759033,-0.9853557348251343,-0.3799581825733185,0.09117163717746729,-0.36735908687114716
10.88,1.4558558464050293,2.502030611038208,-1.3453049063682556,-6.579746723175049,-7.209031105041504,-0.9519316256046295,-0.34544429183006287,0.1122464910149574,-0.30810515582561493
10.89,1.4120523929595947,2.179551839828491,-1.0627466142177582,-6.602980852127075,-7.191962718963623,-0.9196523427963258,-0.32039882242679596,0.10552697256207465,-0.2595413699746132
10.9,1.4089064598083496,1.8802378177642822,-0.6785469651222229,-6.62257981300354,-7.177708387374878,-0.8896551132202148,-0.3127630054950714,0.08628471568226809,-0.1917353272438049
10.91,1.4198288917541504,1.695495367050171,-0.4086205065250397,-6.637093544006348,-7.167742729187012,-0.8615035116672516,-0.3234531432390213,0.040164389414712696,-0.09185886383056635
10.92,1.2412135601043701,1.5353224277496338,-0.28243890404701233,-6.644028902053833,-7.1643898487091064,-0.8356533348560333,-0.33567045629024506,-0.03405573894269765,0.047723844647407546
10.93,0.8532428741455078,1.3772571086883545,-0.20488026738166804,-6.64032769203186,-7.170327425003052,-0.8138525784015656,-0.33597588539123535,-0.11499538645148269,0.22640193253755564
10.94,0.26262402534484863,1.2716686725616455,-0.05857449769973755,-6.623120069503784,-7.188040494918823,-0.7973526120185852,-0.32070425152778625,-0.181274265050888,0.4282928854227066
10.95,-0.6459543704986572,1.331221580505371,0.15175992250442502,-6.590819358825684,-7.218862771987915,-0.7862233817577362,-0.2522873431444168,-0.17424931377172465,0.686383455991745
10.96,-1.8043744564056396,1.435682773590088,0.5112607777118683,-6.539717674255371,-7.2658631801605225,-0.7794113755226135,-0.13225232437252996,-0.039858959615230546,0.9160687923431396
10.97,-3.2949001789093018,1.4077043533325195,0.9220499098300934,-6.47254490852356,-7.326470375061035,-0.7724123001098633,-0.016187928617000552,0.2231185361742973,1.0489319860935211
10.98,-5.603776693344116,1.1074004173278809,0.9354013204574585,-6.39745831489563,-7.393676280975342,-0.7570332884788513,0.0846048407256603,0.6446155458688736,1.0938305854797363
10.99,-6.325337886810303,0.4335196018218994,0.05471748113632202,-6.325922966003418,-7.458406686782837,-0.7226997315883636,0.19120082259178156,1.2157745659351349,1.0116691887378693
11.0,-3.784357786178589,-0.31833004951477056,-1.7727699279785156,-6.264405965805054,-7.51579737663269,-0.6609360873699188,0.34819318354129786,1.574352502822876,0.9548587203025818
11.01,-0.620936393737793,-1.336310148239136,-3.5765063762664795,-6.204034805297852,-7.571616888046265,-0.5894045531749725,0.5632177591323853,1.3770430088043213,1.1145999729633331
11.02,0.9309701919555664,-2.8288910388946533,-4.279033184051514,-6.127884387969971,-7.63646388053894,-0.5476775169372559,0.7382306456565857,0.831234872341156,1.4817299842834473
11.03,-0.3140990734100342,-4.485126972198486,-3.330597758293152,-6.018863677978516,-7.722009658813477,-0.5539945960044861,0.7724390923976898,0.34468070417642593,1.8708511590957642
11.04,-2.57898211479187,-5.666486978530884,-1.5745432674884794,-5.875243186950684,-7.828730344772339,-0.5934063494205475,0.6710354685783386,0.2539672330021858,2.0577759742736816
11.05,-1.7496962547302246,-5.648313283920288,-1.3387831151485443,-5.714526653289795,-7.94386887550354,-0.6316448152065277,0.5913175642490387,0.5242750942707062,1.9948568344116209
11.06,1.1960132122039795,-4.840486526489258,-2.443786084651947,-5.558398246765137,-8.052588939666748,-0.6495224237442017,0.7302893996238708,0.4311181381344795,1.8351155519485474
11.07,1.5459744930267334,-3.7785983085632324,-2.4503054022789,-5.412610292434692,-8.148416996002197,-0.6849017143249512,0.8869763314723969,-0.009315699338912936,1.736155390739441
11.08,0.5273454189300537,-2.3754444122314453,-1.1993145942687988,-5.270259141921997,-8.23475980758667,-0.7579452991485596,0.8695666790008545,-0.11407908797264096,1.668349325656891
11.09,1.2467384338378906,-0.8961515426635743,0.030210137367248535,-5.131330728530884,-8.314641952514648,-0.8358590006828308,0.8228354752063751,0.06215553730726241,1.628032207489014
11.1,1.4177813529968262,0.28406000137329107,0.642929881811142,-4.995915651321411,-8.389929294586182,-0.9015036821365356,0.8167268335819244,0.24174991250038144,1.6842318177223206
11.11,0.321458101272583,1.1554663181304932,0.6987030506134033,-4.8562257289886475,-8.465263366699219,-0.9584739506244659,0.8402451574802399,0.38927386701107025,1.7312684655189514
11.12,0.5372469425201416,1.6849277019500732,0.3349832594394684,-4.712884426116943,-8.539826393127441,-1.011345237493515,0.8478809595108032,0.5053382813930511,1.6787340641021729
11.13,1.8970322608947754,1.6590971946716309,-0.12504178285598755,-4.574946880340576,-8.608566761016846,-1.061285138130188,0.8069529831409454,0.4967861771583557,1.6048193573951721
11.14,2.530247449874878,1.2045140266418457,-0.4492047429084778,-4.443214654922485,-8.671131134033203,-1.1106176376342773,0.7241807579994202,0.39324450492858887,1.5999324321746826
11.15,1.9318060874938965,0.1630411148071289,-0.8199236392974854,-4.309248447418213,-8.73218822479248,-1.158884048461914,0.6414085030555725,0.3400992304086685,1.6524668335914612
11.16,1.616055965423584,-0.8482646942138672,-1.0967706143856049,-4.130566298961639,-8.809047222137451,-1.2100427448749542,0.6163630187511444,0.42562036961317057,1.6946164965629578
11.17,1.8885726928710938,-1.1003026962280273,-1.1635580658912659,-4.020609259605408,-8.855087280273438,-1.2378262877464294,0.6255260109901428,0.5080871731042862,1.7034740447998047
11.18,2.1610894203186035,-1.3523406982421875,-1.2303455173969269,-3.9106522202491756,-8.901127338409424,-1.2656098306179049,0.6346890032291412,0.5905539765954018,1.7123315930366514
11.19,2.7535006999969482,-1.7352147102355957,-1.238433599472046,-3.7255464792251587,-8.975545883178711,-1.3125883340835571,0.6588181853294373,0.6269004642963409,1.7153859734535217
11.2,2.9586669206619263,-1.9014291763305664,-0.9956096410751343,-3.573976755142212,-9.030795097351074,-1.3542993068695068,0.6707300543785095,0.4986187666654587,1.699808955192566
11.21,2.3155775666236877,-1.726095199584961,-0.5362751483917236,-3.420501708984375,-9.0828275680542,-1.4018311500549316,0.6545421183109283,0.3712533563375473,1.6854535937309265
11.22,1.4048492312431335,-1.190134048461914,0.013070523738861084,-3.2663410902023315,-9.131568908691406,-1.451985776424408,0.6334672570228577,0.3575088828802109,1.6885079145431519
11.23,1.0553539991378784,-0.38880205154418945,0.5775112211704254,-3.111973285675049,-9.177530288696289,-1.5004760026931763,0.6356052756309509,0.4411974251270294,1.6967545747756958
11.24,1.0483500361442566,0.41942644119262695,1.1310777962207794,-2.9577258825302124,-9.220810890197754,-1.5464717745780945,0.6863071024417877,0.4925101101398468,1.6744579672813416
11.25,0.9858538508415222,0.8154244422912598,1.4919639825820923,-2.8054471015930176,-9.260072708129883,-1.5949146151542664,0.7507534027099609,0.4723515510559082,1.6100116968154907
11.26,1.026308536529541,0.9293298721313477,1.6152862906455994,-2.6591540575027466,-9.29377269744873,-1.6488050818443298,0.7733553946018219,0.41859540343284607,1.5208253860473633
11.27,1.182074785232544,0.7670106887817383,1.6353015303611755,-2.521630644798279,-9.321792602539062,-1.705930471420288,0.7586946189403534,0.3300199508666992,1.4395803213119507
11.28,0.9843483567237854,0.3656187057495117,1.5547260642051697,-2.390941858291626,-9.34537124633789,-1.7642186880111694,0.6994406878948212,0.204487144947052,1.385518729686737
11.29,0.3324697613716126,0.07303667068481445,1.3471184968948364,-2.2633934020996094,-9.366429805755615,-1.8199732899665833,0.5812382698059082,0.12599095329642296,1.3433690071105957
11.3,-0.01232624053955075,-0.0539922714233398,1.1381763219833374,-2.1388639211654663,-9.38664436340332,-1.8660135865211487,0.4612032622098923,0.17241671308875078,1.288085699081421
11.31,0.19064074754714966,-0.0405211448669433,1.1139917969703674,-2.021007895469665,-9.406100749969482,-1.8992899060249329,0.3576616048812866,0.24358251690864557,1.20317542552948
11.32,0.6678478419780731,0.2577962875366211,1.1897026300430298,-1.9128327369689941,-9.424296379089355,-1.9211312532424927,0.2571742683649063,0.2185370475053787,1.1026881337165833
11.33,1.0592957437038422,0.6122961044311523,1.1827420592308044,-1.8134692907333374,-9.441214084625244,-1.9345214366912842,0.21319196373224253,0.09239337220787995,1.033354938030243
11.34,1.4638983011245728,0.741307258605957,1.1727365851402283,-1.7176836729049683,-9.456501007080078,-1.947260856628418,0.22693643718957895,-0.09666942432522774,1.024802803993225
11.35,1.6662912964820862,0.7322063446044922,1.1840543150901794,-1.6184072494506836,-9.470144748687744,-1.9657611846923828,0.2654209434986114,-0.35903605073690414,1.0648145079612732
11.36,0.9997218251228333,0.6582412719726562,1.128645420074463,-1.5096867680549622,-9.482370853424072,-1.992952287197113,0.29352074861526484,-0.6809620261192322,1.102993607521057
11.37,0.021261394023895264,0.6870017051696777,1.0088806748390198,-1.3907447457313538,-9.493175029754639,-2.0276135206222534,0.27824912965297693,-0.9372199773788452,1.0886382460594175
11.38,-0.28821283578872675,0.6772551536560059,0.9180780053138734,-1.2680182456970215,-9.50258207321167,-2.0637035369873047,0.245262399315834,-1.0435105562210083,1.0138072371482847
11.39,-0.01094046235084531,0.5485067367553711,0.9932960271835327,-1.15024733543396,-9.510303020477297,-2.0970230102539062,0.2113593742251396,-1.0679451823234558,0.9059895277023315
11.4,0.39564621448516846,0.42165136337280273,1.2044206857681274,-1.042080670595169,-9.516325950622559,-2.126188278198242,0.16249015927314753,-1.097877562046051,0.8061130344867706
11.41,0.6384159922599792,0.2783327102661133,1.4039462804794312,-0.9424796104431152,-9.521447658538818,-2.1497400999069214,0.0833831094205379,-1.1727085709571838,0.7444156408309937
11.42,0.36316171288490295,0.21922540664672846,1.373731017112732,-0.8467904627323151,-9.526983737945557,-2.1650147438049316,-0.0018325950950384001,-1.2209669351577759,0.7297548949718475
11.43,-0.04589256644248964,0.14564990997314445,1.10562002658844,-0.75137659907341,-9.533614158630371,-2.1710398197174072,-0.0754418577998876,-1.1571314930915833,0.7395287454128265
11.44,-0.298070952296257,0.2189867496490478,0.9185178577899933,-0.6374633461236954,-9.544103145599365,-2.1587143540382385,-0.16462818719446654,-1.006095051765442,0.724867969751358
11.45,-0.42582157254219055,0.38452291488647455,0.8885508179664612,-0.5713634192943573,-9.551023483276367,-2.145506739616394,-0.21624630317091936,-0.9130908250808716,0.7047094106674194
11.46,-0.5535721927881241,0.5500590801239014,0.8585837781429291,-0.5052634924650192,-9.557943820953371,-2.1322991251945496,-0.26786441914737225,-0.8200865983963013,0.6845508515834808
11.47,-0.6848211884498596,0.7996406555175781,0.8429082036018372,-0.4009492844343185,-9.56990098953247,-2.103455424308777,-0.3240640163421631,-0.6766859889030457,0.6405685544013977
11.48,-0.686054527759552,0.8967490196228027,0.7848196625709534,-0.32788990437984467,-9.579620838165283,-2.07170307636261,-0.3173444867134094,-0.584139883518219,0.5938373804092407
11.49,-0.6760895848274231,0.9473962783813477,0.6255772709846497,-0.2612403780221939,-9.588369369506836,-2.040550470352173,-0.27855454385280604,-0.5001459121704102,0.5516876876354218
11.5,-0.6760706007480621,1.0001492500305176,0.43060266971588135,-0.20020722597837443,-9.595632553100586,-2.013170003890991,-0.22204951196908945,-0.411265030503273,0.5156466364860535
11.51,-0.6495061218738556,1.0296611785888672,0.19447535276412964,-0.14417174085974688,-9.601202487945557,-1.9913237690925598,-0.16249015182256693,-0.32604932785034174,0.47563496232032776
11.52,-0.4536588340997696,0.9593868255615234,0.00368225574493411,-0.09341624379158014,-9.605148315429688,-1.97530734539032,-0.07880161609500644,-0.297644093632698,0.3931681513786316
11.53,-0.2602990046143532,0.7865638732910156,-0.03772073984146115,-0.0509472228586673,-9.607101917266846,-1.9674231410026553,0.0070249503478408,-0.3538436889648437,0.29542970657348633
11.54,-0.23705169558525085,0.5795097351074219,0.029690265655517547,-0.01673369371565055,-9.607146263122559,-1.967796504497528,0.06627888046205041,-0.4195117056369781,0.23312144726514816
11.55,-0.18019729107618332,0.3460526466369629,0.08711314201354975,0.0126031685504131,-9.605926990509033,-1.9737440347671509,0.11545353382825846,-0.43661592900753016,0.20013472437858582
11.56,-0.1094292253255844,0.20735836029052734,0.0784140825271606,0.0388002712279558,-9.603702068328857,-1.9841986298561098,0.16065756231546396,-0.45158213376998896,0.1912771761417389
11.57,-0.2197945564985275,0.16948843002319336,-0.017166018486022956,0.06417144648730749,-9.600547790527344,-1.9987518787384033,0.2089159190654754,-0.4934263974428177,0.2053270787000656
11.58,-0.5068520754575729,0.031223297119140653,-0.2412096261978149,0.0914580971002578,-9.596358299255371,-2.0177197456359863,0.2648100852966308,-0.5215261876583099,0.2389246746897697
11.59,-0.7612205147743225,-0.34414052963256836,-0.4348771572113037,0.12196867540478701,-9.590898990631104,-2.041924476623535,0.3289509266614914,-0.5157229900360107,0.280768945813179
11.6,-0.9477174878120423,-0.9903850555419922,-0.438088059425354,0.1552367433905601,-9.583906173706055,-2.0722323656082153,0.40714168548583984,-0.5154175758361816,0.31864258646965027
11.61,-1.287900745868683,-1.850353717803955,-0.25574588775634766,0.19015929847955698,-9.57507610321045,-2.1097253561019897,0.48869219422340393,-0.5511531829833984,0.33085988461971283
11.62,-1.8298428058624268,-2.706277370452881,-0.0374656915664673,0.22692484408617014,-9.564305782318115,-2.1544259786605835,0.5500841438770294,-0.5923865735530853,0.30856330692768097
11.63,-2.29105544090271,-3.452577590942383,0.0679291486740112,0.2655608579516411,-9.551828384399414,-2.2047542333602905,0.5885686576366425,-0.5816964209079742,0.2804635018110275
11.64,-2.320258140563965,-4.330733299255371,0.22513842582702634,0.3043403774499893,-9.537979125976562,-2.259012818336487,0.589179515838623,-0.5190827399492264,0.30978502333164215
11.65,-2.320930600166321,-5.256349563598633,0.5752970576286316,0.34571430087089533,-9.523506164550781,-2.3134875297546387,0.5277875661849976,-0.5050328522920609,0.37606391310691833
11.66,-2.5660557746887207,-5.913064956665039,1.0103179216384888,0.393317773938179,-9.509783744812012,-2.361844778060913,0.4187481254339218,-0.5077817440032959,0.3669009357690811
11.67,-2.3434258302052817,-6.191206932067871,0.9611870447794597,0.4384393592675527,-9.497797330220541,-2.401698350906372,0.30095294117927546,-0.3353141210973263,0.13273591796557108
11.68,-2.00317660967509,-6.2150774002075195,0.6975342830022176,0.4581184486548106,-9.492282549540203,-2.4197633266448975,0.24454972147941584,-0.18361591547727585,-0.06477717558542884
11.69,-1.156484454870224,-6.0622711181640625,0.10992968082427979,0.46575726568698883,-9.485076427459717,-2.4466705322265625,0.17592919617891306,0.10399980656802657,-0.4571562856435776
11.7,-0.2043701857328415,-5.627668857574463,-0.6139639616012573,0.41984833776950836,-9.482736587524414,-2.46378231048584,0.15088371932506556,0.30863966792821884,-0.8206211030483246
11.71,0.2533759176731109,-4.884821891784668,-1.3766359090805054,0.3344005942344665,-9.48203420639038,-2.479225993156433,0.1084285825490951,0.3510947972536087,-1.085125744342804
11.72,0.025023385882377625,-3.704050064086914,-2.132862091064453,0.2227764949202537,-9.482315063476562,-2.4904911518096924,0.0574213340878486,0.24113904684782028,-1.1831696033477783
11.73,-0.5175701975822449,-2.2478699684143066,-2.7364526987075806,0.10457038506865494,-9.482820510864258,-2.496374487876892,0.02962696552276605,0.05054909735918045,-1.1437687873840332
11.74,-1.1165379881858826,-1.0257782936096191,-3.0771286487579346,-0.005145546048879651,-9.482672214508058,-2.4992663860321045,0.0595593601465225,-0.14523321390151975,-1.0640509128570557
11.75,-1.957813799381256,-0.2987856864929199,-3.280858874320984,-0.10239683836698531,-9.480630397796633,-2.5050288438796997,0.1447750627994537,-0.26221391558647156,-1.05946946144104
11.76,-3.014406681060791,-0.01671600341796875,-3.3948336839675903,-0.19621786475181574,-9.475395679473879,-2.5191439390182495,0.21777345985174174,-0.19746219739317888,-1.1810316443443298
11.77,-3.8628324270248413,-0.16408634185791016,-3.3953200578689575,-0.3030784055590629,-9.466888904571533,-2.5402053594589233,0.25534167140722275,0.07131851837038997,-1.371621549129486
11.78,-4.521466493606567,-0.7180166244506836,-3.227888584136963,-0.4346805810928345,-9.45524549484253,-2.5639846324920654,0.25534167140722275,0.4860960319638252,-1.5557973980903625
11.79,-4.980988502502441,-1.4988040924072266,-2.9239377975463867,-0.5942094624042511,-9.440602779388428,-2.5854196548461914,0.18387043476104736,1.003498911857605,-1.703626811504364
11.8,-4.9702699184417725,-2.0205183029174805,-2.501800537109375,-0.7809016704559326,-9.424065113067627,-2.595604658126831,0.051312677562236814,1.5312864780426025,-1.8306868076324463
11.81,-4.090126037597656,-2.149481773376465,-1.8642323017120361,-0.9929136335849762,-9.406432151794434,-2.5865886211395264,-0.06994407251477236,1.9619464874267578,-1.9259817600250246
11.82,-2.1479042768478394,-1.9751505851745605,-1.0607763528823853,-1.2243287563323975,-9.386833190917969,-2.5580594539642334,-0.15515977516770357,2.2618813514709473,-1.9397261738777163
11.83,0.504634439945221,-1.4729409217834473,-0.44865214824676514,-1.4635121822357178,-9.364712715148926,-2.512975335121155,-0.22846360504627225,2.426814913749695,-1.8490127325057983
11.84,2.839938342571258,-0.9361624717712402,0.026683807373046875,-1.6967069506645203,-9.341248035430908,-2.45320725440979,-0.2733622044324875,2.3751968145370483,-1.7167604565620422
11.85,3.8405085802078243,-0.9892044067382812,0.7772229313850403,-1.9143732190132141,-9.316936492919922,-2.3849294185638428,-0.30482175946235657,2.088395595550537,-1.6394859552383423
11.86,3.4735543727874756,-1.2341465950012207,1.8011166453361511,-2.1160420179367065,-9.291063785552979,-2.3146729469299316,-0.4260784983634949,1.7362317442893982,-1.6404022574424744
11.87,2.3209633827209473,-1.169816017150879,2.6666576862335205,-2.307795286178589,-9.264414310455322,-2.2368985414505005,-0.7415904104709625,1.5676329731941223,-1.6465109586715698
11.88,1.088987112045288,-0.9574322700500488,2.7160457372665405,-2.494383454322815,-9.240969181060791,-2.130663514137268,-1.0164797604084015,1.6934711933135986,-1.6049721240997314
11.89,0.7476432919502258,-0.7972197532653809,2.3388917446136475,-2.6773698329925537,-9.220419883728027,-1.992929697036743,-1.0696250200271606,1.8981110453605652,-1.5680147409439087
11.9,1.3470906615257263,-0.8391547203063965,1.9985941052436829,-2.8578319549560547,-9.197638511657715,-1.8417739272117615,-1.0961976647377014,1.811979055404663,-1.579315721988678
11.91,1.5637706518173218,-0.886296272277832,1.3452432453632355,-3.0338104963302612,-9.170847415924072,-1.6876140832901,-1.1945469975471497,1.3376421928405762,-1.616883933544159
11.92,1.0646138191223145,-0.8400740623474121,0.40154674649238586,-3.201438784599304,-9.140454769134521,-1.5363983511924744,-1.2959506511688232,0.749378964304924,-1.6785812973976135
11.93,0.7902724742889404,-0.32926082611083984,-0.5506240725517273,-3.3628422021865845,-9.105390071868896,-1.393467664718628,-1.3151928782463074,0.32635475695133204,-1.7384461164474487
11.94,1.3842439651489258,0.5971834659576416,-1.2281877994537354,-3.521069049835205,-9.064577102661133,-1.2629790306091309,-1.25441175699234,0.0881173082452733,-1.7579938173294067
11.95,2.6532963514328003,1.4266753196716309,-1.6450901627540588,-3.674423336982727,-9.018988132476807,-1.1477461457252502,-1.1643091440200806,-0.16722435571136882,-1.7772360444068909
11.96,3.6862850189208984,1.959082841873169,-1.9381523728370667,-3.8239516019821167,-8.96840763092041,-1.0522055625915527,-1.0595457553863525,-0.6033821552991867,-1.8306867480278015
11.97,3.4063092470169067,2.3642964363098145,-2.2110620737075806,-3.9749321937561035,-8.910343170166016,-0.9840001165866852,-0.9181304574012756,-1.1626293063163757,-1.9314795136451721
11.98,2.486561417579651,2.2479591369628906,-2.2427459955215454,-4.132575035095215,-8.84188985824585,-0.9511191248893738,-0.7018841803073883,-1.583820879459381,-2.1999547481536865
11.99,2.0612616539001465,1.369255542755127,-2.132040023803711,-4.310614109039307,-8.755667209625244,-0.9564802050590515,-0.5616905987262726,-1.6995798349380493,-2.5722771883010864
12.0,2.1919111013412476,0.7510190010070801,-2.284283757209778,-4.51787805557251,-8.647395610809326,-0.9826044738292694,-0.5983425080776215,-1.6363552808761597,-2.8300623893737793
12.01,2.7285741567611694,1.032827377319336,-2.664516806602478,-4.744492053985596,-8.522189617156982,-1.0069915056228638,-0.683863639831543,-1.600925087928772,-2.9128345251083374
12.02,3.1872228384017944,1.6320700645446777,-2.851603150367737,-4.974494457244873,-8.387609481811523,-1.0270036458969116,-0.7250970602035522,-1.7099645137786865,-2.8563294410705566
12.03,2.6385289430618286,1.5459163188934326,-2.367582619190216,-5.194339275360107,-8.249980449676514,-1.053731620311737,-0.7073819637298584,-1.848936378955841,-2.7231608629226685
12.04,0.8613526821136475,0.7545595169067383,-1.3530734181404114,-5.397317409515381,-8.11343765258789,-1.093800663948059,-0.7519751191139221,-1.7218764424324036,-2.513023257255554
12.05,-0.048502445220947266,0.6885488033294678,-0.45130521059036255,-5.580564975738525,-7.983980655670166,-1.1276707649230957,-0.9141598641872406,-1.2188288867473602,-2.2613468170166016
12.06,0.2666966915130615,1.6494593620300293,-0.045538485050201444,-5.746126651763916,-7.866303443908691,-1.1240290403366089,-1.0458013415336609,-0.6959282159805298,-2.0133355259895325
12.07,0.5923242568969727,2.6417860984802246,-0.18982225656509402,-5.895780324935913,-7.760738849639893,-1.0826959609985352,-1.036332905292511,-0.42562034726142883,-1.7460819482803347
12.08,0.9512150287628175,3.364125967025757,-0.6311312913894653,-6.02602481842041,-7.66770339012146,-1.0280504822731018,-0.9352346956729889,-0.29367346316576,-1.4901294112205505
