time,seconds_elapsed,z,y,x
1759485902716832500,0.05283251953125,0.020486099645495415,0.15337251126766205,-0.014100106433033943
1759485902726889500,0.062889404296875,0.013654826208949089,0.09910820424556732,-0.016693759709596634
1759485902736946400,0.072946533203125,-0.005257079843431711,0.0677710548043251,0.010182596743106842
1759485902747004400,0.08300439453125,-0.009345831349492073,0.07441297918558121,0.03344610705971718
1759485902757061400,0.093061279296875,-0.011351724155247211,0.06054643541574478,0.037760961800813675
1759485902767119400,0.103119384765625,-0.009459814056754112,0.03063593991100788,0.026634274050593376
1759485902777176300,0.11317626953125,-0.0065681543201208115,0.0015635418239980936,0.004861867055296898
1759485902787233300,0.1232333984375,-0.002341717481613159,-0.0065260762348771095,-0.02081899531185627
1759485902797291500,0.13329150390625,0.0016317188274115324,-0.004761199466884136,-0.023486150428652763
1759485902807348500,0.143348388671875,-0.0000023968450477696024,0.0018985675415024161,-0.010781008750200272
1759485902817406500,0.153406494140625,0.0028820729348808527,0.02215377241373062,0.011110708117485046
1759485902827463400,0.16346337890625,0.001945705502294004,0.03725309669971466,0.032600287348032
1759485902837520400,0.173520263671875,0.005665076430886984,0.05034652724862099,0.03738785162568092
1759485902847578600,0.18357861328125,0.010520817711949348,0.0506698340177536,0.03201199322938919
1759485902857635600,0.193635498046875,0.009920008480548859,0.05532131344079971,0.015398663468658924
1759485902867692500,0.203692626953125,0.005067196674644947,0.04803730174899101,0.0015986956423148513
1759485902877750300,0.213750244140625,0.00044528054422698915,0.03363678976893425,-0.0006700513185933232
1759485902887807500,0.223807373046875,-0.003136138431727886,0.016341954469680786,0.0027262780349701643
1759485902897865500,0.233865478515625,0.0015566176734864712,0.009372728876769543,0.004777977243065834
1759485902907922400,0.24392236328125,0.0067785438150167465,0.006750048138201237,0.0027505126781761646
1759485902917979400,0.2539794921875,0.01091683004051447,0.007993211969733238,0.0025832662358880043
1759485902928037400,0.264037353515625,0.017111076042056084,0.013344300910830498,0.004861600697040558
1759485902938094300,0.27409423828125,0.01830044388771057,0.02250264585018158,0.00672421557828784
1759485902948152300,0.28415234375,0.007018228527158499,0.013189838267862797,0.0024676851462572813
1759485902958209500,0.29420947265625,-0.0003478088474366814,0.000755805114749819,0.005358013790100813
1759485902968266500,0.3042666015625,-0.0057409764267504215,-0.0062123560346663,0.007239270955324173
1759485902978324500,0.314324462890625,-0.009219597093760967,-0.006502107717096806,-0.0006772418855689466
1759485902988381400,0.32438134765625,-0.00782436691224575,-0.014155765995383263,-0.007836351171135902
1759485902998438400,0.3344384765625,-0.0029904635157436132,-0.0144095653668046,-0.020709006115794182
1759485903008496600,0.34449658203125,0.009532518684864044,-0.01344683300703764,-0.03063700534403324
1759485903018553600,0.3545537109375,0.014990135096013546,-0.015751266852021217,-0.030714236199855804
1759485903028611300,0.364611328125,0.0226746853441,-0.01483327429741621,-0.0288793183863163
1759485903038668300,0.374668212890625,0.0235306266695261,-0.0001661812566453591,-0.02052737958729267
1759485903048725200,0.384725341796875,0.006518619135022163,-0.006487460341304541,-0.015423431061208248
1759485903058783500,0.394783447265625,0.0013467605458572507,-0.0206363033503294,-0.0154367471113801
1759485903068840400,0.40484033203125,0.004858404863625765,-0.032580312341451645,-0.02207414247095585
1759485903078897400,0.4148974609375,0.008715461008250713,-0.03869759291410446,-0.03268763795495033
1759485903088955400,0.424955322265625,0.015095063485205173,-0.0444745235145092,-0.04452299326658249
1759485903099012400,0.435012451171875,0.0184682235121727,-0.04773023724555969,-0.05951286107301712
1759485903109070300,0.4450703125,0.011870508082211018,-0.039251264184713364,-0.07345983386039734
1759485903119127600,0.45512744140625,0.007503456436097622,-0.023212645202875137,-0.07929961383342743
1759485903129184500,0.4651845703125,0.000007190534688561456,-0.022273613139986992,-0.08218435198068619
1759485903139242500,0.475242431640625,0.001814411603845656,-0.014796522445976734,-0.07721702009439468
1759485903149299500,0.485299560546875,-0.016696421429514885,0.04151921346783638,-0.07628252357244492
1759485903159356400,0.4953564453125,-0.04939977452158928,0.06961076706647873,-0.09053948521614075
1759485903169414400,0.505414306640625,-0.10127761960029602,0.05492503568530083,-0.1324528455734253
1759485903179471600,0.5154716796875,-0.11889415979385376,0.0339912548661232,-0.18661248683929443
1759485903189529300,0.525529296875,-0.10974087566137314,-0.007798268459737301,-0.23964987695217133
1759485903199586300,0.53558642578125,-0.09287827461957932,-0.06353902816772461,-0.2841438353061676
1759485903209643300,0.545643310546875,-0.08163654059171677,-0.07706362754106522,-0.3213849663734436
1759485903219701500,0.555701416015625,-0.08628614991903305,-0.07182438671588898,-0.3366808295249939
1759485903229758500,0.565758544921875,-0.11111240833997726,-0.039746347814798355,-0.3239375948905945
1759485903239816400,0.57581640625,-0.1397179514169693,-0.033430662006139755,-0.31817343831062317
1759485903249873400,0.585873291015625,-0.15611717104911804,-0.06079357489943504,-0.3101237714290619
1759485903259930400,0.595930419921875,-0.15647083520889282,-0.09869355708360672,-0.30324748158454895
1759485903269988400,0.60598828125,-0.13459216058254242,-0.13602574169635773,-0.2865894138813019
1759485903280045300,0.61604541015625,-0.09522425383329391,-0.20815160870552063,-0.25491219758987427
1759485903290102500,0.6261025390625,-0.07923516631126404,-0.3153134882450104,-0.22888298332691193
1759485903300160500,0.636160400390625,-0.10039238631725311,-0.4177647531032562,-0.22728827595710754
1759485903310217500,0.646217529296875,-0.11670344322919846,-0.5092283487319946,-0.2650311291217804
1759485903320275200,0.656275146484375,-0.11596707999706268,-0.6006259322166443,-0.32744044065475464
1759485903330332200,0.666332275390625,-0.08729922026395798,-0.6597083806991577,-0.39482879638671875
1759485903340389400,0.676389404296875,-0.06198134645819664,-0.5980434417724609,-0.4310440719127655
1759485903350447400,0.686447265625,-0.03636066988110542,-0.4516263008117676,-0.40701064467430115
1759485903360504300,0.69650439453125,-0.010529606603085995,-0.2809094190597534,-0.33171480894088745
1759485903370561300,0.706561279296875,0.04157141223549843,-0.09811192005872726,-0.23502716422080994
1759485903380619300,0.716619384765625,0.11605789512395859,0.09060127288103104,-0.15046487748622894
1759485903390676200,0.72667626953125,0.1575709879398346,0.20097465813159943,-0.08633888512849808
1759485903400733400,0.7367333984375,0.14164528250694275,0.2231696993112564,-0.07285530120134354
1759485903410791400,0.74679150390625,0.07281428575515747,0.14464639127254486,-0.10417753458023071
1759485903420848400,0.756848388671875,0.014605041593313217,-0.04435095191001892,-0.1630251407623291
1759485903430906400,0.76690625,0.015074823051691055,-0.2492833286523819,-0.23109526932239532
1759485903440963300,0.77696337890625,0.0607866495847702,-0.3824150264263153,-0.29940375685691833
1759485903451020500,0.7870205078125,0.11123517900705338,-0.4479186534881592,-0.34265029430389404
1759485903461078500,0.79707861328125,0.13559271395206451,-0.422118216753006,-0.3935624659061432
1759485903471135500,0.807135498046875,0.15346252918243408,-0.4006379544734955,-0.3963207006454468
1759485903481192400,0.8171923828125,0.26429876685142517,-0.4706180989742279,-0.3368981182575226
1759485903491250200,0.827250244140625,0.3628905713558197,-0.50844407081604,-0.25656867027282715
1759485903501307400,0.837307373046875,0.3910670876502991,-0.40747296810150146,-0.22508904337882996
1759485903511365400,0.847365478515625,0.39489859342575073,-0.24740873277187347,-0.23157544434070587
1759485903521422300,0.85742236328125,0.3797135055065155,-0.20284152030944824,-0.21337325870990753
1759485903531479300,0.867479248046875,0.3757280707359314,-0.1659010797739029,-0.22024661302566528
1759485903541537300,0.877537353515625,0.38644784688949585,-0.17646504938602448,-0.23825252056121826
1759485903551594200,0.88759423828125,0.3976099491119385,-0.23665301501750946,-0.25668877363204956
1759485903561651500,0.8976513671875,0.40998247265815735,-0.3021699786186218,-0.2752896249294281
1759485903571709400,0.90770947265625,0.4212007522583008,-0.35916030406951904,-0.3009449243545532
1759485903581766400,0.917766357421875,0.42869117856025696,-0.385917067527771,-0.29712915420532227
1759485903591823400,0.9278232421875,0.42566075921058655,-0.3255347013473511,-0.31879210472106934
1759485903601881300,0.93788134765625,0.3980858623981476,-0.20810019969940186,-0.3553762137889862
1759485903611938600,0.9479384765625,0.3574175238609314,-0.09157811850309372,-0.34788820147514343
1759485903621996300,0.957996337890625,0.35340574383735657,-0.03189374879002571,-0.31951433420181274
1759485903632053200,0.96805322265625,0.3486922085285187,-0.0028362665325403214,-0.2875436246395111
1759485903642110500,0.9781103515625,0.36511486768722534,0.048290833830833435,-0.2792761027812958
1759485903652168200,0.988168212890625,0.37980031967163086,0.09948904067277908,-0.2737223505973816
1759485903662225400,0.998225341796875,0.4027903378009796,0.13923965394496918,-0.2800372540950775
1759485903672282400,1.008282470703125,0.384231299161911,0.1723499298095703,-0.3072590231895447
1759485903682340400,1.01834033203125,0.3382880389690399,0.19687950611114502,-0.3215111792087555
1759485903692397300,1.028397216796875,0.2838391661643982,0.1732380986213684,-0.3075956404209137
1759485903702454300,1.038454345703125,0.20150595903396606,0.17535850405693054,-0.3172072470188141
1759485903712512300,1.04851220703125,0.1265113353729248,0.19617244601249695,-0.32940319180488586
1759485903722569500,1.058569580078125,0.1337556689977646,0.13213805854320526,-0.2664324939250946
1759485903732627500,1.06862744140625,0.14454945921897888,0.06784243136644363,-0.22102771699428558
1759485903742684400,1.078684326171875,0.12095997482538223,0.017132114619016647,-0.20646102726459503
1759485903752741400,1.088741455078125,0.10690701007843018,-0.02316870167851448,-0.2024039626121521
1759485903762799400,1.09879931640625,0.10728064924478531,-0.054543137550354004,-0.20120421051979065
1759485903772856600,1.108856689453125,0.1112852469086647,-0.09076984971761703,-0.2078258991241455
1759485903782913500,1.11891357421875,0.11281310021877289,-0.11478038132190704,-0.22370180487632751
1759485903792971300,1.12897119140625,0.10686732828617096,-0.11339367181062698,-0.26399916410446167
1759485903803028200,1.1390283203125,0.09024067968130112,-0.11108071357011795,-0.30202776193618774
1759485903813085400,1.14908544921875,0.09875986725091934,-0.11380912363529205,-0.30311378836631775
1759485903823143400,1.159143310546875,0.06108572334051132,-0.13342224061489105,-0.3388504981994629
1759485903833200400,1.169200439453125,0.015252456068992615,-0.1921108514070511,-0.3689434230327606
1759485903843258400,1.17925830078125,0.005591573193669319,-0.25943318009376526,-0.38713333010673523
1759485903853315300,1.1893154296875,-0.005696767941117287,-0.3195793330669403,-0.40316903591156006
1759485903863372300,1.199372314453125,-0.029413282871246338,-0.35256046056747437,-0.4129470884799957
1759485903873430500,1.209430419921875,-0.04891427978873253,-0.3744201958179474,-0.41065943241119385
1759485903883487500,1.219487548828125,-0.05461637303233147,-0.40028321743011475,-0.4062362015247345
1759485903893544400,1.22954443359375,-0.05646301060914993,-0.42856547236442566,-0.40334373712539673
1759485903903602400,1.2396025390625,-0.06457473337650299,-0.45514461398124695,-0.39807599782943726
1759485903913659400,1.249659423828125,-0.05981246754527092,-0.48499226570129395,-0.38211992383003235
1759485903923716400,1.25971630859375,-0.04854436591267586,-0.5211998224258423,-0.3599054515361786
1759485903933774600,1.269774658203125,-0.03422694653272629,-0.5472574830055237,-0.33393216133117676
1759485903943831600,1.27983154296875,-0.01888607256114483,-0.5678328275680542,-0.30756688117980957
1759485903953888500,1.289888427734375,-0.015490276739001274,-0.5774393677711487,-0.2805001139640808
1759485903963946200,1.2999462890625,0.013530989177525043,-0.5636652112007141,-0.2505587041378021
1759485903974003200,1.310003173828125,0.042270224541425705,-0.5296478867530823,-0.2314409464597702
1759485903984060200,1.32006005859375,0.05018433928489685,-0.48053279519081116,-0.2232155054807663
1759485903994118400,1.330118408203125,0.05812349170446396,-0.4540380835533142,-0.23405510187149048
1759485904004175400,1.34017529296875,0.08001413941383362,-0.451366126537323,-0.26714247465133667
1759485904014233300,1.3502333984375,0.09515021741390228,-0.47469648718833923,-0.32176896929740906
1759485904024290300,1.360290283203125,0.08938953280448914,-0.5213990211486816,-0.36678358912467957
1759485904034347300,1.37034716796875,0.06843791157007217,-0.6075922250747681,-0.39030197262763977
1759485904044405500,1.380405517578125,0.053525276482105255,-0.7103875875473022,-0.40739706158638
1759485904054462500,1.39046240234375,0.07422816008329391,-0.7664622664451599,-0.42935508489608765
1759485904064519400,1.40051953125,0.08803211897611618,-0.7262714505195618,-0.47653353214263916
1759485904074577400,1.410577392578125,0.08791361004114151,-0.6316637396812439,-0.5151935815811157
1759485904084634400,1.42063427734375,0.10392240434885025,-0.4953674077987671,-0.5253468751907349
1759485904094691300,1.43069140625,0.11777377128601074,-0.28975990414619446,-0.5110739469528198
1759485904104749600,1.44074951171875,0.1322091668844223,-0.03972264379262924,-0.4813469350337982
1759485904114806500,1.450806640625,0.17029769718647003,0.22882865369319916,-0.3964192569255829
1759485904124863500,1.460863525390625,0.1370079219341278,0.47210922837257385,-0.36638784408569336
1759485904134921200,1.470921142578125,0.10813472419977188,0.6253589391708374,-0.3604319393634796
1759485904144978200,1.480978271484375,0.12461064010858536,0.6745256781578064,-0.370562881231308
1759485904155035100,1.49103515625,0.14430977404117584,0.6296240091323853,-0.39016827940940857
1759485904165093400,1.50109326171875,0.121182881295681,0.5457445383071899,-0.4369395077228546
1759485904175150300,1.511150390625,0.09104654937982559,0.46300598978996277,-0.4872996211051941
1759485904185207300,1.521207275390625,0.054669901728630066,0.40090107917785645,-0.507472813129425
1759485904195265300,1.531265380859375,0.018642393872141838,0.3315414488315582,-0.4919353723526001
1759485904205322200,1.541322265625,-0.017352625727653503,0.23732733726501465,-0.4575427770614624
1759485904215379500,1.55137939453125,-0.051001932471990585,0.157353937625885,-0.42094722390174866
1759485904225437400,1.5614375,-0.08768084645271301,0.09929622709751129,-0.39333105087280273
1759485904235494400,1.571494384765625,-0.1286192238330841,0.06451854109764099,-0.3746263384819031
1759485904245551400,1.58155126953125,-0.15141083300113678,0.05839007347822189,-0.3619707226753235
1759485904255609300,1.591609375,-0.12368625402450562,0.0987449511885643,-0.3534632623195648
1759485904265666300,1.601666259765625,-0.07363107800483704,0.14181199669837952,-0.3696741759777069
1759485904275723300,1.61172314453125,-0.027768779546022415,0.14878468215465546,-0.4010547399520874
1759485904285781500,1.621781494140625,0.004574245307594538,0.15884584188461304,-0.4329908490180969
1759485904295838500,1.63183837890625,0.05128715559840202,0.15071973204612732,-0.44713887572288513
1759485904305896200,1.641896240234375,0.11102905124425888,0.12080897390842438,-0.4558282494544983
1759485904315953200,1.651953125,0.15232935547828674,0.13535356521606445,-0.4959927201271057
1759485904326010000,1.662010009765625,0.16303445398807526,0.11095687747001648,-0.5191802978515625
1759485904336068400,1.672068359375,0.16297107934951782,0.11541048437356949,-0.5385052561759949
1759485904346125300,1.682125244140625,0.17520536482334137,0.14013180136680603,-0.571142852306366
1759485904356182300,1.692182373046875,0.18934595584869385,0.18872198462486267,-0.581083357334137
1759485904366240300,1.702240234375,0.15816646814346313,0.13282541930675507,-0.5558602809906006
1759485904376297200,1.712297119140625,0.09936174005270004,0.12251153588294983,-0.5613980889320374
1759485904386354200,1.722354248046875,0.0536818690598011,0.0991944968700409,-0.546854555606842
1759485904396412400,1.732412353515625,0.04148352891206741,0.0017014936311170459,-0.521234393119812
1759485904406469400,1.742469482421875,0.02304033748805523,-0.09759579598903656,-0.5124086737632751
1759485904416526300,1.7525263671875,0.010299243032932281,-0.1974816471338272,-0.524136483669281
1759485904426584300,1.762584228515625,0.019232017919421196,-0.2855569124221802,-0.5237841010093689
1759485904436641300,1.772641357421875,0.056831326335668564,-0.33692875504493713,-0.48874226212501526
1759485904446698200,1.7826982421875,0.03863101452589035,-0.33013954758644104,-0.3993074595928192
1759485904456756500,1.792756591796875,0.024999892339110374,-0.18849614262580872,-0.2996293306350708
1759485904466813400,1.8028134765625,0.00598545465618372,0.13946335017681122,-0.28043779730796814
1759485904476870400,1.812870361328125,0.014007162302732468,0.42644479870796204,-0.348367840051651
1759485904486928100,1.82292822265625,0.055261656641960144,0.3745613396167755,-0.47740092873573303
1759485904496985000,1.832985107421875,0.04267662391066551,0.05434339866042137,-0.6095685362815857
1759485904507042300,1.843042236328125,-0.012428173795342445,-0.26169338822364807,-0.7087302803993225
1759485904517100300,1.853100341796875,-0.05385098233819008,-0.45160794258117676,-0.8064746856689453
1759485904527157200,1.8631572265625,-0.13696104288101196,-0.373365581035614,-0.8974711894989014
1759485904537214200,1.873214111328125,-0.20568391680717468,-0.14613430202007294,-0.9891478419303894
1759485904547272200,1.883272216796875,-0.25356143712997437,0.07652460038661957,-1.0579612255096436
1759485904557329200,1.8933291015625,-0.32470911741256714,0.2853683531284332,-1.1542675495147705
1759485904567386400,1.903386474609375,-0.39287298917770386,0.28544291853904724,-1.2315466403961182
1759485904577444400,1.9134443359375,-0.4635487496852875,0.1005721464753151,-1.2661572694778442
1759485904587501300,1.923501220703125,-0.548269510269165,-0.05645102635025978,-1.2529866695404053
1759485904597558300,1.933558349609375,-0.6117512583732605,-0.1699719876050949,-1.2838069200515747
1759485904607615200,1.943615234375,-0.7223758101463318,-0.3152748644351959,-1.2823210954666138
1759485904617673500,1.953673583984375,-0.8408419489860535,-0.41374126076698303,-1.2404810190200806
1759485904627730400,1.96373046875,-0.8985018134117126,-0.35933205485343933,-1.2382819652557373
1759485904637787400,1.973787353515625,-0.8594998121261597,-0.27829208970069885,-1.1925941705703735
1759485904647845400,1.983845458984375,-0.8210623860359192,-0.05338812246918678,-1.1280399560928345
1759485904657902300,1.99390234375,-0.8302074670791626,0.16015984117984772,-1.0921069383621216
1759485904667959300,2.003959228515625,-0.8471614122390747,0.24296177923679352,-1.0282760858535767
1759485904678017300,2.014017333984375,-0.8487779498100281,0.21862901747226715,-0.9416535496711731
1759485904688074200,2.02407421875,-0.8036149740219116,0.2671731114387512,-0.9204590320587158
1759485904698131200,2.034131103515625,-0.7638502717018127,0.3279706835746765,-0.8896446824073792
1759485904708189200,2.044189208984375,-0.6787540316581726,0.3382726013660431,-0.8536691069602966
1759485904718246100,2.05424609375,-0.6437243819236755,0.412442147731781,-0.7179226875305176
1759485904728303000,2.06430322265625,-0.6433592438697815,0.53080153465271,-0.4521472156047821
1759485904738361300,2.074361328125,-0.6208693981170654,0.7474923133850098,-0.0895589143037796
1759485904748418300,2.084418212890625,-0.49938157200813293,0.7267436385154724,0.34083935618400574
1759485904758475300,2.094475341796875,-0.33324748277664185,0.5835771560668945,0.7786840796470642
1759485904768533200,2.104533203125,-0.2077755630016327,0.4168459475040436,1.3354655504226685
1759485904778590200,2.114590087890625,-0.06754442304372787,0.4092136025428772,1.9901288747787476
1759485904788647200,2.124647216796875,0.1794871985912323,0.5315224528312683,2.589250326156616
1759485904798705400,2.134705322265625,0.5193233489990234,0.7038342952728271,3.042644500732422
1759485904808762400,2.144762451171875,0.7955636978149414,0.730806291103363,3.379265308380127
1759485904818819300,2.1548193359375,0.987842857837677,0.7489488124847412,3.6830389499664307
1759485904828877300,2.164877197265625,1.0029813051223755,0.6227831244468689,3.837873697280884
1759485904838934300,2.174934326171875,0.9003910422325134,0.18740051984786987,3.795968770980835
1759485904848991500,2.184991455078125,0.7679176926612854,-0.4682026207447052,3.7203617095947266
1759485904859049200,2.19504931640625,0.6301664710044861,-0.9453838467597961,3.8120744228363037
1759485904869106200,2.205106201171875,0.38523638248443604,-1.4631694555282593,4.03996467590332
1759485904879163400,2.215163330078125,0.020478377118706703,-1.7713440656661987,4.19463586807251
1759485904889221000,2.22522119140625,-0.32313892245292664,-1.646103024482727,4.219301700592041
1759485904899278300,2.2352783203125,-0.5298635959625244,-1.3920177221298218,4.189681053161621
1759485904909335300,2.245335205078125,-0.24710965156555176,-0.8149597644805908,4.126370906829834
1759485904919392300,2.255392333984375,0.010685134679079056,0.2984636425971985,3.977658987045288
1759485904929450200,2.2654501953125,0.5119130611419678,1.375781774520874,3.7465062141418457
1759485904939507200,2.275507080078125,1.033643126487732,1.8507184982299805,3.7345144748687744
1759485904949564200,2.285564208984375,1.3812596797943115,1.3940691947937012,3.8225769996643066
1759485904959622400,2.295622314453125,1.455788254737854,0.4620227515697479,4.0263800621032715
1759485904969679400,2.305679443359375,1.3945528268814087,-0.2905029356479645,4.213929176330566
1759485904979736300,2.315736328125,1.1594401597976685,-0.5129839181900024,4.427396774291992
1759485904989794300,2.325794189453125,1.143258810043335,-0.8669081926345825,4.356513500213623
1759485904999851300,2.335851318359375,1.300692081451416,-1.2825802564620972,4.115739345550537
1759485905009908200,2.345908203125,1.2522468566894531,-2.1384758949279785,3.889894485473633
1759485905019966500,2.355966552734375,1.1884196996688843,-3.691969394683838,3.799788475036621
1759485905030023400,2.3660234375,1.0374895334243774,-5.199060916900635,3.888880729675293
1759485905040080400,2.376080322265625,0.6385149955749512,-5.2649102210998535,3.5834646224975586
1759485905050138000,2.38613818359375,0.5681390762329102,-4.0305304527282715,3.1343190670013428
1759485905060195300,2.3961953125,0.40332961082458496,-3.1860241889953613,2.5761826038360596
1759485905070252300,2.406252197265625,0.42645063996315,-2.6097145080566406,1.8749051094055176
1759485905080309500,2.4163095703125,0.512496292591095,-2.1907527446746826,1.093408226966858
1759485905090367200,2.4263671875,0.5263192057609558,-2.0814292430877686,0.38932591676712036
1759485905100424200,2.436424072265625,0.38942259550094604,-1.6128252744674683,-0.10617277771234512
1759485905110481200,2.446481201171875,0.11222107708454132,-0.776764988899231,-0.325398325920105
1759485905120539100,2.4565390625,-0.10850730538368225,0.0062610916793346405,-0.3835119605064392
1759485905130596400,2.466596435546875,-0.31879740953445435,0.8173291683197021,-0.4922589659690857
1759485905140653300,2.4766533203125,-0.494781494140625,1.2922488451004028,-0.5644002556800842
1759485905150711300,2.486711181640625,-0.5201928615570068,1.5961259603500366,-0.6486709117889404
1759485905160768300,2.496768310546875,-0.22790613770484924,2.000580072402954,-0.7380055785179138
1759485905170825200,2.5068251953125,0.22053183615207672,2.4431304931640625,-0.8489470481872559
1759485905180883500,2.516883544921875,0.5752230882644653,2.540065288543701,-1.041650414466858
1759485905190940400,2.5269404296875,0.7272014021873474,2.4441983699798584,-1.3010481595993042
1759485905200997400,2.536997314453125,0.8251485228538513,2.483332872390747,-1.559272289276123
1759485905211054300,2.547054443359375,0.9369171261787415,2.8734028339385986,-1.5950676202774048
1759485905221112300,2.5571123046875,0.9221187233924866,3.1162030696868896,-1.3492780923843384
1759485905231169300,2.567169189453125,0.6094141006469727,2.997777223587036,-1.7696958780288696
1759485905241226200,2.577226318359375,0.35020753741264343,3.748211622238159,-2.584049940109253
1759485905251284500,2.587284423828125,0.23530758917331696,3.8322763442993164,-2.6556453704833984
1759485905261341700,2.597341796875,0.15113411843776703,3.8840384483337402,-2.3823022842407227
1759485905271398700,2.607398681640625,-1.4987155199050903,2.381681203842163,-3.9235355854034424
1759485905281456400,2.617456298828125,-3.2261691093444824,1.7664036750793457,-5.862844467163086
1759485905291513300,2.627513427734375,-3.9515230655670166,1.21415114402771,-5.902613162994385
1759485905301570300,2.6375703125,-3.928133249282837,0.39563149213790894,-4.88449764251709
1759485905311627300,2.647627197265625,-3.300025463104248,-0.27870407700538635,-3.754412889480591
1759485905321685500,2.657685546875,-2.6205098628997803,-1.187544822692871,-3.067521572113037
1759485905331742500,2.667742431640625,-2.116600513458252,-2.5087852478027344,-2.7453362941741943
1759485905341799400,2.67779931640625,-1.9012207984924316,-3.6041409969329834,-2.7348132133483887
1759485905351857400,2.687857421875,-1.5485506057739258,-4.054274082183838,-3.1793646812438965
1759485905361914400,2.697914306640625,-0.819415271282196,-3.615151882171631,-4.080471038818359
1759485905371971600,2.7079716796875,0.6657902598381042,-2.7807507514953613,-5.609817981719971
1759485905382029600,2.718029541015625,2.750068426132202,-0.8092451691627502,-7.5191650390625
1759485905392086500,2.72808642578125,3.1608614921569824,1.9451984167099,-8.2669677734375
1759485905402143500,2.7381435546875,2.362436056137085,5.1045637130737305,-6.974390029907227
1759485905412200400,2.748200439453125,1.1748641729354858,6.092026710510254,-4.535608291625977
1759485905422258700,2.7582587890625,0.41766035556793213,4.036357402801514,-3.280573606491089
1759485905432315600,2.768315673828125,0.3177012801170349,1.2099984884262085,-3.2343411445617676
1759485905442372600,2.77837255859375,0.37179112434387207,-1.5179810523986816,-2.5145599842071533
1759485905452430600,2.7884306640625,0.10287018865346909,-3.5340943336486816,-1.2905853986740112
1759485905462487600,2.798487548828125,-0.5587314367294312,-3.9661240577697754,-0.1533069908618927
1759485905472544500,2.80854443359375,-1.2415289878845215,-3.135005474090576,0.8579016327857971
1759485905482602500,2.8186025390625,-1.3939874172210693,-2.062629461288452,1.5461589097976685
1759485905492659500,2.828659423828125,-1.0930083990097046,-0.964297890663147,1.9778751134872437
1759485905502716400,2.83871630859375,-0.8001763224601746,0.12462128698825836,2.2395663261413574
1759485905512773600,2.848773681640625,-0.5796308517456055,0.9637905359268188,2.288893938064575
1759485905522831400,2.858831298828125,-0.41743266582489014,1.4384571313858032,2.2429893016815186
1759485905532888300,2.868888427734375,-0.3731336295604706,1.4767316579818726,2.0453193187713623
1759485905542945300,2.8789453125,-0.35832327604293823,1.4267587661743164,2.046060562133789
1759485905553003500,2.88900341796875,-0.2798343002796173,1.215367078781128,2.3030810356140137
1759485905563060500,2.899060546875,-0.049494314938783646,0.8956788778305054,2.6991002559661865
1759485905573117400,2.909117431640625,0.24450455605983734,0.6151484251022339,3.2124078273773193
1759485905583174400,2.91917431640625,0.5867455005645752,0.48063504695892334,3.767059803009033
1759485905593232400,2.929232421875,0.8689218163490295,0.5168260931968689,4.2570953369140625
1759485905603289600,2.93928955078125,1.1082097291946411,0.2636396288871765,4.580400466918945
1759485905613346600,2.9493466796875,1.3139512538909912,-0.22947366535663605,4.948323726654053
1759485905623404500,2.959404541015625,1.1766189336776733,-0.3750758767127991,5.193593502044678
1759485905633461500,2.96946142578125,1.0722259283065796,-0.21669262647628784,5.052511692047119
1759485905643518500,2.9795185546875,1.285141944885254,-0.505164384841919,4.730496406555176
1759485905653575400,2.989575439453125,1.5417680740356445,-0.8871048092842102,4.464001178741455
1759485905663633700,2.999633544921875,1.3158081769943237,-0.7489445209503174,4.152972221374512
1759485905673690600,3.009690673828125,0.3200182318687439,0.2138552963733673,3.6561334133148193
1759485905683747600,3.01974755859375,-0.7690055966377258,2.7919938564300537,2.788907527923584
1759485905693805600,3.0298056640625,0.4338372051715851,4.727383613586426,2.2308928966522217
1759485905703862500,3.039862548828125,1.9243911504745483,4.845239162445068,1.8581106662750244
1759485905713919500,3.04991943359375,2.296348810195923,3.4249649047851562,1.7768030166625977
1759485905723976700,3.059976806640625,1.9707673788070679,0.8670754432678223,2.132972002029419
1759485905734034400,3.070034423828125,1.3711721897125244,-2.01334810256958,2.8580827713012695
1759485905744091400,3.08009130859375,0.7574245929718018,-4.496722221374512,3.7454984188079834
1759485905754148600,3.090148681640625,0.554848849773407,-6.706737518310547,4.158685207366943
1759485905764206300,3.100206298828125,0.7400615811347961,-6.549119472503662,3.457035779953003
1759485905774263300,3.11026318359375,0.8686970472335815,-5.984524726867676,2.4387598037719727
1759485905784320500,3.120320556640625,0.870231568813324,-4.7493062019348145,1.4835740327835083
1759485905794377500,3.13037744140625,0.8827268481254578,-3.282820224761963,0.6210366487503052
1759485905804435500,3.140435546875,0.725350022315979,-2.329796314239502,-0.027169568464159966
1759485905814492400,3.150492431640625,0.534531831741333,-1.7789005041122437,-0.48028671741485596
1759485905824549400,3.16054931640625,0.336788147687912,-1.5040239095687866,-0.5892534255981445
1759485905834606300,3.1706064453125,0.21400123834609985,-0.9612240195274353,-0.5104227662086487
1759485905844664600,3.18066455078125,0.24466806650161743,-0.057380203157663345,-0.41191643476486206
1759485905854721500,3.190721435546875,0.36950987577438354,1.0162146091461182,-0.3820088803768158
1759485905864778500,3.200778564453125,0.580929160118103,2.0757033824920654,-0.554324209690094
1759485905874836500,3.21083642578125,0.8339414596557617,3.0517642498016357,-0.9141218066215515
1759485905884893400,3.2208935546875,1.0052697658538818,3.4150140285491943,-1.1611318588256836
1759485905894950400,3.230950439453125,1.0425807237625122,3.266127109527588,-1.181653618812561
1759485905905007600,3.241007568359375,0.9057512283325195,2.4926161766052246,-0.944058895111084
1759485905915065600,3.251065673828125,0.6414068937301636,1.7280231714248657,-0.622251033782959
1759485905925122600,3.26112255859375,0.4745715856552124,1.3001930713653564,-0.477516233921051
1759485905935179500,3.271179443359375,0.36505812406539917,0.8184618353843689,-0.48831695318222046
1759485905945236500,3.281236572265625,0.3432111442089081,0.3882675766944885,-0.48692944645881653
1759485905955294700,3.291294677734375,0.4535978436470032,0.3674105107784271,-0.6474844813346863
1759485905965351700,3.3013515625,0.6668856143951416,0.276415079832077,-1.0099793672561646
1759485905975408600,3.31140869140625,1.0711225271224976,1.0189110040664673,-0.5853811502456665
1759485905985466400,3.32146630859375,0.8832560181617737,1.0895311832427979,-1.375320553779602
1759485905995523300,3.3315234375,-0.08687817305326462,-0.08179393410682678,-1.9109448194503784
1759485906005580500,3.34158056640625,-1.647960901260376,2.313377618789673,-2.394080877304077
1759485906015637500,3.351637451171875,-3.4363112449645996,5.450161457061768,-3.2587952613830566
1759485906025695500,3.361695556640625,-3.7017462253570557,5.238450527191162,-3.409771680831909
1759485906035752400,3.37175244140625,-2.577697515487671,3.26295804977417,-2.9092977046966553
1759485906045809400,3.381809326171875,-1.3036361932754517,1.8489784002304077,-2.5907883644104004
1759485906055866400,3.391866455078125,-0.9046856760978699,0.7645347118377686,-2.8037984371185303
1759485906065924400,3.40192431640625,-1.188907265663147,-0.5989342927932739,-3.0536422729492188
1759485906075981600,3.411981689453125,-1.5449836254119873,-2.019747257232666,-3.2192342281341553
1759485906086038500,3.42203857421875,-1.359699010848999,-3.3488292694091797,-3.8027150630950928
1759485906096095500,3.432095458984375,-0.6345204710960388,-4.925557613372803,-5.12923002243042
1759485906106153500,3.442153564453125,0.37965118885040283,-3.9199187755584717,-7.37444543838501
1759485906116210400,3.45221044921875,1.0948917865753174,-1.5026534795761108,-8.190918922424316
1759485906126267400,3.462267333984375,0.9250412583351135,1.8267756700515747,-7.713964462280273
1759485906136325600,3.47232568359375,0.10554879903793335,4.982750415802002,-5.922643184661865
1759485906146382600,3.482382568359375,-0.6135382652282715,5.834752559661865,-3.6776950359344482
1759485906156439600,3.492439453125,-0.8935267329216003,4.284400939941406,-2.9094767570495605
1759485906166496500,3.50249658203125,-0.8982852697372437,2.0630338191986084,-3.2876322269439697
1759485906176554500,3.512554443359375,-0.5451741218566895,0.35972434282302856,-3.0744450092315674
1759485906186611500,3.522611572265625,-0.16605395078659058,-0.029203159734606743,-2.1742324829101562
1759485906196668400,3.53266845703125,-0.09350810945034027,-0.4163282513618469,-1.1603094339370728
1759485906206725600,3.5427255859375,-0.3959513306617737,-1.3764140605926514,-0.2973257005214691
1759485906216783600,3.55278369140625,-0.7786459922790527,-1.8159565925598145,0.6976088881492615
1759485906226840600,3.562840576171875,-1.1192259788513184,-1.4693701267242432,1.4075884819030762
1759485906236897500,3.5728974609375,-1.1645076274871826,-0.5145626664161682,1.8970506191253662
1759485906246954500,3.58295458984375,-0.937781035900116,0.23269475996494293,2.180037021636963
1759485906257012500,3.593012451171875,-0.5678008794784546,0.9728655219078064,2.293086290359497
1759485906267069400,3.6030693359375,-0.29344627261161804,1.5002946853637695,2.274491310119629
1759485906277126400,3.61312646484375,-0.2063867300748825,1.6991372108459473,2.2620253562927246
1759485906287183400,3.623183349609375,-0.15797658264636993,1.531280279159546,2.3589847087860107
1759485906297241000,3.633240966796875,-0.09896785765886307,1.2831975221633911,2.7417168617248535
1759485906307298300,3.64329833984375,-0.004640824627131224,0.6047862768173218,3.199852705001831
1759485906317355300,3.653355224609375,0.059608470648527145,-0.17517341673374176,3.67299222946167
1759485906327412500,3.66341259765625,0.09111286699771881,-1.0833086967468262,4.084148406982422
1759485906337470200,3.67347021484375,0.24069437384605408,-2.0308074951171875,4.268407344818115
1759485906347527200,3.683527099609375,0.6421664357185364,-2.5055720806121826,4.067525386810303
1759485906357584100,3.693584228515625,0.9438274502754211,-1.964545488357544,3.661341905593872
1759485906367641000,3.70364111328125,0.7185855507850647,-1.680240273475647,3.781507968902588
1759485906377699000,3.713698974609375,0.794245183467865,-1.5212966203689575,4.152891635894775
1759485906387756300,3.72375634765625,1.1945675611495972,-1.034317135810852,4.5762739181518555
1759485906397813200,3.733813232421875,1.650648832321167,-0.38147786259651184,4.90012264251709
1759485906407870200,3.7438701171875,1.8702183961868286,-0.1867525726556778,4.811363697052002
1759485906417928200,3.75392822265625,0.9359650015830994,1.3427791595458984,4.067690849304199
1759485906427985200,3.763985107421875,0.08083786070346832,3.599497079849243,2.946704864501953
1759485906438042000,3.7740419921875,0.4552071988582611,4.324270725250244,2.2419676780700684
1759485906448099000,3.78409912109375,1.0404914617538452,3.226809024810791,1.8200322389602661
1759485906458157300,3.7941572265625,1.519683837890625,0.9947500228881836,1.8064721822738647
1759485906468214300,3.80421435546875,1.5514529943466187,-1.6129381656646729,2.126494884490967
1759485906478271200,3.814271240234375,1.2909140586853027,-4.370909214019775,2.607059955596924
1759485906488328200,3.824328125,1.2055920362472534,-5.877673149108887,2.7209060192108154
1759485906498386200,3.83438623046875,1.4995887279510498,-6.4402618408203125,2.3963770866394043
1759485906508443400,3.844443359375,1.597248911857605,-6.160759925842285,1.8564552068710327
1759485906518500400,3.854500244140625,1.1996688842773438,-4.490462303161621,1.2093998193740845
1759485906528557300,3.864557373046875,0.7386069297790527,-2.4687952995300293,0.7173565030097961
1759485906538615300,3.874615234375,0.5309078097343445,-1.3552770614624023,0.30114519596099854
1759485906548672300,3.88467236328125,0.474793404340744,-0.9032843112945557,-0.10401082038879395
1759485906558729200,3.894729248046875,0.4767899811267853,-1.1474053859710693,-0.24735413491725922
1759485906568786200,3.9047861328125,0.2256869226694107,-0.6190429925918579,-0.17649434506893158
1759485906578844400,3.914844482421875,0.09407589584589005,0.13017238676548004,0.01167343370616436
1759485906588901400,3.9249013671875,0.004476773552596569,1.115010142326355,0.02377297356724739
1759485906598958300,3.934958251953125,0.08878233283758163,2.134241819381714,-0.17557847499847412
1759485906609015300,3.945015380859375,0.09251368790864944,3.0874691009521484,-0.5022072196006775
1759485906619072300,3.955072265625,0.16870087385177612,3.139953374862671,-0.6431110501289368
1759485906629130200,3.965130126953125,0.24721963703632355,2.6558752059936523,-0.5916531682014465
1759485906639187500,3.9751875,0.33329275250434875,2.0017998218536377,-0.3775422275066376
1759485906649244400,3.985244384765625,0.3704656660556793,0.9699275493621826,-0.021762553602457047
1759485906659301400,3.99530126953125,0.34873640537261963,0.2409934401512146,0.24389734864234924
1759485906669359000,4.005359130859375,0.39675188064575195,0.0866110548377037,0.23657019436359406
1759485906679416000,4.015416015625,0.5679073929786682,-0.037158288061618805,0.22947660088539124
1759485906689473300,4.025473388671875,0.761967122554779,0.5888781547546387,-0.19572103023529053
1759485906699530200,4.0355302734375,1.0731276273727417,2.4012367725372314,-0.9710484743118286
1759485906709588200,4.045588134765625,1.6225780248641968,4.107710361480713,-1.1097620725631714
1759485906719645200,4.055645263671875,1.6117382049560547,3.0493900775909424,-2.340818166732788
1759485906729702100,4.0657021484375,-0.08334788680076599,1.1872563362121582,-3.119143486022949
1759485906739759000,4.075759033203125,-3.0535500049591064,4.31308650970459,-4.079067230224609
1759485906749817000,4.085817138671875,-5.7773332595825195,6.347566604614258,-4.5243821144104
1759485906759874300,4.095874267578125,-5.577991962432861,4.637048721313477,-3.94702410697937
1759485906769931300,4.10593115234375,-3.6360857486724854,2.3957862854003906,-2.8972952365875244
1759485906779988200,4.11598828125,-2.121671438217163,0.7123804092407227,-2.4152157306671143
1759485906790045200,4.126045166015625,-1.4896039962768555,0.017307084053754807,-2.5767006874084473
1759485906800103200,4.136103271484375,-1.4551416635513306,-0.7776014804840088,-2.8952760696411133
1759485906810160000,4.14616015625,-1.6920793056488037,-1.4473118782043457,-3.043635368347168
1759485906820217000,4.156217041015625,-1.8903833627700806,-1.4983106851577759,-3.3129541873931885
1759485906830274300,4.1662744140625,-1.5606054067611694,-1.5229501724243164,-3.655534505844116
1759485906840332300,4.176332275390625,-0.7402935028076172,-1.5505571365356445,-4.716059684753418
1759485906850389200,4.18638916015625,0.18113543093204498,-1.9172089099884033,-5.8669114112854
1759485906860446200,4.1964462890625,0.8260473012924194,-1.2151671648025513,-6.5102009773254395
1759485906870503200,4.206503173828125,0.8391761779785156,1.1658339500427246,-6.646859169006348
1759485906880561400,4.2165615234375,-0.12592943012714386,4.8483757972717285,-5.491334915161133
1759485906890618400,4.226618408203125,-1.0454246997833252,6.7940850257873535,-3.7032010555267334
1759485906900675300,4.23667529296875,-1.3095958232879639,6.1797566413879395,-2.810647964477539
1759485906910732300,4.246732177734375,-1.1434284448623657,3.4249470233917236,-2.6698811054229736
1759485906920789200,4.256789306640625,-0.8030019402503967,0.1613052636384964,-2.415179491043091
1759485906930847200,4.26684716796875,-0.2924145460128784,-1.6529356241226196,-1.9313361644744873
1759485906940904200,4.276904296875,0.08280567079782486,-2.155242443084717,-0.8439964652061462
1759485906950961400,4.28696142578125,-0.0688946470618248,-2.3069052696228027,0.12729297578334808
1759485906961018400,4.297018310546875,-0.4208495020866394,-2.0957138538360596,0.7938323616981506
1759485906971076400,4.307076416015625,-0.676263153553009,-1.4615217447280884,1.2315807342529297
1759485906981133300,4.31713330078125,-0.7674449682235718,-0.844749391078949,1.5141348838806152
1759485906991190300,4.327190185546875,-0.7091204524040222,-0.6274929642677307,1.6717029809951782
1759485907001247200,4.337247314453125,-0.5395537614822388,-0.643470287322998,1.7442610263824463
1759485907011304200,4.34730419921875,-0.35370561480522156,-0.43997952342033386,1.8649752140045166
1759485907021362400,4.357362548828125,-0.21634162962436676,-0.08943454176187515,2.0615010261535645
1759485907031419400,4.36741943359375,-0.09773348271846771,0.3505162000656128,2.3542873859405518
1759485907041476400,4.377476318359375,-0.037512753158807755,0.7407723665237427,2.827118396759033
1759485907051533300,4.387533203125,0.020198212936520576,0.7850929498672485,3.282680034637451
1759485907061591000,4.397591064453125,0.13120222091674805,0.6974842548370361,3.6109626293182373
1759485907071648300,4.407648193359375,0.3238816559314728,0.4398798942565918,3.8160619735717773
1759485907081705200,4.417705322265625,0.5381955504417419,-0.5469940900802612,4.065755844116211
1759485907091762400,4.427762451171875,0.78729647397995,-1.0180572271347046,4.5293660163879395
1759485907101819400,4.4378193359375,0.8942785859107971,-0.6972949504852295,4.5273661613464355
1759485907111877000,4.447877197265625,0.9991596937179565,-0.829210102558136,3.9398889541625977
1759485907121934000,4.45793408203125,1.3791334629058838,-0.7829581499099731,3.8651609420776367
1759485907131991000,4.467990966796875,1.7072631120681763,-0.7838742733001709,3.9519143104553223
1759485907142048300,4.47804833984375,2.0702297687530518,-1.1602306365966797,4.365869522094727
1759485907152105200,4.488105224609375,2.0226540565490723,-0.777804970741272,4.584149360656738
1759485907162163200,4.4981630859375,1.0593665838241577,2.191145658493042,3.7759978771209717
1759485907172220200,4.50822021484375,0.31777051091194153,5.452942848205566,2.648102283477783
1759485907182277000,4.518277099609375,1.096619963645935,5.871151447296143,2.097404718399048
1759485907192334000,4.528333984375,2.098573923110962,3.856733560562134,1.5300291776657104
1759485907202391000,4.53839111328125,2.2906320095062256,1.1074457168579102,1.3061695098876953
1759485907212449300,4.54844921875,2.015191078186035,-2.3426365852355957,1.6896787881851196
1759485907222506200,4.55850634765625,1.4914698600769043,-5.094921112060547,2.409233808517456
1759485907232563200,4.568563232421875,1.3568696975708008,-7.143032550811768,2.983286142349243
1759485907242620200,4.5786201171875,1.2422595024108887,-6.4697184562683105,2.7642979621887207
1759485907252678400,4.588678466796875,0.9312373995780945,-4.908545970916748,2.264235258102417
1759485907262735400,4.5987353515625,0.5744869709014893,-3.411268949508667,1.7825332880020142
1759485907272792300,4.608792236328125,0.26740002632141113,-2.2687389850616455,1.2916573286056519
1759485907282849300,4.618849365234375,0.4357730448246002,-2.2200698852539062,0.8894574642181396
1759485907292906200,4.62890625,0.5890925526618958,-2.2308449745178223,0.4790169298648834
1759485907302964500,4.638964599609375,0.3989875912666321,-2.2379956245422363,0.3315899074077606
1759485907313021400,4.649021484375,0.1929662525653839,-1.8487483263015747,0.3417975604534149
1759485907323078400,4.659078369140625,0.10533201694488525,-0.9627199172973633,0.31406712532043457
1759485907333135400,4.66913525390625,0.21059025824069977,0.4372124969959259,0.027477962896227837
1759485907343192300,4.6791923828125,0.293338418006897,1.913204550743103,-0.48168912529945374
1759485907353250300,4.689250244140625,0.44415321946144104,2.7207796573638916,-0.8990922570228577
1759485907363307500,4.6993076171875,0.45256319642066956,2.7686619758605957,-0.9856399297714233
1759485907373364500,4.709364501953125,0.36577051877975464,2.324697494506836,-0.8136553764343262
1759485907383421400,4.71942138671875,0.36458221077919006,1.8211536407470703,-0.5107953548431396
1759485907393478400,4.729478515625,0.43147897720336914,1.2267321348190308,-0.2351808249950409
1759485907403536400,4.739536376953125,0.4811442494392395,0.7478816509246826,-0.02774640917778015
1759485907413593300,4.74959326171875,0.5682490468025208,0.4865555465221405,0.31050968170166016
1759485907423650300,4.759650390625,0.9315521717071533,0.4051080644130707,0.9054521322250366
1759485907433707500,4.76970751953125,1.0123380422592163,1.1946070194244385,0.09858143329620361
1759485907443764500,4.779764404296875,0.8931352496147156,1.888401746749878,-1.0672327280044556
1759485907453822500,4.789822509765625,0.8601400256156921,2.549818992614746,-1.625321388244629
1759485907463879400,4.79987939453125,0.9759068489074707,1.9005515575408936,-2.3414552211761475
1759485907473936400,4.809936279296875,0.7241896390914917,0.7239579558372498,-3.4305832386016846
1759485907483993300,4.819993408203125,-0.6412630677223206,1.3584505319595337,-3.4912285804748535
1759485907494050300,4.83005029296875,-3.8617634773254395,4.815890789031982,-3.3796308040618896
1759485907504108500,4.840108642578125,-7.276885032653809,6.5330095291137695,-2.8393869400024414
1759485907514165500,4.85016552734375,-6.316880702972412,5.206974506378174,-1.7639042139053345
1759485907524222500,4.860222412109375,-3.032519578933716,2.895827054977417,-0.8971047401428223
1759485907534279400,4.870279541015625,-1.4027063846588135,0.39753618836402893,-1.0552732944488525
1759485907544336400,4.88033642578125,-0.9679269790649414,-1.0398170948028564,-1.5965567827224731
1759485907554394400,4.890394287109375,-1.0437290668487549,-2.0191144943237305,-1.9852041006088257
1759485907564451600,4.90045166015625,-1.2183517217636108,-2.454556941986084,-2.294464588165283
1759485907574508500,4.910508544921875,-1.2269004583358765,-2.191995620727539,-2.548086643218994
1759485907584565500,4.9205654296875,-0.7643405199050903,-1.94064462184906,-2.930422067642212
1759485907594622500,4.93062255859375,0.011657455004751682,-1.6370917558670044,-4.248814105987549
1759485907604680200,4.94068017578125,0.6583245992660522,-1.3789030313491821,-5.728053569793701
1759485907614737200,4.950737060546875,0.7087529301643372,-1.2086511850357056,-6.2889790534973145
1759485907624794400,4.96079443359375,-0.16453514993190765,0.6259405612945557,-6.060138702392578
1759485907634851300,4.970851318359375,-1.263088345527649,3.4146347045898438,-5.129033088684082
1759485907644908500,4.980908447265625,-1.6364600658416748,4.749454975128174,-3.961604118347168
1759485907654965500,4.990965576171875,-1.4584940671920776,3.8237667083740234,-3.213045835494995
1759485907665023200,5.001023193359375,-1.1875988245010376,0.9852553606033325,-2.6392061710357666
1759485907675080200,5.011080078125,-1.1288015842437744,-0.9609092473983765,-2.3721017837524414
1759485907685137200,5.02113720703125,-1.0760997533798218,-2.158698558807373,-1.751826286315918
1759485907695194400,5.0311943359375,-0.9801449775695801,-2.938109874725342,-0.7112504243850708
1759485907705251300,5.041251220703125,-1.0032151937484741,-3.209043264389038,0.30640652775764465
1759485907715309300,5.051309326171875,-1.2129337787628174,-2.713129758834839,0.874112606048584
1759485907725366300,5.0613662109375,-1.4262382984161377,-1.691300630569458,1.2228572368621826
1759485907735423200,5.07142333984375,-1.4816621541976929,-0.6897909641265869,1.4581230878829956
1759485907745480200,5.081480224609375,-1.2250871658325195,-0.18175168335437775,1.5985666513442993
1759485907755537200,5.091537109375,-0.7947527766227722,-0.04019535705447197,1.6388767957687378
1759485907765595400,5.101595458984375,-0.37919339537620544,0.09517338871955872,1.7369905710220337
1759485907775652400,5.11165234375,-0.03152410313487053,0.4421007037162781,1.9650880098342896
1759485907785709300,5.121709228515625,0.25411856174468994,0.8906529545783997,2.3493919372558594
1759485907795766300,5.131766357421875,0.47987526655197144,1.1802890300750732,2.8558621406555176
1759485907805823200,5.1418232421875,0.7088629007339478,1.3508245944976807,3.3192873001098633
1759485907815880200,5.151880126953125,0.955786406993866,1.2896194458007812,3.676959753036499
1759485907825938400,5.1619384765625,1.1648703813552856,0.612972617149353,3.8951237201690674
1759485907835995400,5.171995361328125,1.2485551834106445,-0.776465117931366,4.160925388336182
1759485907846052400,5.18205224609375,1.3243799209594727,-1.706994891166687,4.4101386070251465
1759485907856109300,5.192109375,1.5091012716293335,-1.443977952003479,4.213074684143066
1759485907866166300,5.202166259765625,1.5392711162567139,-0.8398464918136597,3.4821670055389404
1759485907876224300,5.212224365234375,1.9531314373016357,-0.6042656302452087,3.2532429695129395
1759485907886281500,5.222281494140625,2.3830513954162598,-0.2767847180366516,3.6028859615325928
1759485907896338400,5.23233837890625,2.323469638824463,-0.0405128039419651,3.437985420227051
1759485907906395400,5.2423955078125,2.0917108058929443,0.17823977768421173,3.229607105255127
1759485907916452400,5.252452392578125,1.1182059049606323,2.1480095386505127,2.62580943107605
1759485907926509300,5.26250927734375,0.7821691036224365,4.250111103057861,1.9133890867233276
1759485907936567300,5.2725673828125,2.0989551544189453,4.736501216888428,1.301045536994934
1759485907946624300,5.282624267578125,3.179429292678833,3.286592721939087,0.8359068632125854
1759485907956681500,5.292681396484375,3.1256496906280518,0.8642050623893738,0.8269668817520142
1759485907966738400,5.302738525390625,2.669178009033203,-1.7381517887115479,1.11081063747406
1759485907976795400,5.31279541015625,2.094984531402588,-3.77023983001709,1.7002261877059937
1759485907986852400,5.322852294921875,1.6763041019439697,-6.069385528564453,2.4600460529327393
1759485907996910300,5.332910400390625,1.5169589519500732,-8.247642517089844,2.877730369567871
1759485908006967300,5.34296728515625,1.0982213020324707,-7.75392484664917,2.3209972381591797
1759485908017024300,5.353024169921875,0.8488724827766418,-6.404547214508057,1.5573670864105225
1759485908027081500,5.36308154296875,0.7405396103858948,-5.071847915649414,1.1149696111679077
1759485908037138400,5.373138427734375,0.5494162440299988,-3.1130316257476807,0.5963512659072876
1759485908047195400,5.3831953125,0.430033415555954,-1.840061902999878,0.07781250774860382
1759485908057253400,5.39325341796875,0.12617790699005127,-1.6199119091033936,-0.24724547564983368
1759485908067310300,5.403310302734375,0.11995090544223785,-1.782541036605835,-0.4198875427246094
1759485908077367300,5.4133671875,0.14106471836566925,-1.5495493412017822,-0.40900054574012756
1759485908087424300,5.42342431640625,0.15590038895606995,-0.6235426664352417,-0.3818531036376953
1759485908097481500,5.4334814453125,0.3520086407661438,0.3992006480693817,-0.4268152415752411
1759485908107538400,5.443538330078125,0.6244441866874695,1.608453631401062,-0.596470057964325
1759485908117596400,5.453596435546875,0.7216793894767761,2.5753116607666016,-0.7563092708587646
1759485908127653400,5.4636533203125,0.7741596102714539,3.031980037689209,-0.8060984015464783
1759485908137710300,5.47371044921875,0.7236261367797852,3.0522544384002686,-0.7536159753799438
1759485908147767300,5.483767333984375,0.6231719851493835,2.945661783218384,-0.643387496471405
1759485908157824300,5.49382421875,0.46189945936203003,2.6621570587158203,-0.2938454747200012
1759485908167881500,5.503881591796875,0.3517273962497711,2.4144418239593506,0.06846161186695099
1759485908177939500,5.513939453125,0.36500993371009827,2.3406364917755127,0.07765724509954453
1759485908187996400,5.523996337890625,0.4517672061920166,2.24501895904541,-0.4734700918197632
1759485908198053400,5.534053466796875,0.4422386586666107,1.7348805665969849,-1.2842696905136108
1759485908208110300,5.5441103515625,0.6373162865638733,1.241348385810852,-1.8993043899536133
1759485908218167300,5.554167236328125,0.9244556427001953,2.1038568019866943,-1.514297366142273
1759485908228224300,5.564224365234375,0.6600194573402405,1.5937519073486328,-1.910212516784668
1759485908238282500,5.574282470703125,-0.4698393940925598,1.3344876766204834,-2.272430896759033
1759485908248339500,5.58433935546875,-2.612151861190796,4.250857353210449,-2.900421380996704
1759485908258396000,5.59439599609375,-4.691805839538574,5.739978790283203,-2.937803030014038
1759485908268452900,5.604452880859375,-5.197927951812744,5.0443902015686035,-1.928392767906189
1759485908278509800,5.614509765625,-4.532994270324707,3.2179219722747803,-1.2028627395629883
1759485908288566800,5.62456689453125,-3.6063520908355713,2.0086615085601807,-1.0193496942520142
1759485908298623700,5.634623779296875,-3.083919048309326,1.0647329092025757,-1.381808876991272
1759485908308682000,5.644681884765625,-3.059293746948242,-0.2176755964756012,-1.7559256553649902
1759485908318739000,5.654739013671875,-3.1301345825195312,-1.9217849969863892,-2.204402208328247
1759485908328796000,5.6647958984375,-2.659022331237793,-4.001853942871094,-2.9842159748077393
1759485908338852900,5.674852783203125,-1.4810054302215576,-7.0733442306518555,-4.536662578582764
1759485908348909800,5.684909912109375,0.1382657289505005,-7.951408863067627,-7.579234600067139
1759485908358966800,5.694966796875,1.5888112783432007,-4.950965404510498,-9.767499923706055
1759485908369025000,5.70502490234375,1.634003758430481,0.30286240577697754,-9.385443687438965
1759485908379082000,5.71508203125,0.8211135268211365,6.583877086639404,-6.546020984649658
1759485908389139000,5.725138916015625,0.38388508558273315,9.101297378540039,-3.804996967315674
1759485908399196000,5.73519580078125,-0.15278448164463043,7.249417304992676,-3.3494091033935547
1759485908409252900,5.7452529296875,-0.1570844203233719,2.2687432765960693,-2.9089207649230957
1759485908419309800,5.755309814453125,0.06299867480993271,-1.5763123035430908,-2.3292694091796875
1759485908429366800,5.76536669921875,0.0951363667845726,-3.4840781688690186,-1.2871965169906616
1759485908439425000,5.775425048828125,-0.4664851427078247,-3.5034713745117188,-0.678945779800415
1759485908449482000,5.78548193359375,-1.078304648399353,-3.665745258331299,0.25168949365615845
1759485908459539000,5.7955390625,-1.6045407056808472,-2.7967898845672607,1.1392310857772827
1759485908469596000,5.805595947265625,-1.6639659404754639,-1.1743805408477783,1.6985342502593994
1759485908479652900,5.81565283203125,-1.3555394411087036,0.08860470354557037,1.9216339588165283
1759485908489709800,5.825709716796875,-0.9739075899124146,0.7204322218894958,1.9069143533706665
1759485908499766800,5.835766845703125,-0.6585839986801147,0.9293843507766724,1.9191089868545532
1759485908509825000,5.845824951171875,-0.3816309869289398,0.8404624462127686,1.9009188413619995
1759485908519882000,5.855882080078125,-0.15925650298595428,0.6260702610015869,1.959017038345337
1759485908529939000,5.86593896484375,0.04364441707730293,0.5625941157341003,2.2677621841430664
1759485908539996000,5.875995849609375,0.2330939769744873,0.4122448265552521,2.7056257724761963
1759485908550052900,5.886052978515625,0.42123883962631226,0.4528100788593292,3.3198392391204834
1759485908560109800,5.89610986328125,0.6734822988510132,0.6755377054214478,3.991637945175171
1759485908570166800,5.906166748046875,1.0258853435516357,0.6552345752716064,4.641829013824463
1759485908580225000,5.91622509765625,1.3372637033462524,0.33786246180534363,5.3324666023254395
1759485908590282000,5.926281982421875,1.5571284294128418,-0.29936912655830383,5.852482795715332
1759485908600339000,5.9363388671875,1.7295185327529907,-1.0188825130462646,5.142738342285156
1759485908610396000,5.94639599609375,1.4311089515686035,-1.5376290082931519,3.4191813468933105
1759485908620452900,5.956452880859375,1.3499219417572021,-1.0421521663665771,3.232574462890625
1759485908630509800,5.966509765625,1.327743411064148,-0.45505407452583313,3.7302086353302
1759485908640566800,5.97656689453125,1.1794592142105103,0.2132507562637329,3.6657767295837402
1759485908650623700,5.986623779296875,0.4799005687236786,1.4623878002166748,3.3420543670654297
1759485908660682000,5.996681884765625,-0.9621545672416687,3.455995559692383,2.8058695793151855
1759485908670739000,6.006739013671875,-0.8599070310592651,5.360029220581055,2.1729471683502197
1759485908680796000,6.0167958984375,1.4476251602172852,5.822098255157471,1.8659179210662842
1759485908690852900,6.026852783203125,2.8810510635375977,4.617676734924316,1.4752967357635498
1759485908700909800,6.036909912109375,2.980257749557495,1.6505707502365112,1.5588093996047974
1759485908710966800,6.046966796875,2.7426226139068604,-1.525141954421997,1.9920679330825806
1759485908721023700,6.057023681640625,2.3434231281280518,-4.225571155548096,2.5709586143493652
1759485908731082000,6.06708203125,2.150023937225342,-6.339635848999023,2.9416823387145996
1759485908741139000,6.077138916015625,1.9280953407287598,-6.841216087341309,2.673595905303955
1759485908751196000,6.08719580078125,1.3491626977920532,-6.068612098693848,1.9669880867004395
1759485908761252900,6.0972529296875,0.752040445804596,-4.535621643066406,1.4349184036254883
1759485908771309800,6.107309814453125,0.36076509952545166,-2.8502821922302246,1.1105989217758179
1759485908781366800,6.11736669921875,0.1862979680299759,-2.0135257244110107,0.8207060694694519
1759485908791423700,6.127423828125,-0.11419874429702759,-1.8143525123596191,0.6117826700210571
1759485908801480700,6.137480712890625,-0.15973027050495148,-1.8075332641601562,0.46720021963119507
1759485908811539000,6.1475390625,-0.08380355685949326,-1.1740601062774658,0.2838658094406128
1759485908821596000,6.157595947265625,0.04608333855867386,-0.24369068443775177,0.08860176801681519
1759485908831652900,6.16765283203125,0.4212889075279236,0.7288315296173096,-0.22448183596134186
1759485908841709800,6.177709716796875,0.7253875732421875,1.787481427192688,-0.5347059965133667
1759485908851766800,6.187766845703125,0.8417112231254578,2.4343414306640625,-0.8300721645355225
1759485908861823700,6.19782373046875,0.8510684967041016,2.423307180404663,-0.9702979922294617
1759485908871880700,6.207880615234375,0.7575819492340088,2.2954888343811035,-0.8863908052444458
1759485908881938000,6.21793798828125,0.5427402257919312,1.5775551795959473,-0.6487433910369873
1759485908891996000,6.227995849609375,0.4318201243877411,0.8291469812393188,-0.4344688951969147
1759485908902052900,6.238052978515625,0.4109206795692444,0.5224980711936951,-0.29965993762016296
1759485908912109800,6.24810986328125,0.40610677003860474,0.6868523955345154,-0.11822251230478287
1759485908922166800,6.258166748046875,0.508013129234314,1.3055670261383057,0.5587618350982666
1759485908932223700,6.2682236328125,0.32829293608665466,2.158269166946411,-0.06894471496343613
1759485908942280700,6.27828076171875,0.22693701088428497,1.8466888666152954,-1.094835877418518
1759485908952338000,6.288337890625,0.5615866184234619,1.1756525039672852,-1.4769401550292969
1759485908962395000,6.298394775390625,0.39814603328704834,-0.008207862265408039,-2.08044695854187
1759485908972451800,6.308451904296875,-0.51352459192276,0.29910415410995483,-2.1281979084014893
1759485908982509800,6.318509765625,-2.777541160583496,3.0716941356658936,-2.6652913093566895
1759485908992566800,6.32856689453125,-5.263720989227295,4.388898849487305,-3.2830309867858887
1759485909002623700,6.338623779296875,-5.867079257965088,3.928680896759033,-3.16105055809021
1759485909012680700,6.3486806640625,-4.892138957977295,2.56925630569458,-2.7441518306732178
1759485909022738000,6.358738037109375,-3.583148956298828,0.9382249712944031,-2.7444090843200684
1759485909032795000,6.368794921875,-2.5047740936279297,-0.5070799589157104,-3.085649251937866
1759485909042851800,6.378851806640625,-1.9596127271652222,-1.7853418588638306,-3.1627705097198486
1759485909052908800,6.38890869140625,-1.699147343635559,-2.925198554992676,-3.171015501022339
1759485909062966800,6.398966796875,-1.400878667831421,-3.745029926300049,-3.5740575790405273
1759485909073023700,6.409023681640625,-0.9952142238616943,-3.968838930130005,-4.65366792678833
1759485909083080700,6.419080810546875,-0.3720627725124359,-3.184816598892212,-6.338919162750244
1759485909093138000,6.429137939453125,0.5476266145706177,-2.048077344894409,-7.120591640472412
1759485909103195000,6.43919482421875,0.5332085490226746,0.570393443107605,-6.862979412078857
1759485909113251800,6.449251953125,-0.19874797761440277,3.763561725616455,-5.7582221031188965
1759485909123308800,6.459308837890625,-0.6068994998931885,5.298487663269043,-4.119228839874268
1759485909133365800,6.46936572265625,-0.6893672347068787,5.627020359039307,-3.2418582439422607
1759485909143422700,6.479422607421875,-0.6488147377967834,3.7371432781219482,-2.967996835708618
1759485909153480000,6.48947998046875,-0.4574764668941498,0.8056594729423523,-2.554624319076538
1759485909163538000,6.499537841796875,-0.11031904816627502,-1.2587555646896362,-1.7010890245437622
1759485909173595000,6.509594970703125,-0.052810218185186386,-2.126040458679199,-0.5507007241249084
1759485909183651800,6.51965185546875,-0.4334278702735901,-2.419553518295288,0.22202347218990326
1759485909193708800,6.529708740234375,-0.74970543384552,-2.3389108180999756,0.7950894236564636
1759485909203765800,6.539765869140625,-0.9138698577880859,-1.6525920629501343,1.2393534183502197
1759485909213822700,6.54982275390625,-0.7512300610542297,-0.9134453535079956,1.4892463684082031
1759485909223880000,6.5598798828125,-0.48858433961868286,-0.8056608438491821,1.5862998962402344
1759485909233937000,6.56993701171875,-0.3197287321090698,-0.7766368985176086,1.745102047920227
1759485909243993900,6.579993896484375,-0.23343032598495483,-0.289937287569046,1.9340146780014038
1759485909254050800,6.59005078125,-0.24474316835403442,0.5205087065696716,2.118670701980591
1759485909264108500,6.600108642578125,-0.2968694865703583,1.1008365154266357,2.4175262451171875
1759485909274165500,6.61016552734375,-0.2824205160140991,1.0332494974136353,2.837867021560669
1759485909284222700,6.62022265625,-0.15572302043437958,0.5424656867980957,3.2706332206726074
1759485909294280000,6.630280029296875,0.0354304276406765,-0.10542149841785431,3.583481550216675
1759485909304337000,6.6403369140625,0.26290565729141235,-0.875535249710083,3.7359797954559326
1759485909314393900,6.650393798828125,0.5028719305992126,-1.8581128120422363,3.8384644985198975
1759485909324450800,6.660450927734375,0.8445796966552734,-2.497528314590454,3.8636651039123535
1759485909334507800,6.6705078125,1.1085379123687744,-1.969642996788025,4.016582012176514
1759485909344564700,6.680564697265625,1.4562511444091797,-1.17792546749115,3.6052849292755127
1759485909354621700,6.69062158203125,2.0510342121124268,-1.012128472328186,3.656597852706909
1759485909364679000,6.700678955078125,2.358006477355957,-0.483155220746994,4.093837738037109
1759485909374737000,6.71073681640625,2.133230209350586,-0.2014409750699997,4.537962913513184
1759485909384793900,6.7207939453125,1.116044521331787,0.6526014804840088,4.43134069442749
1759485909394850800,6.730850830078125,-0.10410243272781372,2.7892117500305176,3.5713322162628174
1759485909404907800,6.74090771484375,-0.08771467208862305,4.835145950317383,2.590557813644409
1759485909414964700,6.75096484375,1.080345869064331,4.931171417236328,2.0233309268951416
1759485909425021700,6.761021728515625,2.0844156742095947,3.723215341567993,1.458714246749878
1759485909435079000,6.771078857421875,2.3767523765563965,1.3764896392822266,1.2221951484680176
1759485909445136000,6.781135986328125,2.15164852142334,-1.4914114475250244,1.605901837348938
1759485909455192800,6.79119287109375,1.781164526939392,-3.9227683544158936,2.1605708599090576
1759485909465249800,6.801249755859375,1.331092119216919,-5.979377269744873,2.6163973808288574
1759485909475306800,6.811306640625,1.198829174041748,-6.1183295249938965,2.2972986698150635
1759485909485364700,6.82136474609375,1.1348997354507446,-4.935638427734375,1.584073781967163
1759485909495421700,6.831421630859375,0.8525993227958679,-4.048763751983643,1.02333402633667
1759485909505479000,6.84147900390625,0.5498202443122864,-2.3856756687164307,0.5103447437286377
1759485909515536000,6.851535888671875,0.4730847179889679,-1.251806616783142,-0.024158865213394165
1759485909525592800,6.8615927734375,0.4316273033618927,-1.2496294975280762,-0.3880004584789276
1759485909535649800,6.87164990234375,0.2084256410598755,-1.4247589111328125,-0.5670554637908936
1759485909545706800,6.881706787109375,0.2632124722003937,-1.4557749032974243,-0.5905258655548096
1759485909555763700,6.891763671875,0.20609377324581146,-1.2175562381744385,-0.43562284111976624
1759485909565820700,6.901820556640625,0.11545176059007645,-0.30593541264533997,-0.38944336771965027
1759485909575877600,6.911877685546875,0.15758536756038666,0.7254692912101746,-0.4392673671245575
1759485909585934600,6.9219345703125,0.22171881794929504,1.463034987449646,-0.5502431392669678
1759485909595991800,6.93199169921875,0.22280271351337433,1.7824747562408447,-0.5455480217933655
1759485909606048800,6.942048828125,0.2589476704597473,1.9690481424331665,-0.564569354057312
1759485909616106800,6.952106689453125,0.328533411026001,1.8463261127471924,-0.49385178089141846
1759485909626163700,6.962163818359375,0.4003570079803467,1.4818328619003296,-0.28973835706710815
1759485909636220700,6.972220703125,0.4809756875038147,1.2185977697372437,-0.175306037068367
1759485909646277600,6.982277587890625,0.5207483768463135,1.0860613584518433,-0.22553591430187225
1759485909656334600,6.99233447265625,0.5928500294685364,0.9152528047561646,-0.43504175543785095
1759485909666391800,7.002391845703125,1.1164230108261108,0.43500393629074097,0.05825664848089218
1759485909676448800,7.01244873046875,1.655133605003357,3.84478759765625,0.16616447269916534
1759485909686505700,7.022505615234375,1.0289537906646729,4.284768581390381,-1.3338197469711304
1759485909696562700,7.032562744140625,-0.011795406229794025,1.0099585056304932,-1.3977457284927368
1759485909706619600,7.04261962890625,-1.0078413486480713,1.5755658149719238,-1.168053388595581
1759485909716676600,7.052676513671875,-2.327754497528076,2.372476577758789,-1.615485429763794
1759485909726733600,7.062733642578125,-3.313642740249634,1.877185583114624,-2.264007568359375
1759485909736790800,7.072790771484375,-3.2596373558044434,1.5251867771148682,-2.5085678100585938
1759485909746847700,7.08284765625,-2.358825445175171,2.0554006099700928,-2.4564199447631836
1759485909756905700,7.09290576171875,-1.6950005292892456,2.239814043045044,-2.3721494674682617
1759485909766962700,7.102962646484375,-1.6551114320755005,1.8616139888763428,-2.4836018085479736
1759485909777019600,7.11301953125,-1.9741605520248413,0.9725880026817322,-2.6758930683135986
1759485909787076600,7.12307666015625,-2.507983684539795,-0.3445456624031067,-2.93157696723938
1759485909797133600,7.133133544921875,-2.6475231647491455,-3.163517951965332,-3.519432783126831
1759485909807190800,7.143190673828125,-1.6958343982696533,-8.000146865844727,-5.342335224151611
1759485909817247700,7.153247802734375,0.23039858043193817,-10.081113815307617,-7.293868541717529
1759485909827305000,7.163304931640625,1.5009775161743164,-6.613161563873291,-9.464005470275879
1759485909837362000,7.17336181640625,1.0453548431396484,1.2970023155212402,-9.309488296508789
1759485909847419000,7.1834189453125,0.3998512625694275,7.131615161895752,-6.202813148498535
1759485909857475800,7.193475830078125,0.03839292749762535,7.441807270050049,-3.881685733795166
1759485909867532800,7.20353271484375,-0.46006107330322266,5.234071254730225,-3.2397947311401367
1759485909877589800,7.21358984375,-0.6448514461517334,1.412916898727417,-3.124643564224243
1759485909887646700,7.223646728515625,-0.8363732099533081,-1.547316074371338,-2.4041426181793213
1759485909897703700,7.23370361328125,-1.2682678699493408,-2.3390839099884033,-1.6545209884643555
1759485909907761000,7.243760986328125,-1.6559327840805054,-2.16927170753479,-0.4783253073692322
1759485909917817900,7.25381787109375,-1.7567640542984009,-1.6556895971298218,0.6423086524009705
1759485909927875800,7.263875732421875,-1.3921139240264893,-1.2204934358596802,1.3699119091033936
1759485909937932800,7.273932861328125,-0.8490439653396606,-0.45207399129867554,1.9067543745040894
1759485909947989800,7.28398974609375,-0.4635881781578064,0.7670755982398987,2.1800568103790283
1759485909958046700,7.294046630859375,-0.12211152911186218,1.7555131912231445,2.177401542663574
1759485909968103700,7.304103759765625,0.18511313199996948,2.158538818359375,1.964920163154602
1759485909978161000,7.314160888671875,0.34253525733947754,1.9782676696777344,1.7679674625396729
1759485909988217900,7.3242177734375,0.37578800320625305,1.4208984375,1.7538894414901733
1759485909998274800,7.33427490234375,0.2884592115879059,0.8059937357902527,2.2085065841674805
1759485910008331800,7.344331787109375,0.167962908744812,-0.10330082476139069,2.8396453857421875
1759485910018388700,7.354388671875,0.2455064356327057,-1.111574411392212,3.319091558456421
1759485910028445700,7.36444580078125,0.4910394847393036,-2.0721077919006348,3.359241008758545
1759485910038502700,7.374502685546875,0.7939940690994263,-2.542426347732544,3.0298681259155273
1759485910048559600,7.3845595703125,0.8663691878318787,-2.7887308597564697,3.22202467918396
1759485910058616600,7.394616455078125,0.6859192252159119,-3.341529607772827,3.671757698059082
1759485910068673800,7.404673828125,0.4937378168106079,-3.4431517124176025,4.227880001068115
1759485910078730800,7.414730712890625,0.33135131001472473,-3.042356014251709,4.973719596862793
1759485910088787700,7.42478759765625,0.3065601885318756,-2.2990901470184326,5.7155961990356445
1759485910098844700,7.4348447265625,0.3528358042240143,-1.3194679021835327,5.755794048309326
1759485910108901600,7.444901611328125,0.11114037036895752,-0.2737087905406952,5.409003734588623
1759485910118959600,7.454959716796875,-0.2490692138671875,1.5337109565734863,4.9086384773254395
1759485910129016600,7.4650166015625,-0.2313820868730545,3.8187992572784424,4.277307033538818
1759485910139073800,7.47507373046875,0.2589908242225647,5.41420841217041,3.3965282440185547
1759485910149130800,7.485130859375,0.7083979249000549,4.512670040130615,2.6114978790283203
1759485910159187700,7.495187744140625,0.9812829494476318,1.6654304265975952,2.271268129348755
1759485910169244700,7.50524462890625,1.2282930612564087,-2.228651762008667,2.5343360900878906
1759485910179301600,7.515301513671875,1.5419018268585205,-3.9032061100006104,2.6523003578186035
1759485910189358600,7.525358642578125,1.9178181886672974,-4.060105800628662,2.1310839653015137
1759485910199415800,7.535415771484375,2.1093857288360596,-4.787501811981201,1.9559173583984375
1759485910209472800,7.54547265625,1.6614573001861572,-3.739969253540039,1.610022783279419
1759485910219530000,7.555530029296875,0.7458640933036804,-1.8408243656158447,1.2780576944351196
1759485910229587000,7.5655869140625,0.4084719121456146,-0.5778532028198242,0.9759971499443054
1759485910239644000,7.575643798828125,0.3608740270137787,-0.29526785016059875,0.5177222490310669
1759485910249700900,7.585700927734375,0.48428839445114136,-0.7524210214614868,0.04362337663769722
1759485910259757800,7.5957578125,0.27033960819244385,-1.3229364156723022,-0.03309696540236473
1759485910269815000,7.60581494140625,-0.0284058079123497,-1.3811163902282715,0.17882834374904633
1759485910279872000,7.6158720703125,-0.12511850893497467,-0.9576162695884705,0.2923240065574646
1759485910289929000,7.625928955078125,-0.21925778687000275,-0.10902448743581772,0.1026771068572998
1759485910299986000,7.63598583984375,-0.3152892291545868,0.7136043906211853,-0.23075439035892487
1759485910310043000,7.64604296875,-0.3757496476173401,1.0295599699020386,-0.568824291229248
1759485910320099800,7.656099853515625,-0.3460117280483246,1.278253436088562,-0.7712101936340332
1759485910330156800,7.66615673828125,-0.23177944123744965,1.5339810848236084,-0.7719598412513733
1759485910340213800,7.6762138671875,-0.0880528911948204,1.7249083518981934,-0.6884849071502686
1759485910350271000,7.68627099609375,-0.005156146362423897,1.8583027124404907,-0.5982050895690918
1759485910360328000,7.696327880859375,0.0405583456158638,2.136159896850586,-0.5761336088180542
1759485910370385000,7.706385009765625,0.15505243837833405,2.318309783935547,-0.7674569487571716
1759485910380443000,7.71644287109375,0.546786367893219,2.205791711807251,-0.5141181945800781
1759485910390499800,7.726499755859375,1.1404787302017212,3.3681583404541016,0.23582717776298523
1759485910400556800,7.736556884765625,1.4138660430908203,3.911543130874634,-0.7043884992599487
1759485910410613800,7.74661376953125,1.3052988052368164,4.387845993041992,-0.915958046913147
1759485910420671000,7.7566708984375,0.6882787942886353,1.5799086093902588,-2.272752046585083
1759485910430728000,7.76672802734375,-0.3829364776611328,0.3230273127555847,-2.4520983695983887
1759485910440785000,7.776784912109375,-2.539755344390869,3.3376684188842773,-2.7364919185638428
1759485910450841900,7.786841796875,-5.16494607925415,4.881663799285889,-3.21010160446167
1759485910460898800,7.79689892578125,-5.330852508544922,3.552727222442627,-2.729825735092163
1759485910470955800,7.806955810546875,-3.6258249282836914,1.1903542280197144,-2.0465445518493652
1759485910481012700,7.8170126953125,-2.467092990875244,-0.6069431900978088,-2.055210828781128
1759485910491069700,7.827069580078125,-2.05475115776062,-1.8010753393173218,-2.427530288696289
1759485910501126700,7.837126708984375,-1.8631112575531006,-3.3337440490722656,-2.6736600399017334
1759485910511184000,7.847183837890625,-1.394812822341919,-4.456791400909424,-3.2321479320526123
1759485910521240800,7.85724072265625,-0.3036786615848541,-5.409196376800537,-4.594265937805176
1759485910531298000,7.867298095703125,0.9082378149032593,-4.925104141235352,-7.237126350402832
1759485910541355000,7.87735498046875,1.6360278129577637,-2.9047482013702393,-8.56433391571045
1759485910551412000,7.887411865234375,1.4265978336334229,0.6535069942474365,-7.846479415893555
1759485910561469000,7.897468994140625,0.30411142110824585,5.596671104431152,-5.836414337158203
1759485910571526000,7.90752587890625,-0.5698501467704773,7.576624870300293,-3.950153112411499
1759485910581582800,7.917582763671875,-0.5734280943870544,5.760293960571289,-3.223728895187378
1759485910591639800,7.927639892578125,-0.28928452730178833,2.331209182739258,-2.7427334785461426
1759485910601697000,7.937697021484375,0.22724087536334991,-0.46989452838897705,-2.1427671909332275
1759485910611754000,7.94775390625,0.6547671556472778,-1.2625700235366821,-1.5374386310577393
1759485910621811000,7.95781103515625,0.6387155055999756,-1.141080617904663,-0.6151819229125977
1759485910631868000,7.967867919921875,0.04272110015153885,-1.4030858278274536,0.0153752276673913
1759485910641924900,7.9779248046875,-0.48429104685783386,-1.8500620126724243,0.772879958152771
1759485910651981800,7.98798193359375,-0.7687185406684875,-1.9672437906265259,1.1789944171905518
1759485910662038800,7.998038818359375,-0.9229956865310669,-1.6742143630981445,1.4485106468200684
1759485910672095700,8.008095703125,-0.9007380604743958,-1.306744933128357,1.65006422996521
1759485910682153000,8.018153076171876,-0.7986660003662109,-1.1079634428024292,1.785881757736206
1759485910692210000,8.0282099609375,-0.6926676630973816,-1.0444161891937256,1.8232762813568115
1759485910702267000,8.038266845703125,-0.5910326838493347,-0.7794944643974304,1.8820228576660156
1759485910712323800,8.04832373046875,-0.5029819011688232,-0.32678478956222534,2.1077799797058105
1759485910722380800,8.058380859375,-0.3712688982486725,0.23841656744480133,2.517622232437134
1759485910732437800,8.068437744140626,-0.20608925819396973,0.7032814621925354,2.921069383621216
1759485910742494700,8.07849462890625,-0.11488956958055496,0.9203831553459167,3.2538962364196777
1759485910752551700,8.0885517578125,-0.003600327530875802,0.9842843413352966,3.364168167114258
1759485910762608600,8.098608642578125,0.20487192273139954,0.6331785321235657,3.205299139022827
1759485910772665900,8.108665771484375,0.5038653016090393,-0.5142971277236938,2.979004144668579
1759485910782723000,8.11872314453125,0.8381457924842834,-1.8492894172668457,2.9589591026306152
1759485910792780000,8.128780029296875,0.9005207419395447,-1.8127002716064453,3.2082371711730957
1759485910802837000,8.1388369140625,0.8236254453659058,-1.9655406475067139,3.748197078704834
1759485910812894000,8.14889404296875,1.0952023267745972,-2.0595221519470215,4.267749309539795
1759485910822951000,8.158950927734375,1.468286395072937,-1.5430437326431274,4.670629978179932
1759485910833007900,8.1690078125,1.3052901029586792,-0.9707110524177551,4.966618537902832
1759485910843064800,8.17906494140625,0.21503427624702454,0.900339663028717,4.590928554534912
1759485910853121800,8.189121826171874,-1.0636845827102661,3.653215169906616,3.4333808422088623
1759485910863179000,8.199178955078125,-0.8388664126396179,5.039172172546387,2.7245445251464844
1759485910873236000,8.209236083984376,0.4592868983745575,4.61508321762085,2.2713136672973633
1759485910883293000,8.21929296875,1.643693208694458,3.7853755950927734,1.5273939371109009
1759485910893350000,8.229349853515625,1.8063446283340454,1.0169177055358887,1.3465144634246826
1759485910903406800,8.23940673828125,1.3533819913864136,-1.8284664154052734,1.4390867948532104
1759485910913463800,8.2494638671875,0.9938182234764099,-4.376247882843018,1.8832098245620728
1759485910923520800,8.259520751953126,0.9056156277656555,-5.054459571838379,1.936527967453003
1759485910933577700,8.26957763671875,1.2305748462677002,-4.797307968139648,1.4907573461532593
1759485910943635000,8.279635009765625,1.2595481872558594,-4.291348457336426,0.9349844455718994
1759485910953692000,8.28969189453125,0.9854372143745422,-2.9291412830352783,0.3203479051589966
1759485910963748900,8.299748779296875,0.6341828107833862,-1.201833724975586,-0.24199292063713074
1759485910973805800,8.309805908203124,0.6013582944869995,-0.7247923612594604,-0.6452674269676208
1759485910983862800,8.31986279296875,0.37095943093299866,-1.1171958446502686,-0.7908563017845154
1759485910993919700,8.329919677734376,0.178780660033226,-1.035861849784851,-0.7141937613487244
1759485911003976700,8.339976806640625,0.27436259388923645,-0.9635873436927795,-0.5530996918678284
1759485911014034000,8.350033935546875,0.27280837297439575,-0.7730466723442078,-0.3095400035381317
1759485911024091000,8.3600908203125,0.1776677370071411,-0.3600202202796936,0.0051897019147872925
1759485911034148000,8.370148193359375,0.18070267140865326,0.23485645651817322,0.25789785385131836
1759485911044205000,8.380205078125,0.23606738448143005,0.7418791651725769,0.33469516038894653
1759485911054262000,8.390261962890625,0.25212544202804565,1.1376075744628906,0.23965705931186676
1759485911064319000,8.400319091796876,0.29013383388519287,1.5698401927947998,0.005553489550948143
1759485911074376000,8.4103759765625,0.4200814366340637,1.8330599069595337,-0.2608600854873657
1759485911084433000,8.420432861328125,0.5466241836547852,1.8052724599838257,-0.41619881987571716
1759485911094489900,8.43048974609375,0.6203508973121643,1.6035265922546387,-0.5016599297523499
1759485911104546800,8.440546875,0.5931914448738098,1.4650315046310425,-0.6089794635772705
1759485911114603800,8.450603759765626,0.5308532118797302,1.5245907306671143,-0.7365832328796387
1759485911124661000,8.460660888671875,0.564030110836029,1.6244754791259766,-0.8028764724731445
1759485911134718000,8.470718017578125,0.7210806608200073,2.050994873046875,-1.0744638442993164
1759485911144775000,8.48077490234375,0.9871275424957275,2.8645055294036865,-1.635623812675476
1759485911154832000,8.490831787109375,1.548518180847168,3.09242844581604,-1.0224908590316772
1759485911164888800,8.500888916015626,1.3681819438934326,1.1417675018310547,-1.0409268140792847
1759485911174945800,8.51094580078125,-0.22907419502735138,0.4305037260055542,-1.1613597869873047
1759485911185002800,8.521002685546875,-2.435943126678467,3.1459410190582275,-1.5906232595443726
1759485911195059700,8.531059814453124,-3.248821258544922,3.7533819675445557,-1.2816979885101318
1759485911205117000,8.541116943359375,-2.2543020248413086,2.4100046157836914,-0.7048700451850891
1759485911215174000,8.551173828125,-1.0764400959014893,1.758617639541626,-0.6537341475486755
1759485911225230800,8.56123095703125,-0.6982765793800354,1.4986190795898438,-1.2593755722045898
1759485911235287800,8.571287841796876,-1.128085970878601,1.1416378021240234,-2.162153959274292
1759485911245344800,8.5813447265625,-1.9328503608703613,0.39537423849105835,-2.6100680828094482
1759485911255402800,8.59140283203125,-2.7151856422424316,-0.765702486038208,-2.834111452102661
1759485911265459700,8.601459716796874,-3.0587942600250244,-1.8895636796951294,-3.3917629718780518
1759485911275516700,8.6115166015625,-2.439133644104004,-4.868030548095703,-4.514389514923096
1759485911285573600,8.62157373046875,-0.8416308164596558,-7.514387130737305,-5.5299763679504395
1759485911295630600,8.631630615234375,0.4609324634075165,-7.235043048858643,-6.603785514831543
1759485911305687600,8.6416875,0.6615632772445679,-2.872987985610962,-7.386619567871094
1759485911315744500,8.65174462890625,0.1088617667555809,4.150771617889404,-6.238774299621582
1759485911325801700,8.6618017578125,-0.2567540407180786,6.6444597244262695,-4.269762992858887
1759485911335859000,8.67185888671875,-0.5137762427330017,5.420515060424805,-3.082859992980957
1759485911345916000,8.681916015625,-0.37783917784690857,3.037367105484009,-2.684166669845581
1759485911355972900,8.691972900390626,0.06484104692935944,0.8676853179931641,-2.5006296634674072
1759485911366029800,8.70202978515625,0.38367095589637756,-0.3095487952232361,-1.966194748878479
1759485911376086800,8.712086669921876,0.40455707907676697,-0.5953810811042786,-1.176566243171692
1759485911386143700,8.722143798828125,0.03928215801715851,-0.8424782156944275,-0.6707466840744019
1759485911396200700,8.73220068359375,-0.521385133266449,-1.2880370616912842,-0.129486083984375
1759485911406257700,8.742257568359374,-0.9687520265579224,-1.5313307046890259,0.46599459648132324
1759485911416315000,8.75231494140625,-1.2253366708755493,-1.187633752822876,0.9998326897621155
1759485911426371800,8.762371826171876,-1.2386223077774048,-0.40885379910469055,1.46945321559906
1759485911436427800,8.772427734375,-1.0675411224365234,0.23539920151233673,1.8720232248306274
1759485911446484700,8.782484619140625,-0.8153200745582581,0.5185901522636414,2.1453938484191895
1759485911456541700,8.792541748046874,-0.4988414943218231,0.7004590034484863,2.275059938430786
1759485911466598700,8.8025986328125,-0.2192138433456421,0.648550808429718,2.3227291107177734
1759485911476655600,8.812655517578126,-0.026701917871832848,0.44284507632255554,2.323882579803467
1759485911486712600,8.822712646484375,0.03580087423324585,0.2856631875038147,2.432966947555542
1759485911496769800,8.832769775390625,0.05415937677025795,-0.07236314564943314,2.494842529296875
1759485911506826800,8.84282666015625,0.16197025775909424,-0.6028968095779419,2.426051378250122
1759485911516884000,8.852884033203125,0.35028210282325745,-1.5090816020965576,2.209441661834717
1759485911526941000,8.86294091796875,0.4624808132648468,-2.491537570953369,2.261678457260132
1759485911536998000,8.872997802734375,0.4669432044029236,-2.7560997009277344,2.554857015609741
1759485911547054800,8.883054931640626,0.3640301525592804,-1.5341078042984009,3.136275053024292
1759485911557111800,8.89311181640625,0.3927624523639679,-0.13210716843605042,3.5330541133880615
1759485911567168800,8.903168701171875,0.42460134625434875,-0.3577626645565033,3.971400260925293
1759485911577225700,8.913225830078124,0.6733206510543823,-1.136448621749878,4.235562324523926
1759485911587282700,8.92328271484375,0.9082561731338501,-2.1382339000701904,4.386817932128906
1759485911597339600,8.933339599609376,0.8465421795845032,-2.357691526412964,4.406216621398926
1759485911607396900,8.94339697265625,0.18169629573822021,-0.879941999912262,3.968003273010254
1759485911617453800,8.953453857421875,-0.6533778309822083,1.8124216794967651,3.1098358631134033
1759485911627510800,8.9635107421875,-0.39850690960884094,3.7053887844085693,2.6663002967834473
1759485911637567700,8.973567626953125,0.8200842142105103,3.958604574203491,2.4716153144836426
1759485911647624700,8.983624755859376,1.3807717561721802,2.6161012649536133,2.013375759124756
1759485911657681700,8.993681640625,1.3516613245010376,0.5807302594184875,1.4987112283706665
1759485911667738600,9.003738525390625,1.0782190561294556,-1.7839938402175903,1.2169584035873413
1759485911677795600,9.013795654296874,0.996809720993042,-3.3663368225097656,1.1529778242111206
1759485911687852800,9.023852783203125,1.1014552116394043,-3.7052576541900635,1.0188612937927246
1759485911697908700,9.03390869140625,1.3073809146881104,-3.9460480213165283,0.6531665921211243
1759485911707966000,9.043966064453125,1.2472981214523315,-4.774089813232422,0.6108114123344421
1759485911718023000,9.05402294921875,0.824729859828949,-4.3243818283081055,0.5962859988212585
1759485911728080000,9.064079833984374,0.4980774223804474,-2.2413032054901123,0.3523588478565216
1759485911738136800,9.07413671875,0.5035291910171509,-1.0894513130187988,0.1477694809436798
1759485911748193800,9.08419384765625,0.5943168997764587,-1.1294282674789429,0.04280046001076698
1759485911758250800,9.094250732421875,0.3439059853553772,-1.604102611541748,0.11764594167470932
1759485911768307700,9.1043076171875,0.27175667881965637,-1.0675933361053467,0.3133280873298645
1759485911778364700,9.11436474609375,0.2875819802284241,-0.3317672908306122,0.48531556129455566
1759485911788421600,9.124421630859375,0.14942224323749542,0.2859494686126709,0.6816595196723938
1759485911798478800,9.134478759765624,-0.06261544674634933,0.8472514152526855,0.769814670085907
1759485911808535800,9.144535888671875,-0.19271406531333923,1.099099040031433,0.8117477297782898
1759485911818592800,9.1545927734375,-0.20784880220890045,1.304474115371704,0.7684774994850159
1759485911828649700,9.164649658203125,-0.13134416937828064,1.5005943775177002,0.6857439875602722
1759485911838706700,9.174706787109375,0.06719475239515305,1.5854405164718628,0.5777640342712402
1759485911848763600,9.184763671875,0.27836477756500244,1.4158538579940796,0.4364577531814575
1759485911858820600,9.194820556640625,0.45312488079071045,1.3137950897216797,0.298271119594574
1759485911868877600,9.204877685546874,0.5167339444160461,1.185533881187439,0.09945708513259888
1759485911878934800,9.214934814453125,0.5277895331382751,0.8591501712799072,-0.14864273369312286
1759485911888991700,9.22499169921875,0.7525864243507385,-0.5894938707351685,0.9704638719558716
1759485911899048000,9.2350478515625,1.056957721710205,0.0687822625041008,0.9234516620635986
1759485911909105000,9.24510498046875,1.0752440690994263,2.3214404582977295,-0.1730295717716217
1759485911919161900,9.255161865234374,1.0255415439605713,3.1381449699401855,0.09641122072935104
1759485911929218800,9.26521875,0.7538676857948303,0.20382636785507202,-0.9954725503921509
1759485911939275800,9.27527587890625,-0.5539220571517944,-0.7242431640625,-1.990901231765747
1759485911949332700,9.285332763671875,-2.562572956085205,2.815566301345825,-2.100951671600342
1759485911959389700,9.2953896484375,-4.370198726654053,4.383463382720947,-1.9534920454025269
1759485911969446700,9.30544677734375,-4.111629486083984,3.9417641162872314,-1.121042251586914
1759485911979503600,9.315503662109375,-2.4771745204925537,2.668128490447998,-0.7726685404777527
1759485911989560800,9.325560791015626,-1.4213900566101074,1.7220110893249512,-1.1279648542404175
1759485911999617800,9.33561767578125,-1.1488215923309326,0.6168328523635864,-1.800633192062378
1759485912009674800,9.3456748046875,-1.317501187324524,-0.5464755892753601,-2.40720534324646
1759485912019731700,9.355731689453124,-1.413854956626892,-1.7494100332260132,-3.0744595527648926
1759485912029788700,9.36578857421875,-1.0005043745040894,-2.9065451622009277,-3.8769285678863525
1759485912039845600,9.375845703125,0.1662081480026245,-4.37113094329834,-4.816766738891602
1759485912049901800,9.38590185546875,1.1824631690979004,-5.241550445556641,-6.1967692375183105
1759485912059958800,9.395958740234375,1.4455382823944092,-3.7917351722717285,-6.957343578338623
1759485912070015700,9.406015625,1.1990631818771362,0.8342210650444031,-6.173885822296143
1759485912080072700,9.41607275390625,0.5260714888572693,5.620631694793701,-4.219302654266357
1759485912090130000,9.4261298828125,-0.08785635232925415,6.737454414367676,-2.989269971847534
1759485912100187000,9.436186767578125,-0.05134414881467819,5.226936340332031,-2.508915901184082
1759485912110243800,9.446243896484376,0.30937808752059937,2.4361565113067627,-2.3688266277313232
1759485912120300800,9.45630078125,0.5369790196418762,-0.13323581218719482,-1.9697024822235107
1759485912130357800,9.466357666015625,0.5628367066383362,-1.089071273803711,-1.4948853254318237
1759485912140414700,9.476414794921874,0.35495010018348694,-0.6510730981826782,-1.1663702726364136
1759485912150471700,9.4864716796875,0.11516173928976059,0.2099020928144455,-0.9227666854858398
1759485912160528600,9.496528564453126,-0.15814143419265747,0.28576117753982544,-0.5281482338905334
1759485912170585600,9.506585693359375,-0.5549508333206177,-0.015185344032943249,-0.19648775458335876
1759485912180642800,9.516642822265625,-0.9679229855537415,-0.301186740398407,0.06337551027536392
1759485912190698800,9.52669873046875,-1.142966628074646,-0.2341480553150177,0.43250933289527893
1759485912200755700,9.536755615234375,-1.0909689664840698,-0.06768583506345749,0.9125382900238037
1759485912210813000,9.54681298828125,-1.0244234800338745,0.021471204236149788,1.2115854024887085
1759485912220870000,9.556869873046875,-0.8859540820121765,0.32351362705230713,1.4624965190887451
1759485912230926800,9.5669267578125,-0.7083150744438171,0.5657907128334045,1.7465665340423584
1759485912240983800,9.57698388671875,-0.4708910882472992,0.5662199854850769,2.150369167327881
1759485912251040800,9.587040771484375,-0.2091553509235382,0.41474100947380066,2.5401649475097656
1759485912261096700,9.5970966796875,0.022776685655117035,0.11125887930393219,2.770246744155884
1759485912271153700,9.607153564453125,0.10477008670568466,-0.5027110576629639,2.7606189250946045
1759485912281210600,9.617210693359375,0.11241229623556137,-1.3326964378356934,2.539994478225708
1759485912291267600,9.627267578125,0.07755684107542038,-1.577939748764038,2.3034448623657227
1759485912301324500,9.637324462890625,0.10784897208213806,-1.0076106786727905,2.2027854919433594
1759485912311381500,9.647381591796876,0.45252591371536255,-0.6375988721847534,2.0845160484313965
1759485912321437700,9.657437744140625,0.8474847078323364,-0.5113242864608765,2.227848529815674
1759485912331494700,9.66749462890625,0.9908570647239685,-0.5983355641365051,2.79358172416687
1759485912341551900,9.6775517578125,1.1697375774383545,-0.3585195243358612,2.81282114982605
1759485912351608800,9.68760888671875,0.9749337434768677,-0.9603217840194702,3.108336925506592
1759485912361665800,9.697665771484376,0.9767656922340393,-2.1070621013641357,3.8445446491241455
1759485912371722800,9.70772265625,1.3894203901290894,-3.464365005493164,4.7892937660217285
1759485912381779700,9.71777978515625,1.3654911518096924,-3.405226707458496,5.2013750076293945
1759485912391836700,9.727836669921874,1.158352255821228,-1.3960928916931152,4.834939479827881
1759485912401893600,9.7378935546875,1.4716436862945557,1.6377511024475098,4.35710334777832
1759485912411950600,9.74795068359375,1.9778026342391968,4.068617343902588,3.865324020385742
1759485912422007600,9.758007568359375,2.0297372341156006,4.606133937835693,3.189682960510254
1759485912432063500,9.7680634765625,1.8066871166229248,3.670974016189575,2.464005708694458
1759485912442120400,9.778120361328124,1.33042311668396,2.1050000190734863,1.8720312118530273
1759485912452177700,9.788177734375,0.8754481673240662,0.9668153524398804,1.3173738718032837
1759485912462234600,9.798234619140626,0.5203909873962402,-0.05702413618564606,0.9600293636322021
1759485912472291600,9.80829150390625,0.09206680953502655,-1.0346546173095703,0.8332051038742065
1759485912482348800,9.818348876953126,-0.18823382258415222,-1.310235619544983,1.0003511905670166
1759485912492405800,9.82840576171875,-0.22977328300476074,-1.4642832279205322,1.4462459087371826
1759485912502462700,9.838462646484375,-0.03274063766002655,-1.2684228420257568,1.6579139232635498
1759485912512519700,9.848519775390624,0.3219042718410492,-0.8585149645805359,1.3874398469924927
1759485912522576600,9.85857666015625,0.5636870861053467,-1.2728646993637085,0.9634107947349548
1759485912532633900,9.8686337890625,0.6691232323646545,-2.388448715209961,0.4039440155029297
1759485912542689500,9.878689453125,0.7866935133934021,-3.3229408264160156,-0.22966568171977997
1759485912552746800,9.888746826171875,0.9088543057441711,-3.896479845046997,-0.8415037989616394
1759485912562803700,9.8988037109375,1.051802158355713,-4.022977828979492,-1.3653321266174316
1759485912572860700,9.908860595703125,0.9767667651176453,-3.817667245864868,-1.7844274044036865
1759485912582917600,9.918917724609376,0.623593807220459,-3.574105739593506,-2.034148693084717
1759485912592974600,9.928974609375,0.21674056351184845,-3.220982313156128,-2.1534502506256104
1759485912603031600,9.939031494140625,-0.08486748486757278,-2.661308526992798,-2.1985387802124023
1759485912613088500,9.949088623046874,-0.4301756024360657,-1.9370286464691162,-2.2015862464904785
1759485912623145500,9.9591455078125,-0.7332835793495178,-1.0011045932769775,-2.130038022994995
1759485912633202400,9.969202392578126,-0.944643497467041,0.20897053182125092,-1.9159382581710815
1759485912643258600,9.979258544921874,-1.0809049606323242,1.3364189863204956,-1.4238708019256592
1759485912653315800,9.98931591796875,-1.0658308267593384,1.950360655784607,-0.5319094061851501
1759485912663372800,9.999372802734374,-0.7430658936500549,1.5594086647033691,0.3678959906101227
1759485912673429800,10.0094296875,-0.3063657879829407,0.5138936638832092,0.9413624405860901
1759485912683486700,10.01948681640625,0.10578102618455887,-0.38199344277381897,1.0888323783874512
1759485912693543700,10.029543701171875,0.49746569991111755,-0.4740690290927887,0.8257290720939636
1759485912703600600,10.0396005859375,0.8213766813278198,-0.0245551448315382,0.5044498443603516
1759485912713657600,10.04965771484375,1.008845329284668,0.26438266038894653,0.36094754934310913
1759485912723714600,10.059714599609375,1.069270133972168,0.097618967294693,0.4025876522064209
1759485912733771500,10.069771484375,1.0040242671966553,-0.2400810420513153,0.5290734171867371
1759485912743827500,10.079827392578125,0.8763882517814636,-0.3524632453918457,0.586235761642456
1759485912753884700,10.089884765625,0.7818774580955505,-0.19940844178199768,0.37989965081214905
1759485912763942000,10.09994189453125,0.7177850008010864,0.3345545530319214,0.20327535271644592
1759485912773998800,10.109998779296875,0.7077577114105225,1.0890640020370483,0.54140704870224
1759485912784055800,10.120055908203126,0.7858644723892212,1.3905754089355469,1.1167685985565186
1759485912794112800,10.13011279296875,0.430410236120224,-0.23290088772773743,1.8243497610092163
1759485912804169700,10.140169677734375,0.20888742804527283,-1.8650404214859009,2.282485008239746
1759485912814226700,10.150226806640624,0.5076520442962646,1.7267086505889893,1.2078838348388672
1759485912824283600,10.16028369140625,-0.5707050561904907,4.85349178314209,0.42263275384902954
1759485912834339600,10.170339599609376,-0.6397783756256104,4.770356178283691,0.29362255334854126
1759485912844396500,10.180396484375,-0.2991486191749573,3.9746179580688477,0.8138843774795532
1759485912854453500,10.19045361328125,-0.32972145080566406,2.640019416809082,0.6476115584373474
1759485912864510700,10.2005107421875,-0.06876015663146973,1.3964245319366455,0.6487900018692017
1759485912874567700,10.210567626953125,-0.052494898438453674,0.14650608599185944,0.44592955708503723
1759485912884624600,10.220624755859374,-0.04100069776177406,-1.030131459236145,0.16216972470283508
1759485912894681600,10.230681640625,0.0176991019397974,-2.019127607345581,-0.15514910221099854
1759485912904738600,10.240738525390626,0.2063577026128769,-2.6785826683044434,-0.5924758315086365
1759485912914794800,10.250794677734374,0.4383254051208496,-3.0332796573638916,-1.056042194366455
1759485912924851700,10.260851806640625,0.5546131730079651,-2.989798069000244,-1.5367618799209595
1759485912934908700,10.27090869140625,0.43423986434936523,-2.682424545288086,-1.9399276971817017
1759485912944965600,10.280965576171875,0.11764753609895706,-2.169349193572998,-2.1179349422454834
1759485912955022600,10.291022705078126,-0.11081360280513763,-1.2487069368362427,-2.0651938915252686
1759485912965079800,10.301079833984375,-0.04760400578379631,-0.28863897919654846,-1.8788561820983887
1759485912975136800,10.31113671875,0.12582983076572418,0.43045738339424133,-1.5980058908462524
1759485912985193700,10.32119384765625,0.2519257068634033,0.7971506714820862,-1.4247146844863892
1759485912995250700,10.331250732421875,0.2517717778682709,0.8895136117935181,-1.3808271884918213
1759485913005306600,10.341306640625,0.12737978994846344,0.7674548625946045,-1.3902199268341064
1759485913015363600,10.351363525390624,-0.05046530440449715,0.43791449069976807,-1.4614927768707275
1759485913025420500,10.361420654296875,-0.1370590478181839,-0.13068237900733948,-1.5028876066207886
1759485913035477800,10.371477783203124,-0.10647477954626083,-0.8215625286102295,-1.4928247928619385
1759485913045534700,10.38153466796875,-0.08484698086977005,-1.4726125001907349,-1.4547858238220215
1759485913055591700,10.391591796875,-0.12375230342149734,-1.9638019800186157,-1.415581464767456
1759485913065648600,10.401648681640625,-0.23192457854747772,-2.2137606143951416,-1.358588457107544
1759485913075704600,10.41170458984375,-0.30908700823783875,-2.243752956390381,-1.2693989276885986
1759485913085761500,10.421761474609376,-0.208515927195549,-2.0865988731384277,-1.1495481729507446
1759485913095818800,10.43181884765625,-0.03718545287847519,-1.7345104217529297,-1.0634851455688477
1759485913105875700,10.441875732421876,0.09867651015520096,-1.1914361715316772,-1.033058762550354
1759485913115932700,10.4519326171875,0.15003477036952972,-0.5700951814651489,-1.0166023969650269
1759485913125989600,10.46198974609375,0.11992640048265457,0.1728721708059311,-0.9370209574699402
1759485913136046600,10.472046630859374,0.10265820473432541,0.9286836981773376,-0.7235707640647888
1759485913146103600,10.482103515625,0.1752181500196457,1.5631908178329468,-0.340750128030777
1759485913156159700,10.49215966796875,0.2653253972530365,1.9886974096298218,0.056820403784513474
1759485913166216700,10.502216796875,0.351205974817276,2.3367061614990234,0.3124500513076782
1759485913176273700,10.512273681640625,0.2329227328300476,2.6195240020751953,0.42633214592933655
1759485913186330600,10.52233056640625,-0.07014499604701996,2.6148765087127686,0.36984941363334656
1759485913196387800,10.532387939453125,-0.4271278977394104,2.2922964096069336,0.35774561762809753
1759485913206444800,10.54244482421875,-0.7751785516738892,1.743621587753296,0.3984523117542267
1759485913216501800,10.552501708984375,-1.159617304801941,1.1012845039367676,0.43521031737327576
1759485913226557700,10.5625576171875,-1.3471888303756714,0.5979105234146118,0.49811819195747375
1759485913236614700,10.57261474609375,-1.3696924448013306,0.3832813501358032,0.44756045937538147
1759485913246671600,10.582671630859375,-1.2831504344940186,0.44492632150650024,0.28209346532821655
1759485913256728600,10.592728515625,-1.104164958000183,0.6763598322868347,0.03435610979795456
1759485913266785500,10.60278564453125,-0.9358936548233032,0.913490891456604,-0.14969761669635773
1759485913276842500,10.612842529296875,-0.8123786449432373,1.0504865646362305,-0.1240532398223877
1759485913286899500,10.6228994140625,-0.7083289623260498,0.9751459956169128,0.05122723430395126
1759485913296955600,10.63295556640625,-0.5140561461448669,0.8445954322814941,0.2054479569196701
1759485913307012600,10.6430126953125,-0.24581456184387207,0.8752796053886414,0.17940570414066315
1759485913317069600,10.653069580078125,-0.08027593046426773,0.9665740728378296,-0.02063577063381672
1759485913327126800,10.663126708984375,-0.056832123547792435,1.0091532468795776,-0.2821477949619293
1759485913337183700,10.673183837890624,-0.08655966073274612,0.831013023853302,-0.5099780559539795
1759485913347240700,10.68324072265625,-0.15263082087039948,0.4171764552593231,-0.6658331155776978
1759485913357297700,10.693297607421876,-0.24656637012958527,0.01146757137030363,-0.7229307889938354
1759485913367354600,10.703354736328125,-0.4110056459903717,-0.27904441952705383,-0.7666828036308289
1759485913377410600,10.71341064453125,-0.5832714438438416,-0.4014001488685608,-0.7731329798698425
1759485913387467500,10.723467529296874,-0.6550657153129578,-0.3397250771522522,-0.7259033918380737
1759485913397524500,10.7335244140625,-0.6109893321990967,-0.14595668017864227,-0.6041660308837891
1759485913407581400,10.74358154296875,-0.588851809501648,0.21851450204849243,-0.534223735332489
1759485913417638700,10.753638671875,-0.6201793551445007,0.6940118074417114,-0.5986471772193909
1759485913427695600,10.763695556640625,-0.7189909219741821,1.0304595232009888,-0.7689592838287354
1759485913437751600,10.77375146484375,-0.8878419995307922,1.0421282052993774,-1.0283585786819458
1759485913447808800,10.783808837890625,-0.9768799543380737,0.9691789150238037,-1.3207340240478516
1759485913457865700,10.79386572265625,-0.9510097503662109,0.9614253640174866,-1.5230088233947754
1759485913467922700,10.803922607421875,-0.8412606120109558,1.0855534076690674,-1.523944616317749
1759485913477979600,10.813979736328125,-0.6923928260803223,1.3032737970352173,-1.295157790184021
1759485913488036600,10.82403662109375,-0.5986053943634033,1.4472837448120117,-0.8628982901573181
1759485913498093600,10.834093505859375,-0.6558910608291626,1.3376336097717285,-0.3399948477745056
1759485913508149500,10.8441494140625,-0.8270121812820435,0.9241925477981567,0.08948726952075958
1759485913518206700,10.854206787109375,-1.0214405059814453,0.4238916337490082,0.27942100167274475
1759485913528263700,10.864263671875,-1.1460373401641846,-0.023131685331463814,0.243804931640625
1759485913538320600,10.874320556640624,-1.229325532913208,-0.3806975483894348,0.04928445816040039
1759485913548377600,10.884377685546875,-1.3200781345367432,-0.6063959002494812,-0.18996700644493103
1759485913558434800,10.894434814453126,-1.4632378816604614,-0.7393835186958313,-0.34018179774284363
1759485913568490500,10.904490478515624,-1.54582679271698,-0.7902011871337891,-0.3576284348964691
1759485913578547700,10.914547607421875,-1.4116857051849365,-0.638455331325531,-0.3086893856525421
1759485913588604700,10.924604736328124,-1.1332701444625854,-0.34842509031295776,-0.2296619564294815
1759485913598661600,10.93466162109375,-0.7451316714286804,0.03566611930727959,-0.1691858321428299
1759485913608718600,10.944718505859376,-0.31426313519477844,0.45241594314575195,-0.11007137596607208
1759485913618775600,10.954775634765625,0.009160741232335567,0.8981412053108215,-0.07159402221441269
1759485913628832500,10.96483251953125,0.1461670696735382,1.377501130104065,-0.06317124515771866
1759485913638888700,10.974888671875,0.11141201108694077,1.897523045539856,-0.10436289012432098
1759485913648945700,10.984945556640625,-0.0013222594279795885,2.3893117904663086,-0.21193702518939972
1759485913659002600,10.995002685546876,-0.12354031205177307,2.7111425399780273,-0.3656213879585266
1759485913669059600,11.0050595703125,-0.18101292848587036,2.7561163902282715,-0.5163174271583557
1759485913679116800,11.01511669921875,-0.20456884801387787,2.482956886291504,-0.6434058547019958
1759485913689173800,11.025173828125,-0.20766770839691162,1.9292689561843872,-0.7209235429763794
1759485913699229700,11.035229736328125,-0.19588588178157806,1.1985212564468384,-0.7218601703643799
1759485913709286700,11.04528662109375,-0.15964718163013458,0.3947438597679138,-0.6522313356399536
1759485913719343600,11.055343505859375,-0.13833284378051758,-0.35955843329429626,-0.5064061880111694
1759485913729400600,11.065400634765625,-0.15578320622444153,-0.9542281627655029,-0.29229044914245605
1759485913739457500,11.07545751953125,-0.218250572681427,-1.282670021057129,-0.04601995646953583
1759485913749514500,11.085514404296875,-0.2878940999507904,-1.3417329788208008,0.17511935532093048
1759485913759570700,11.09557080078125,-0.283998966217041,-1.1840161085128784,0.3243597149848938
1759485913769627600,11.105627685546875,-0.23103587329387665,-0.899440586566925,0.4199320375919342
1759485913779684600,11.1156845703125,-0.1471460461616516,-0.6126189231872559,0.4542385935783386
1759485913789741600,11.125741455078124,-0.10750355571508408,-0.40440019965171814,0.46147096157073975
1759485913799798800,11.135798828125,-0.0748063325881958,-0.2889937162399292,0.4364854395389557
1759485913809855700,11.145855712890626,-0.06283728778362274,-0.20541387796401978,0.38018274307250977
1759485913819911700,11.15591162109375,-0.07421457767486572,-0.09848236292600632,0.29838377237319946
1759485913829968600,11.16596875,-0.06855935603380203,0.03632791340351105,0.19103386998176575
1759485913840025600,11.176025634765624,-0.015962455421686172,0.1636621654033661,0.06946056336164474
1759485913850082600,11.18608251953125,0.0742393434047699,0.23726288974285126,-0.0468660406768322
1759485913860139500,11.196139404296876,0.1137515977025032,0.22319313883781433,-0.13571974635124207
1759485913870196500,11.206196533203125,0.07481858134269714,0.14235182106494904,-0.1879962682723999
1759485913880252700,11.216252685546875,0.01870551146566868,0.0490567572414875,-0.2111135721206665
1759485913890309600,11.2263095703125,-0.018196847289800644,-0.015276957303285599,-0.2241380214691162
1759485913900366600,11.23636669921875,-0.06124870851635933,-0.01269981637597084,-0.21938109397888184
1759485913910423600,11.246423583984376,-0.07228405028581619,0.07572592049837112,-0.2010715901851654
1759485913920480800,11.256480712890625,-0.059176236391067505,0.22615431249141693,-0.16265761852264404
1759485913930536400,11.266536376953125,-0.06443944573402405,0.3907824158668518,-0.09084921330213547
1759485913940593700,11.27659375,-0.02889210171997547,0.5025296807289124,-0.004523645620793104
1759485913950650600,11.286650634765625,0.0404914990067482,0.5034956336021423,0.08821454644203186
1759485913960707600,11.29670751953125,0.06808025389909744,0.3252643644809723,0.19195106625556946
1759485913970764500,11.3067646484375,0.021141238510608673,0.03904513642191887,0.28444716334342957
1759485913980821500,11.316821533203125,-0.015844477340579033,-0.219090536236763,0.3192877173423767
1759485913990877700,11.326877685546876,0.018921226263046265,-0.39265406131744385,0.2811043858528137
1759485914000934700,11.3369345703125,0.09748820960521698,-0.4289763867855072,0.19528427720069885
1759485914010991600,11.34699169921875,0.15949112176895142,-0.3592660129070282,0.10520178824663162
1759485914021048600,11.357048583984374,0.20583279430866241,-0.18226487934589386,0.04169711470603943
1759485914031105500,11.36710546875,0.24877546727657318,0.05927024781703949,0.06557634472846985
1759485914041161500,11.377161376953126,0.2687970995903015,0.302494078874588,0.19408291578292847
1759485914051218400,11.387218505859375,0.23243111371994019,0.4680390954017639,0.3138415515422821
1759485914061275600,11.397275634765625,0.1793564409017563,0.5097958445549011,0.335744172334671
1759485914071332600,11.40733251953125,0.1521003246307373,0.5277215838432312,0.2693779468536377
1759485914081389600,11.4173896484375,0.16795305907726288,0.5802348852157593,0.1847999393939972
1759485914091446500,11.427446533203126,0.18124276399612427,0.7008398771286011,0.15105316042900085
1759485914101502700,11.437502685546875,0.0952245220541954,0.756670355796814,0.19118699431419373
1759485914111559700,11.4475595703125,-0.020385432988405228,0.5870147347450256,0.2524445056915283
1759485914121616600,11.45761669921875,-0.09323807060718536,0.2670823037624359,0.2981659173965454
1759485914131673600,11.467673583984375,-0.1375725120306015,-0.07347474992275238,0.3168812692165375
1759485914141730600,11.47773046875,-0.1395062357187271,-0.2815094292163849,0.2809627056121826
1759485914151786500,11.487786376953125,-0.125040203332901,-0.27905455231666565,0.19661186635494232
1759485914161843500,11.497843505859375,-0.12383592128753662,-0.12377067655324936,0.10357699543237686
1759485914171900400,11.507900390625,-0.13588859140872955,0.08792905509471893,0.052446164190769196
1759485914181957600,11.51795751953125,-0.13405607640743256,0.27672508358955383,0.06985711306333542
1759485914192014600,11.5280146484375,-0.10873979330062866,0.3847127854824066,0.12495498359203339
1759485914202070800,11.53807080078125,-0.09378615021705627,0.3873879313468933,0.1722516566514969
1759485914212127700,11.548127685546875,-0.0699726939201355,0.34110087156295776,0.18115301430225372
1759485914222184700,11.558184814453124,-0.03796016424894333,0.31799766421318054,0.17087213695049286
1759485914232241700,11.56824169921875,0.003774764481931925,0.30617111921310425,0.14220161736011505
1759485914242298600,11.578298583984376,-0.005419266410171986,0.2803536355495453,0.0852629691362381
1759485914252354600,11.5883544921875,-0.03599182143807411,0.231026291847229,0.014220214448869228
1759485914262412300,11.598412353515625,-0.058408450335264206,0.24438098073005676,-0.05150873214006424
1759485914272469200,11.60846923828125,-0.05239849165081978,0.3616466224193573,-0.1005907878279686
1759485914282526200,11.618526123046875,-0.013541641645133495,0.4499834179878235,-0.11381284892559052
1759485914292583200,11.628583251953126,0.02021791972219944,0.42217227816581726,-0.06685972213745117
1759485914302639400,11.638639404296875,0.0379849337041378,0.3293211758136749,0.020007263869047165
1759485914312696300,11.6486962890625,-0.04153492674231529,0.1053306832909584,0.06555184721946716
1759485914322753300,11.658753173828124,-0.056945573538541794,-0.035950809717178345,0.06965311616659164
1759485914332810500,11.668810546875,-0.03292412683367729,-0.008438758552074432,0.060152020305395126
1759485914342867500,11.678867431640626,0.0073567163199186325,0.06832899153232574,0.023303991183638573
1759485914352923400,11.68892333984375,0.029347768053412437,0.08857353776693344,-0.020265856757760048
1759485914362980400,11.69898046875,0.026759974658489227,0.09498216956853867,-0.03634415939450264
1759485914373037300,11.709037353515624,0.025849441066384315,0.12092135846614838,-0.039035551249980927
1759485914383094300,11.71909423828125,0.025735190138220787,0.13643348217010498,-0.05693332478404045
1759485914393151200,11.729151123046876,0.020133763551712036,0.13430428504943848,-0.08884518593549728
1759485914403207400,11.73920751953125,0.013243366964161396,0.14898042380809784,-0.11998898535966873
1759485914413264400,11.749264404296875,0.01877581886947155,0.1813167929649353,-0.13582921028137207
1759485914423321300,11.7593212890625,0.019830429926514626,0.18899469077587128,-0.13393382728099823
1759485914433378300,11.76937841796875,0.006542587652802467,0.1311420351266861,-0.11321763694286346
1759485914443435300,11.779435302734376,-0.01709722727537155,0.040773529559373856,-0.06863045692443848
1759485914453491200,11.7894912109375,-0.035765454173088074,-0.018630675971508026,-0.015616243705153465
1759485914463548200,11.799548095703125,-0.028500616550445557,-0.01296533364802599,0.02231542579829693
1759485914473605400,11.80960546875,0.009281915612518787,0.0032019184436649084,0.029687056317925453
1759485914483662300,11.819662353515625,0.02851686254143715,0.027516046538949013,0.014736335724592209
1759485914493719300,11.82971923828125,0.03777321055531502,0.06623734533786774,-0.004132160916924477
1759485914503775200,11.839775146484374,0.042763177305459976,0.09095946699380875,-0.007254983298480511
1759485914513832400,11.84983251953125,0.04706018790602684,0.08897967636585236,0.0021022993605583906
1759485914523889400,11.859889404296876,0.0526733323931694,0.05810990929603577,0.01082734763622284
1759485914533946400,11.8699462890625,0.05139980837702751,0.02256070263683796,0.013905695639550686
1759485914544003300,11.88000341796875,0.045032989233732224,0.0035025894176214933,0.006299174856394529
1759485914554059300,11.890059326171874,0.033846113830804825,-0.017662616446614265,-0.013231915421783924
1759485914564116200,11.9001162109375,0.041607897728681564,-0.01369104441255331,-0.029573338106274605
1759485914574173200,11.910173095703126,0.04381486028432846,0.024358335882425308,-0.032646093517541885
1759485914584230100,11.920230224609375,0.035710860043764114,0.051426973193883896,-0.026865968480706215
1759485914594286000,11.9302861328125,0.03412308171391487,0.051661863923072815,-0.019041601568460464
1759485914604343300,11.94034326171875,0.03527117148041725,0.04146089032292366,-0.021644575521349907
1759485914614400500,11.950400390625,0.03259868919849396,0.027660923078656197,-0.03033633343875408
1759485914624457500,11.96045751953125,0.028011927381157875,0.021614480763673782,-0.03339390829205513
1759485914634514400,11.970514404296875,0.019060775637626648,0.03765257075428963,-0.03274755924940109
1759485914644570400,11.9805703125,0.008378837257623672,0.07587984949350357,-0.028489964082837105
1759485914654627300,11.99062744140625,-0.00683233980089426,0.08723477274179459,-0.02991155907511711
1759485914664684300,12.000684326171875,-0.014230068773031235,0.0642239898443222,-0.030488399788737297
1759485914674741200,12.0107412109375,-0.011976235546171665,0.03308125585317612,-0.019477561116218567
1759485914684798200,12.020798095703125,-0.01251259632408619,0.01836063154041767,-0.00410552928224206
1759485914694854100,12.030854248046875,-0.014040984213352203,0.035058118402957916,0.008831840939819813
1759485914704911000,12.0409111328125,0.0062855929136276245,0.07442709803581238,0.008628908544778824
1759485914714968300,12.05096826171875,0.024714134633541107,0.12611372768878937,0.003825897118076682
1759485914725025300,12.061025390625,0.034208837896585464,0.17431214451789856,0.0007443535141646862
1759485914735081200,12.071081298828124,0.03476996347308159,0.18064594268798828,0.004002731293439865
1759485914745138400,12.081138427734375,0.037335921078920364,0.14750689268112183,0.006929811555892229
1759485914755195400,12.0911953125,0.03994981199502945,0.09970422089099884,0.012806875631213188
1759485914765252400,12.10125244140625,0.036724723875522614,0.04963812604546547,0.016115853562951088
1759485914775309300,12.111309326171876,0.03796389326453209,0.028781846165657043,0.014898255467414856
1759485914785365200,12.121365234375,0.05054067075252533,0.04466600343585014,0.018485266715288162
1759485914795422200,12.131422119140625,0.05079127475619316,0.06546955555677414,0.02160116657614708
1759485914805479200,12.141479248046876,0.04099403694272041,0.09565941244363785,0.01522822119295597
1759485914815536400,12.151536376953125,0.031742483377456665,0.12398479878902435,-0.00199364242143929
1759485914825592300,12.16159228515625,0.0289970301091671,0.14644695818424225,-0.02599538117647171
1759485914835649300,12.171649169921874,0.0329265259206295,0.1558934599161148,-0.05096118524670601
1759485914845706200,12.181706298828125,0.03129720315337181,0.17063884437084198,-0.06517873704433441
1759485914855763200,12.19176318359375,0.011453989893198013,0.1718101054430008,-0.06821154803037643
1759485914865819100,12.201819091796875,0.02425394020974636,0.16929449141025543,-0.06248015537858009
1759485914875876000,12.2118759765625,0.03975726664066315,0.18836165964603424,-0.04890389367938042
1759485914885933300,12.221933349609374,0.04556615278124809,0.22954849898815155,-0.04153678938746452
1759485914895990300,12.231990234375,0.04026539623737335,0.24737010896205902,-0.04944930970668793
1759485914906047200,12.242047119140626,0.03819479048252106,0.2159956842660904,-0.0628623217344284
1759485914916103400,12.252103515625,0.03251133859157562,0.15011413395404816,-0.06993061304092407
1759485914926160400,12.262160400390625,0.011847871355712414,0.06733856350183487,-0.05783453583717346
1759485914936217300,12.27221728515625,-0.01028432883322239,0.021646972745656967,-0.010297911241650581
1759485914946274300,12.2822744140625,-0.02593279629945755,0.051359858363866806,0.051230162382125854
1759485914956330200,12.292330322265625,-0.04518239200115204,0.0937882736325264,0.09762642532587051
1759485914966387200,12.30238720703125,-0.05235561728477478,0.11630956828594208,0.11896154284477234
1759485914976444200,12.312444091796875,-0.057011086493730545,0.12146571278572083,0.11440140753984451
1759485914986501000,12.322501220703124,-0.04338742047548294,0.10064538568258286,0.07790438830852509
1759485914996557300,12.332557373046875,-0.020248280838131905,0.09005159884691238,0.0315169133245945
1759485915006614300,12.3426142578125,0.006425408646464348,0.10130930691957474,-0.0022620889358222485
1759485915016671200,12.352671142578124,0.01824318617582321,0.10817946493625641,-0.02382996492087841
1759485915026728400,12.362728515625,0.007842210121452808,0.0938873440027237,-0.01492542028427124
1759485915036785400,12.372785400390624,-0.011184477247297764,0.08090709894895554,0.009312274865806103
1759485915046841300,12.38284130859375,-0.019178221002221107,0.05716821551322937,0.011390073224902153
1759485915056898300,12.392898193359375,-0.0008082693675532937,0.022158032283186913,-0.00968431867659092
1759485915066955300,12.402955322265624,0.021088773384690285,0.0020719394087791443,-0.03280668333172798
1759485915077012200,12.41301220703125,0.02967400662600994,0.021734056994318962,-0.04153040051460266
1759485915087068400,12.423068359375,0.03199921175837517,0.03856310620903969,-0.03775110840797424
1759485915097125400,12.43312548828125,0.03664323315024376,0.039432093501091,-0.023307720199227333
1759485915107182300,12.443182373046875,0.023555127903819084,0.05498095974326134,-0.011319499462842941
1759485915117239300,12.4532392578125,0.015837285667657852,0.10041821748018265,-0.01040576957166195
1759485915127295200,12.463295166015625,0.012601811438798904,0.1287907361984253,-0.02641749195754528
1759485915137352200,12.473352294921876,0.013774934224784374,0.13424035906791687,-0.05078461766242981
1759485915147409200,12.4834091796875,0.028386101126670837,0.12512728571891785,-0.07665882259607315
1759485915157466000,12.493466064453125,0.041791655123233795,0.12038606405258179,-0.09373581409454346
1759485915167522300,12.503522216796876,0.039926111698150635,0.17160078883171082,-0.07278446108102798
1759485915177579500,12.51357958984375,0.0252225324511528,0.19530744850635529,-0.038899194449186325
1759485915187636500,12.523636474609376,0.008895223960280418,0.1805330216884613,-0.008258196525275707
1759485915197693400,12.533693359375,-0.0031124362722039223,0.12484872341156006,0.005096491426229477
1759485915207749400,12.543749267578125,0.005408880300819874,0.024023843929171562,-0.00917512271553278
1759485915217806300,12.553806396484376,0.02539137750864029,-0.09824933856725693,-0.0318191833794117
1759485915227863300,12.56386328125,0.013864682987332344,-0.17575398087501526,-0.031622640788555145
1759485915237920300,12.573920166015625,-0.010806575417518616,-0.1496126651763916,0.0018977685831487179
