time,seconds_elapsed,z,y,x
1759162936911810000,0.02181005859375,1.4066221169143915,-9.353252152261138,2.5900749453902243
1759162936921867300,0.0318671875,1.4065728709451852,-9.351758114311098,2.5954908329591153
1759162936931924200,0.04192431640625,1.4067464739464222,-9.350014485514164,2.601668060289323
1759162936941981400,0.0519814453125,1.407420866076648,-9.348188439130782,2.6078584393620488
1759162936952037400,0.062037353515625,1.4080154709689319,-9.346520798179506,2.613509304730594
1759162936962094300,0.07209423828125,1.407649560265988,-9.345288041514157,2.61811446043849
1759162936972151300,0.0821513671875,1.405751033168286,-9.344752034941315,2.6210429151058197
1759162936982207200,0.092207275390625,1.4030731922611592,-9.344709949365258,2.6226260926440355
1759162936992264200,0.10226416015625,1.4006122089751063,-9.344837375137208,2.62348563208282
1759162937002321200,0.112321044921875,1.3987252261847256,-9.34487244645059,2.624369136919081
1759162937012378000,0.122378173828125,1.3972041540972888,-9.344609996122122,2.62611539606452
1759162937022434300,0.132434326171875,1.3961238115146755,-9.344010276663303,2.6288217324137686
1759162937032491300,0.1424912109375,1.3944544169977307,-9.343298329001664,2.632237678337097
1759162937042548200,0.15254833984375,1.3917610862605272,-9.342653601357341,2.6359467619881034
1759162937052605200,0.162605224609375,1.3879101099207996,-9.342253203862905,2.639395441137254
1759162937062662400,0.172662353515625,1.382898126977682,-9.342046867635846,2.642749427740276
1759162937072718300,0.18271826171875,1.3772719576589763,-9.341970295268297,2.645957283870876
1759162937082775300,0.192775390625,1.3714308304153382,-9.341730056771635,2.6498332485213876
1759162937092832300,0.202832275390625,1.3644422867022454,-9.341395125728845,2.654623405407369
1759162937102889200,0.21288916015625,1.356678228572011,-9.340859119156002,2.66047797665447
1759162937112945400,0.2229453125,1.3488532340347765,-9.340243033084272,2.6666175023227927
1759162937123002400,0.23300244140625,1.341759037990123,-9.339601228049396,2.672436125473678
1759162937133059300,0.243059326171875,1.3352465873561798,-9.339121335577964,2.6773683211788533
1759162937143116300,0.2531162109375,1.3287627782948315,-9.338761854615807,2.681847512419522
1759162937153172200,0.263172119140625,1.3222951897159219,-9.338125310277938,2.6872569702476263
1759162937163229200,0.273229248046875,1.315837976400554,-9.337661199897527,2.6920377747833726
1759162937173286100,0.2832861328125,1.3095795005276798,-9.33756300022006,2.695424202351272
1759162937183343000,0.293343017578125,1.303012397097051,-9.337742448440194,2.697984992749989
1759162937193400300,0.303400390625,1.2961660383336244,-9.33808614731133,2.7000919019013643
1759162937203456300,0.313456298828125,1.2888675518885253,-9.337974503630399,2.703965820725262
1759162937213513500,0.323513427734375,1.2805712865777312,-9.337682827207445,2.7089105836510656
1759162937223570400,0.3335703125,1.2718322459354996,-9.337878057518601,2.712349033667147
1759162937233627400,0.34362744140625,1.2637035922765731,-9.338276701447366,2.7147788911625743
1759162937243683300,0.353683349609375,1.2566190408430993,-9.338708078601956,2.7165783417999743
1759162937253740300,0.363740234375,1.2507356818929314,-9.339043009644746,2.718145737247169
1759162937263797200,0.37379736328125,1.2450342553809284,-9.339208429339527,2.7201997471675274
1759162937273854200,0.383854248046875,1.2383332964375615,-9.339295523101091,2.722953429789841
1759162937283911200,0.3939111328125,1.2308584305122494,-9.33937209546864,2.726077407029271
1759162937293967600,0.403967529296875,1.2231032863408327,-9.339456266620754,2.72927795663625
1759162937304024600,0.414024658203125,1.2150374687850474,-9.339556804385781,2.732538127475977
1759162937314081800,0.424081787109375,1.2068654143758117,-9.33968949085474,2.735702436725795
1759162937324138800,0.434138671875,1.1989853286504746,-9.339979413712024,2.7381787637114523
1759162937334195700,0.44419580078125,1.1915292404908686,-9.340389163556694,2.7400308213189244
1759162937344251600,0.454251708984375,1.1831294417403637,-9.340959072399139,2.741730026452243
1759162937354308600,0.46430859375,1.1725563906040042,-9.341683295020461,2.743807417248189
1759162937364365600,0.474365478515625,1.1593757142525165,-9.34248759714067,2.7466628066793084
1759162937374422500,0.484422607421875,1.1442540599010884,-9.343278455257416,2.7503075929224488
1759162937384479700,0.494479736328125,1.1277348137114196,-9.343989818397164,2.7547148879706858
1759162937394535400,0.504535400390625,1.1115293096460401,-9.34559959168136,2.755842722956836
1759162937404592600,0.514592529296875,1.0965797239258885,-9.347788626158238,2.7544080139786002
1759162937414649600,0.524649658203125,1.082261641042307,-9.350001041510701,2.752561801590025
1759162937424706800,0.534706787109375,1.0667354244779794,-9.352116426229477,2.7514310439944265
1759162937434763800,0.544763671875,1.0476534151282162,-9.353948317831755,2.752539882019162
1759162937444820700,0.55482080078125,1.0212316374748944,-9.355326035925746,2.7577850891962647
1759162937454876700,0.564876708984375,0.9908177214454859,-9.35585795084536,2.767053268279135
1759162937464933600,0.57493359375,0.9635023559533059,-9.35563700157106,2.77743203895241
1759162937474990600,0.584990478515625,0.9422598806340247,-9.354639807227253,2.7880530939489603
1759162937485047600,0.595047607421875,0.9253457899078726,-9.35328488548696,2.7982483247488736
1759162937495104500,0.6051044921875,0.9090816875230521,-9.352585797306896,2.80590205437243
1759162937505161700,0.61516162109375,0.8913830953557044,-9.353148107364774,2.80970612283051
1759162937515217700,0.6252177734375,0.8707626243922859,-9.354538684940337,2.811539183476567
1759162937525275000,0.63527490234375,0.8461024495840073,-9.356133845177292,2.8137618279621
1759162937535331800,0.645331787109375,0.818276138895005,-9.35744200516641,2.8176392539173363
1759162937545388800,0.655388916015625,0.7885972591418773,-9.357865783536434,2.824687126602232
1759162937555445800,0.66544580078125,0.7581197032917291,-9.357638989043235,2.833764751549065
1759162937565502700,0.675502685546875,0.7228989715024828,-9.357096552729606,2.844736811940372
1759162937575558700,0.68555859375,0.6665314798533916,-9.356614322170614,2.8600469015359877
1759162937585615600,0.69561572265625,0.5893756498606875,-9.355126129439473,2.8817803021773694
1759162937595672600,0.705672607421875,0.4969037389229983,-9.3515880184412,2.910543163064122
1759162937605729500,0.7157294921875,0.3972806410564109,-9.34541254467666,2.945474775713682
1759162937615786500,0.725786376953125,0.30131370934350415,-9.337194166907668,2.9826822243407367
1759162937625843700,0.73584375,0.22015266229743136,-9.327685164806246,3.019305151078105
1759162937635899600,0.745899658203125,0.16229489555796608,-9.317342049968243,3.0546999973252413
1759162937645956900,0.755956787109375,0.13087291673086582,-9.306986075648664,3.0876006886690854
1759162937656013800,0.766013916015625,0.1264549541581422,-9.2969977655977,3.11773045399487
1759162937666070800,0.77607080078125,0.1443098967978265,-9.288013079631328,3.1436195130109783
1759162937676127700,0.786127685546875,0.17657807152494787,-9.280430661678313,3.164301651033759
1759162937686184700,0.796184814453125,0.21499759935550392,-9.27454511077106,3.179146461205184
1759162937696240600,0.80624072265625,0.25159343715654686,-9.270353504300116,3.1886727067023513
1759162937706297600,0.816297607421875,0.2800128183678724,-9.267552475404738,3.1944407687097787
1759162937716354600,0.8263544921875,0.2958064171641134,-9.265895940369367,3.1978254427120087
1759162937726411500,0.83641162109375,0.29765635587973516,-9.264840293836594,3.200706551106274
1759162937736468500,0.846468505859375,0.2868621545396745,-9.264168678185344,3.203634713512659
1759162937746525700,0.856525634765625,0.2678952229369432,-9.264449833214282,3.204463857813179
1759162937756582700,0.866582763671875,0.2462615928756073,-9.266259512984751,3.2009646175205706
1759162937766639600,0.8766396484375,0.22632059207633137,-9.268522781741618,3.1958795693412423
1759162937776695800,0.88669580078125,0.2109513013730757,-9.270103913453221,3.1923461345180866
1759162937786752800,0.896752685546875,0.20160981959197669,-9.270817614680528,3.1908746006608006
1759162937796809700,0.906809814453125,0.19801890069423242,-9.270902954876423,3.190853850133717
1759162937806866700,0.91686669921875,0.19773582770284265,-9.27045930276215,3.1921564571648835
1759162937816923600,0.926923583984375,0.1975182394294068,-9.269530497479439,3.1948663006454705
1759162937826980600,0.936980712890625,0.19467123423414304,-9.268102510502933,3.199180948974192
1759162937837037600,0.94703759765625,0.18760315901143476,-9.266627761775254,3.203878166879713
1759162937847094500,0.957094482421875,0.1764026784254238,-9.265397927719354,3.208064220392704
1759162937857150500,0.967150390625,0.16273350617093965,-9.264385535806417,3.2117087143748995
1759162937867207400,0.97720751953125,0.14942411627271213,-9.26344504008591,3.215068838457763
1759162937877264600,0.9872646484375,0.13900889517972245,-9.26266294979751,3.217783942635357
1759162937887321600,0.997321533203125,0.13114523086622357,-9.262409851819276,3.2188448498651385
1759162937897378600,1.007378662109375,0.12396734772664494,-9.261858647677302,3.2207159044340252
1759162937907435800,1.017435791015625,0.11844591742404736,-9.26128347813785,3.2225778989136216
1759162937917492700,1.02749267578125,0.11511217902461066,-9.261968537792562,3.220729640698433
1759162937927549700,1.0375498046875,0.11361572992177679,-9.264086845120787,3.214684515315294
1759162937937606700,1.047606689453125,0.11331274665351956,-9.267277750116586,3.2054818026840683
1759162937947662600,1.05766259765625,0.11392272264487109,-9.270755070838332,3.195387401910126
1759162937957719600,1.067719482421875,0.11524328545783646,-9.273728533691168,3.1866973149761555
1759162937967776500,1.077776611328125,0.11691637890236452,-9.276210998156666,3.1794056966632604
1759162937977833700,1.087833740234375,0.11829381386856548,-9.278063932546972,3.173939540211856
1759162937987890700,1.097890625,0.11860864283824339,-9.279525237271189,3.16965236441195
1759162937997947600,1.10794775390625,0.1173351705700159,-9.281440715503692,3.1640877160221335
1759162938008004600,1.118004638671875,0.11344512259522452,-9.283200126391648,3.159070472382009
1759162938018061600,1.1280615234375,0.10700246752817183,-9.285224325695633,3.153338650731742
1759162938028118500,1.138118408203125,0.0951698173853103,-9.288063933035732,3.1453447293683885
1759162938038175500,1.148175537109375,0.07845053684520535,-9.290837489402294,3.137603905983269
1759162938048232400,1.158232421875,0.06034025860442779,-9.293933701851964,3.1288226336345075
1759162938058288600,1.16828857421875,0.04339628419666551,-9.298174408161639,3.11648074619472
1759162938068345600,1.178345703125,0.02844681949081132,-9.302568843728304,3.1035128358110784
1759162938078402800,1.18840283203125,0.016073555098648648,-9.306109877336025,3.092965138311684
1759162938088459800,1.198459716796875,0.0061594433658785416,-9.308808614900707,3.0848700946614143
1759162938098516700,1.208516845703125,-0.0012709365334965695,-9.311054348000884,3.07809022526294
1759162938108573700,1.21857373046875,-0.0068272676163556745,-9.313226431342958,3.071504709392786
1759162938118630700,1.228630615234375,-0.011545329092972678,-9.315551074898242,3.064434332615137
1759162938128687600,1.2386875,-0.01661114284886862,-9.318068026155233,3.0567502078533173
1759162938138744600,1.24874462890625,-0.022831938751100095,-9.320915232279896,3.048015989516675
1759162938148801500,1.258801513671875,-0.030794293649122118,-9.324298444977401,3.0375790589153766
1759162938158858500,1.2688583984375,-0.04057722188767511,-9.3279768412292,3.0261504869282243
1759162938168915700,1.278915771484375,-0.05242954027880914,-9.331752852636575,3.0142987210929393
1759162938178972700,1.28897265625,-0.06602946038909721,-9.335877823612094,3.0012334878146647
1759162938189028900,1.29902880859375,-0.08082723024813458,-9.340587900999187,2.9861794188067314
1759162938199085800,1.3090859375,-0.09605467392844147,-9.346122154250741,2.968360561260581
1759162938209142800,1.319142822265625,-0.11132928121872246,-9.352620284098386,2.9472827019184824
1759162938219199700,1.32919970703125,-0.12655136373732237,-9.359690076354145,2.9241330047383904
1759162938229256700,1.339256591796875,-0.1438687837005127,-9.366611400049925,2.901078000104427
1759162938239313700,1.349313720703125,-0.16145873699476943,-9.373270273417234,2.8785590020433065
1759162938249370600,1.35937060546875,-0.1773515583817847,-9.380446448656915,2.8541470298424363
1759162938259427600,1.369427490234375,-0.19194080462325364,-9.388798681938647,2.8255972271844745
1759162938269484800,1.37948486328125,-0.20440938718263058,-9.397680492052435,2.7950331620946525
1759162938279541800,1.389541748046875,-0.21482118334267286,-9.406731228992342,2.7636341074854136
1759162938289599200,1.39959912109375,-0.22449960546055808,-9.41619346934259,2.730439986152947
1759162938299656200,1.40965625,-0.23502026882255447,-9.426066628581285,2.6952590749174354
1759162938309713200,1.419713134765625,-0.24727162843467665,-9.436330248442292,2.6579928818404674
1759162938319770000,1.42977001953125,-0.26148058838797733,-9.446703173896669,2.6195062070578334
1759162938329827000,1.4398271484375,-0.2776193108274601,-9.457100064748525,2.5800357819348574
1759162938339884000,1.449884033203125,-0.29504578978884966,-9.4670877902776,2.5411764744475485
1759162938349941200,1.459941162109375,-0.3111108259376138,-9.477677573353052,2.499448918047547
1759162938359998200,1.469998291015625,-0.3249319921497255,-9.488911499550937,2.454666357991099
1759162938370055200,1.48005517578125,-0.33821981867011636,-9.499579608559609,2.4112251295410094
1759162938380112100,1.490112060546875,-0.3540435934089124,-9.508692889341711,2.372720919101685
1759162938390169000,1.500169189453125,-0.3725322765080258,-9.515981877306103,2.3404420129179955
1759162938400226000,1.51022607421875,-0.3908297844165936,-9.523377832776308,2.3071425315149128
1759162938410283000,1.520282958984375,-0.40876865161322057,-9.531871520355343,2.2686425588592884
1759162938420340000,1.530340087890625,-0.4281745226224884,-9.540396187594533,2.2288800189219415
1759162938430397000,1.54039697265625,-0.4498217793503776,-9.547480592897534,2.194008173635602
1759162938440454100,1.5504541015625,-0.4723000800749287,-9.552705049547553,2.1663668641246856
1759162938450511000,1.560510986328125,-0.4924702134549617,-9.55679319564402,2.1437315462075173
1759162938460568000,1.570568115234375,-0.5070286809656769,-9.56056043922305,2.123438407502323
1759162938470625300,1.580625244140625,-0.5146460241016,-9.564220130774379,2.1050490565918385
1759162938480681200,1.59068115234375,-0.5168149656385183,-9.567754150119423,2.0883862372130153
1759162938490738200,1.60073828125,-0.5163909315401688,-9.57120984353125,2.072603853930533
1759162938500795100,1.610795166015625,-0.5163891779744997,-9.574649754852055,2.0566531283438203
1759162938510852000,1.62085205078125,-0.5191392073350027,-9.578076222169399,2.039935071646422
1759162938520909000,1.630908935546875,-0.5269972273590043,-9.581358897101879,2.0224292255721985
1759162938530966000,1.640966064453125,-0.5417704335989431,-9.584196166354417,2.0050069661282004
1759162938541023200,1.651023193359375,-0.5628955661488697,-9.587371873781084,1.983892428037524
1759162938551080200,1.661080078125,-0.5891465172799304,-9.590776129266619,1.9596638495795426
1759162938561137200,1.67113720703125,-0.6179000623490661,-9.594560323980451,1.9321005737408994
1759162938571194000,1.681194091796875,-0.6450247275747358,-9.599337621384858,1.8992245784468949
1759162938581251000,1.6912509765625,-0.6672288875330239,-9.605478608357906,1.8601020899787544
1759162938591308000,1.70130810546875,-0.6837295751526952,-9.612644846725463,1.8165889653362333
1759162938601366000,1.711365966796875,-0.6982295174092054,-9.619230070334673,1.7757535354703664
1759162938611423200,1.72142333984375,-0.7181920359205454,-9.623706338965892,1.743222846482694
1759162938621480200,1.731480224609375,-0.7450733208443969,-9.626175943949818,1.7181294678889214
1759162938631537200,1.741537109375,-0.7717937891833484,-9.627138066980242,1.700862399006635
1759162938641594000,1.751593994140625,-0.7927903999827802,-9.627258478489518,1.6904903503350912
1759162938651651000,1.761651123046875,-0.8068529737353325,-9.627285366496443,1.6836683953605591
1759162938661708000,1.7717080078125,-0.8150278776887804,-9.62736310790777,1.6792903264068066
1759162938671765000,1.781764892578125,-0.8196602867297827,-9.627340311554073,1.6771578444227575
1759162938681822000,1.791822021484375,-0.8237611461773514,-9.627041036346554,1.676862368607521
1759162938691879000,1.80187890625,-0.8296472085412592,-9.626603813973068,1.6764802374221384
1759162938701936000,1.81193603515625,-0.838680190628767,-9.626260115101934,1.6739548105977475
1759162938711993300,1.821993408203125,-0.8511600252345204,-9.62597019224465,1.6693157526202498
1759162938722050300,1.83205029296875,-0.8660883489709347,-9.625716509744525,1.6630863567113876
1759162938732107300,1.842107177734375,-0.8821807480506598,-9.62559492919147,1.655322298581153
1759162938742164200,1.852164306640625,-0.8981351999644189,-9.62568786817193,1.6461669322229922
1759162938752221200,1.86222119140625,-0.9133965550474822,-9.625936874496936,1.6362847128950058
1759162938762278100,1.872278076171875,-0.9281085326194762,-9.626372927826642,1.6254051530927418
1759162938772335000,1.882335205078125,-0.9428628880284726,-9.62746130758524,1.6103946309655903
1759162938782392300,1.892392333984375,-0.9585160189080982,-9.629299044406414,1.590049323681742
1759162938792449300,1.90244921875,-0.9752795221824199,-9.631641808140277,1.5654725163079797
1759162938802506200,1.91250634765625,-0.990788276155293,-9.634314242219924,1.5390563646778463
1759162938812563200,1.922563232421875,-1.0028436748038976,-9.637134560337662,1.5133745186716316
1759162938822620200,1.9326201171875,-1.0109328001700342,-9.640071198311448,1.4891117456831038
1759162938832677000,1.942677001953125,-1.014263625093177,-9.643017773157357,1.4676057240568101
1759162938842734000,1.952734130859375,-1.0125357053220272,-9.645731123769282,1.4508715930074452
1759162938852791000,1.962791015625,-1.0057031558882445,-9.648211834669112,1.4390810558401048
1759162938862848000,1.972847900390625,-0.9932249287176876,-9.650918171018361,1.4295710308253764
1759162938872905200,1.9829052734375,-0.9747274412576109,-9.65416519011557,1.4203442066662013
1759162938882962200,1.992962158203125,-0.9537600565526634,-9.658073887991904,1.407959795258939
1759162938893020200,2.003020263671875,-0.9383763902641832,-9.662418639197945,1.3883411948144435
1759162938903077000,2.0130771484375,-0.9366023663289844,-9.666656422898173,1.3597446304053067
1759162938913134000,2.023134033203125,-0.9501504146881401,-9.669895843210815,1.3269066290341316
1759162938923191000,2.03319091796875,-0.9739983232654631,-9.672341482797265,1.2913209363900124
1759162938933248000,2.043248046875,-1.001849476134777,-9.674318920350075,1.2546795972131193
1759162938943305200,2.05330517578125,-1.0287309071891009,-9.676536011877655,1.2152184513751416
1759162938953362200,2.063362060546875,-1.0492764862854034,-9.679371527564525,1.1743899627067147
1759162938963419100,2.073419189453125,-1.0586902113188057,-9.683107206961513,1.1344597380522639
1759162938973476000,2.08347607421875,-1.059518259640783,-9.687644850391148,1.0942437552589923
1759162938983533000,2.093532958984375,-1.0595039388544858,-9.692525023648143,1.0501398981817065
1759162938993590000,2.103590087890625,-1.065953772580996,-9.696983756622672,1.0013179265413432
1759162939003647000,2.11364697265625,-1.0807140462741256,-9.700783733427524,0.947227732174471
1759162939013704000,2.123703857421875,-1.1013245073001832,-9.703678870347142,0.8922283870734273
1759162939023761200,2.13376123046875,-1.1236766974270342,-9.705860890561341,0.8390361644595861
1759162939033819100,2.143819091796875,-1.1438343731842935,-9.707734867739676,0.788616913690418
1759162939043876000,2.1538759765625,-1.1611127671781927,-9.709196756985783,0.7440910318087786
1759162939053933000,2.16393310546875,-1.1778222021777183,-9.709894091600178,0.7078669681958853
1759162939063990000,2.173989990234375,-1.194320990101248,-9.709820441842078,0.6806999981984496
1759162939074047000,2.184046875,-1.2088015700701624,-9.709595985436438,0.6579668459299951
1759162939084104000,2.19410400390625,-1.2192835819222032,-9.709908704647422,0.6335825654536485
1759162939094161200,2.2041611328125,-1.223905031177774,-9.710997084406017,0.6074192195408046
1759162939104218400,2.21421826171875,-1.22175143334046,-9.712828976008295,0.581925224256888
1759162939114275300,2.224275390625,-1.2135570209689437,-9.715247143065929,0.5582507360177115
1759162939124332300,2.234332275390625,-1.2029045479208231,-9.717775784760713,0.5368888355698436
1759162939134389200,2.24438916015625,-1.193155526518449,-9.720079385527967,0.5165605890186503
1759162939144446200,2.2544462890625,-1.1857709692250937,-9.721966222187875,0.4977436968784779
1759162939154504000,2.26450390625,-1.1797560928497464,-9.72350702188909,0.48166149039920414
1759162939164561200,2.27456103515625,-1.1751385891169308,-9.72473860951066,0.46788398066572845
1759162939174618400,2.284618408203125,-1.1734859265390782,-9.725552263981104,0.45492783378511664
1759162939184675300,2.29467529296875,-1.1744061101239174,-9.726087101510167,0.4409274385485798
1759162939194732300,2.304732177734375,-1.175042289135605,-9.726731244632601,0.42470158581491557
1759162939204789200,2.314789306640625,-1.1711952583186327,-9.727930683550237,0.4075098471911624
1759162939214846200,2.32484619140625,-1.1590549578655511,-9.729956051898002,0.39364816630557176
1759162939224903200,2.334903076171875,-1.137921349748224,-9.73275883435905,0.38593580182995646
1759162939234960100,2.344960205078125,-1.111699113254994,-9.735761523306369,0.38662425901815295
1759162939245018400,2.355018310546875,-1.0868895200386643,-9.73818670462668,0.39591475953068583
1759162939255075300,2.365075439453125,-1.0694113656889646,-9.739487850353122,0.4112535272315144
1759162939265132300,2.37513232421875,-1.0617302366018295,-9.739484343221783,0.4307768140753731
1759162939275189200,2.385189208984375,-1.0626423099454492,-9.73840765390098,0.4523032574351877
1759162939285246200,2.39524609375,-1.0680458494894205,-9.736875622028112,0.47215738366860893
1759162939295302700,2.405302734375,-1.0735241347700357,-9.735509594371914,0.48764326822254805
1759162939305359600,2.415359619140625,-1.0759016044910996,-9.734712306514382,0.4982013044528663
1759162939315416600,2.42541650390625,-1.0744569586407393,-9.734484342977405,0.5056928292520344
1759162939325473500,2.4354736328125,-1.0715404136069118,-9.734484342977405,0.5118373964216559
1759162939335531500,2.445531494140625,-1.0708735471960156,-9.734188574901223,0.5188375209746882
1759162939345588500,2.45558837890625,-1.074613464376703,-9.733153971156478,0.5303603105839342
1759162939355645700,2.465645751953125,-1.0834082537941634,-9.731074826794861,0.5502838487917557
1759162939365702700,2.47570263671875,-1.0957589821275322,-9.727855280226468,0.5818477751065045
1759162939375759600,2.485759521484375,-1.1094746421385555,-9.723611066785454,0.6251664731554687
1759162939385816600,2.495816650390625,-1.1238671054325997,-9.718442724236846,0.6776144532732665
1759162939395873500,2.50587353515625,-1.1397745763994753,-9.712498721140623,0.7339486271746456
1759162939405931500,2.515931640625,-1.16001949204877,-9.706039169737696,0.7858421882800758
1759162939415988500,2.525988525390625,-1.1876566368412225,-9.699498954313993,0.824375113357231
1759162939426045700,2.536045654296875,-1.2220901637755333,-9.693114806234837,0.8487767833597958
1759162939436102700,2.5461025390625,-1.261454644306004,-9.6866160918653,0.8652300516411662
1759162939446159600,2.55615966796875,-1.3035381745368242,-9.679617611280083,0.8810022788558155
1759162939456216600,2.566216552734375,-1.3451992415718734,-9.67182885710001,0.9036374506425112
1759162939466273500,2.5762734375,-1.3840792995862663,-9.663224694883823,0.9363806864023209
1759162939476330500,2.58633056640625,-1.4204178564243017,-9.653721538001298,0.9790071644034236
1759162939486388500,2.596388427734375,-1.4565193896360695,-9.64316507267356,1.028737556125596
1759162939496445700,2.60644580078125,-1.4942707358814775,-9.631441317132115,1.0829886401426045
1759162939506502700,2.616502685546875,-1.5342149159960448,-9.618457916918397,1.140983367667347
1759162939516559600,2.6265595703125,-1.5746087395742534,-9.604293197965621,1.20355365947932
1759162939526616600,2.636616455078125,-1.6101679826028643,-9.58958019748032,1.271885437427461
1759162939536673500,2.646673583984375,-1.6336843211382626,-9.575355272772908,1.3468566533900797
1759162939546731500,2.6567314453125,-1.6393512608587741,-9.562123450756072,1.4313283958867191
1759162939556788500,2.66678857421875,-1.625528633341938,-9.549850244638323,1.5259123670749366
1759162939566845700,2.676845703125,-1.5944700627334416,-9.53818143415451,1.628237015517801
1759162939576902700,2.686902587890625,-1.551496451795101,-9.526838202363253,1.7327932224050164
1759162939586959600,2.696959716796875,-1.5023827306665478,-9.515972524955869,1.8328883582301436
1759162939597016600,2.7070166015625,-1.4499151690654455,-9.506259524714947,1.9233226623930035
1759162939607073500,2.717073486328125,-1.3921711283661424,-9.498834343150257,2.001094468859583
1759162939617131500,2.727131591796875,-1.325086135608703,-9.494575516662001,2.0658077640496195
1759162939627188500,2.7371884765625,-1.2448080454096198,-9.49382908220887,2.118505188883841
1759162939637245700,2.74724560546875,-1.1490478700488804,-9.496371752429008,2.1607881872095165
1759162939647302700,2.757302734375,-1.0365686881426721,-9.50166284457445,2.1941586880221964
1759162939657359600,2.767359619140625,-0.9062010905854403,-9.509176873466371,2.2191753481179473
1759162939667416600,2.77741650390625,-0.7581249639887362,-9.518308274427056,2.235495491538942
1759162939677474600,2.787474609375,-0.5943782073883339,-9.528608719167114,2.2411421191237864
1759162939687531500,2.797531494140625,-0.41916861120499666,-9.538893381816148,2.236999612491578
1759162939697588500,2.80758837890625,-0.23822651751795781,-9.548247485616802,2.2236409492246807
1759162939707645700,2.817645751953125,-0.05528911726127844,-9.557140401646494,2.1973611373253163
1759162939717702700,2.82770263671875,0.12778573697102255,-9.565086976736783,2.1594323886863886
1759162939727759600,2.837759521484375,0.3112719713160768,-9.571365326353908,2.1124539260208604
1759162939737817600,2.847817626953125,0.498730077567324,-9.57511035810113,2.0588667127400635
1759162939747874600,2.85787451171875,0.6945583546157926,-9.575227262479066,2.000752669684589
1759162939757931500,2.867931640625,0.9021119215756654,-9.570487374475597,1.9396796306930482
1759162939767988500,2.877988525390625,1.1227695194542406,-9.559997544643283,1.8751628809884189
1759162939778045700,2.888045654296875,1.3543027316123246,-9.543677108961344,1.8040226214908062
1759162939788103700,2.898103759765625,1.590074311992526,-9.522118188104033,1.7237525684677064
1759162939798160600,2.90816064453125,1.821234306924045,-9.49670609894991,1.6328122144788502
1759162939808217600,2.918217529296875,2.039698340281099,-9.468851877340674,1.5332576152712105
1759162939818274600,2.928274658203125,2.2440458777412773,-9.438424590373039,1.432063724423945
1759162939828331500,2.93833154296875,2.43691515885368,-9.404470298323035,1.3370771637842058
1759162939838388500,2.948388427734375,2.6122733331948518,-9.36885947123766,1.2533524402625857
1759162939848446700,2.95844677734375,2.759657020547986,-9.337121686193347,1.171681580530852
1759162939858503700,2.968503662109375,2.875954664763808,-9.314310719448327,1.0690548073362558
1759162939868560600,2.978560546875,2.9613863383337855,-9.304322409397363,0.9111346745301038
1759162939878617600,2.98861767578125,3.023487989720702,-9.304261619120835,0.6779498957727104
1759162939888674600,2.998674560546875,3.0747824158892034,-9.304482568395137,0.37778833387270566
1759162939898732500,3.008732666015625,3.124931179153919,-9.295292130723595,0.05235020969859324
1759162939908789800,3.018789794921875,3.1777149670973417,-9.273881678426266,-0.26007168970443306
1759162939918846700,3.0288466796875,3.240735194633901,-9.239868934187292,-0.5411414880456402
1759162939928903700,3.038903564453125,3.3233725613102316,-9.192291774976253,-0.7920531717494129
1759162939938960600,3.048960693359375,3.4258751966685055,-9.132088358426094,-1.0191861761871726
1759162939949018400,3.059018310546875,3.5474884829491375,-9.059549191915988,-1.2289302389286458
1759162939959075300,3.069075439453125,3.6820281785592432,-8.975815262174606,-1.4310145076319574
1759162939969132500,3.079132568359375,3.8277503624409435,-8.882262533730268,-1.6199107934601604
1759162939979189800,3.089189697265625,3.992349388489127,-8.77705268523991,-1.7874186926923692
1759162939989246700,3.099246826171875,4.17849885982722,-8.658863528189062,-1.9325186530224978
1759162939999304400,3.109304443359375,4.379472390809655,-8.530155899733305,-2.05597844395265
1759162940009361400,3.119361328125,4.6085541181623935,-8.388380115389824,-2.1369807567730543
1759162940019418400,3.12941845703125,4.85564584171921,-8.236898929589985,-2.178667981162667
1759162940029475300,3.139475341796875,5.104170228427648,-8.081475143644214,-2.1926197880171236
1759162940039532500,3.149532470703125,5.336529370015859,-7.929629800707102,-2.19381133588925
1759162940049590500,3.159590576171875,5.5635401363134385,-7.7802242521375415,-2.1646029231920836
1759162940059647500,3.1696474609375,5.777186978647112,-7.636146620592474,-2.1174910434052348
1759162940069704400,3.179704345703125,5.962205107867717,-7.505835064071416,-2.0700065309137106
1759162940079761400,3.189761474609375,6.117376380357146,-7.392991944223642,-2.022807557365298
1759162940089818400,3.199818359375,6.242931097739935,-7.299886959546804,-1.9768277503482996
1759162940099876600,3.209876708984375,6.333930050048232,-7.229729135215282,-1.9449236688263714
1759162940109933600,3.21993359375,6.404637324956059,-7.1767609306156634,-1.909218733716756
1759162940119990500,3.229990478515625,6.4553825928092,-7.139906825470924,-1.8762075677357613
1759162940130047500,3.240047607421875,6.482666321054101,-7.119893380489945,-1.8581006870284675
1759162940140105500,3.25010546875,6.4815726805984974,-7.118527352833747,-1.8671268740490077
1759162940150162400,3.260162353515625,6.4624687516778705,-7.130770163813233,-1.8865313933514058
1759162940160219600,3.2702197265625,6.4312061829298734,-7.15324853760302,-1.9081401446998119
1759162940170276600,3.280276611328125,6.385722196605801,-7.185667875170707,-1.9388446411736309
1759162940180333600,3.29033349609375,6.329640828421711,-7.225515901434421,-1.974325266008079
1759162940190391600,3.3003916015625,6.267360021075606,-7.270163436934351,-2.0088066506721076
1759162940200448500,3.310448486328125,6.202955061182379,-7.317098206588626,-2.0380856443874538
1759162940210505500,3.32050537109375,6.139255034688115,-7.364801038005948,-2.059040169610828
1759162940220562400,3.3305625,6.077126787555217,-7.413022340339422,-2.0702717577211556
1759162940230620700,3.34062060546875,6.015422318792343,-7.462593888238072,-2.0723843659609553
1759162940240677600,3.350677734375,5.951907585737109,-7.514530996224284,-2.0680917833335695
1759162940250734600,3.360734619140625,5.8853194365859025,-7.569173856037855,-2.0593692554347216
1759162940260791600,3.37079150390625,5.813684525439143,-7.627696187633275,-2.0468805068701506
1759162940270848500,3.3808486328125,5.734318727779388,-7.690753824570774,-2.034769067185372
1759162940280906800,3.39090673828125,5.6456888426899905,-7.756586771440506,-2.0327175414830445
1759162940290963700,3.400963623046875,5.5503831330984825,-7.820659138378501,-2.049616507705301
1759162940301020000,3.41102001953125,5.455150488743186,-7.87763716314137,-2.086758636011183
1759162940311076900,3.421076904296875,5.364329815611243,-7.928322225239873,-2.129805604446679
1759162940321135000,3.431135009765625,5.274470680987835,-7.9794924405068155,-2.162878437487036
1759162940331192000,3.441192138671875,5.212381012299657,-8.022462398183345,-2.1544293197020887
1759162940341249000,3.4512490234375,5.176982951182127,-8.056234903925656,-2.1133657801687717
1759162940351306000,3.461305908203125,5.155163918083906,-8.088795111268759,-2.0410976856850085
1759162940361364000,3.471364013671875,5.140194312489032,-8.120886532056332,-1.9493546370111405
1759162940371421000,3.4814208984375,5.132891295999288,-8.150892963263392,-1.840316170143336
1759162940381478000,3.491477783203125,5.129736631360649,-8.181358244153857,-1.7092565717339514
1759162940391535000,3.50153515625,5.121459801402688,-8.217318615329265,-1.5545774666756391
1759162940401593000,3.511593017578125,5.097109788522124,-8.26242441599071,-1.3864327308446167
1759162940411650000,3.521650146484375,5.04957880654037,-8.317504498177767,-1.221164646428451
1759162940421707000,3.53170703125,4.974215814781188,-8.383806816124915,-1.0673963726047426
1759162940431764000,3.541763916015625,4.869591657224297,-8.461350659054517,-0.9289794702351093
1759162940441822000,3.551822021484375,4.737837208418548,-8.547924196135996,-0.8101039383552968
1759162940451879000,3.56187890625,4.582054233771562,-8.641378140380978,-0.7083494179505855
1759162940461935900,3.571935791015625,4.407311414849758,-8.738389484846591,-0.6217308726835995
1759162940471993000,3.5819931640625,4.220431583410501,-8.835387969830633,-0.5424594753090292
1759162940482050800,3.59205078125,4.02731256532073,-8.929636863845586,-0.461226897396706
1759162940492107800,3.602107666015625,3.832044552503526,-9.019119566372037,-0.37588315783850845
1759162940502164700,3.612164794921875,3.639028118005395,-9.101846364897488,-0.29025864684386177
1759162940512222000,3.622221923828125,3.452260807029903,-9.176596777716279,-0.205797900665272
1759162940522280000,3.632280029296875,3.272773716190457,-9.243573633924125,-0.12526733354246244
1759162940532337000,3.6423369140625,3.0982755196794867,-9.304241160854696,-0.04675836734117474
1759162940542393900,3.652393798828125,2.927014697654545,-9.359599475461245,0.02946534431701293
1759162940552450800,3.662450927734375,2.758713017696142,-9.410045468106865,0.10455488257980905
1759162940562508800,3.6725087890625,2.5947210176303983,-9.455435346406698,0.18043045437047256
1759162940572566000,3.68256591796875,2.437874213144183,-9.495331887987255,0.2565425657302141
1759162940582623000,3.692623046875,2.2924201786793765,-9.529163430440425,0.33201782222483306
1759162940592680000,3.702679931640625,2.1624163729332384,-9.556634205690026,0.4063070107400417
1759162940602738000,3.712738037109375,2.050181448111683,-9.577811433753372,0.48237427831105884
1759162940612795000,3.722794921875,1.9570823086537419,-9.592854689106344,0.5633290621953084
1759162940622851800,3.732851806640625,1.8836717661365865,-9.602139234802126,0.6489030303128064
1759162940632908800,3.74290869140625,1.8254317586138844,-9.606894904896617,0.7387544930864125
1759162940642967000,3.752967041015625,1.7772355907216668,-9.608171500703692,0.8335922198399901
1759162940653024000,3.76302392578125,1.7356319529622792,-9.60668447701633,0.9325126127973198
1759162940663081000,3.7730810546875,1.696384376809746,-9.60356955986619,1.031558604895696
1759162940673138000,3.783137939453125,1.6562015656337141,-9.599975334766507,1.1259960072200745
1759162940683196000,3.79319580078125,1.6118717177808284,-9.596621932685375,1.2153536220621317
1759162940693253000,3.803253173828125,1.5614932374134658,-9.593911504682898,1.2996169094398617
1759162940703310000,3.81331005859375,1.5029660835124552,-9.592653029054402,1.3756732902906834
1759162940713368000,3.8233681640625,1.436202870055288,-9.593816812136769,1.4374918869525193
1759162940723425000,3.833425048828125,1.3594222665831446,-9.59814168959856,1.4825764986954628
1759162940733482000,3.84348193359375,1.2728328012801706,-9.605762685996293,1.5098334850639104
1759162940743539000,3.8535390625,1.1756014573883264,-9.61647580319047,1.5204437264055013
1759162940753597000,3.863596923828125,1.0682817771371453,-9.629740358433127,1.5156680364362896
1759162940763654000,3.87365380859375,0.9516685641661285,-9.644827452927828,1.4973447364993393
1759162940773710800,3.8837109375,0.8280711183309555,-9.661323829698562,1.4640703895375131
1759162940783768000,3.89376806640625,0.6988465533290058,-9.679038350087403,1.4135847955338656
1759162940793825800,3.90382568359375,0.5631315303292125,-9.697148591795564,1.3485364231705665
1759162940803882800,3.9138828125,0.4280011388169601,-9.713592946118116,1.2780015822201967
1759162940813940000,3.92393994140625,0.30195244563845913,-9.727471249344944,1.2064434626366942
1759162940823997000,3.933996826171875,0.17865809266939758,-9.73993793220818,1.1278559558730572
1759162940834055000,3.944054931640625,0.051884811543393874,-9.75086615345776,1.043206884048134
1759162940844112000,3.95411181640625,-0.07966013183067552,-9.758660168334842,0.9657144790448248
1759162940854168800,3.9641689453125,-0.20530138585260135,-9.762391171556711,0.9077320995450019
1759162940864226800,3.974226806640625,-0.3103254842462018,-9.76240987625718,0.8771765100225806
1759162940874284000,3.984283935546875,-0.3979180256444961,-9.759363348168135,0.8757249229747801
1759162940884341000,3.994341064453125,-0.4779134629772976,-9.75379227003753,0.8975033318016677
1759162940894398000,4.00439794921875,-0.5512756728406996,-9.74691244739592,0.9296135303549468
1759162940904456000,4.0144560546875,-0.612738880193606,-9.740727036759257,0.9556039308536797
1759162940914513000,4.024512939453125,-0.658209057188034,-9.736817754361033,0.9651621058590709
1759162940924569900,4.03456982421875,-0.6927605114135891,-9.735136084884404,0.9579142536226659
1759162940934628000,4.044628173828125,-0.7227231034789234,-9.734721074342728,0.9398274658553302
1759162940944685000,4.05468505859375,-0.7491459771107882,-9.734899353519081,0.9170169375017285
1759162940954742000,4.064741943359375,-0.7731479802712797,-9.7351249789685,0.8944126723099499
1759162940964799000,4.074799072265625,-0.7959228527896106,-9.735096337395905,0.8745240958176552
1759162940974857000,4.08485693359375,-0.8141506564628332,-9.735043730425835,0.858187658848986
1759162940984914000,4.094913818359375,-0.8250278051123022,-9.735201551336049,0.8459148180574179
1759162940994971100,4.10497119140625,-0.8301766392428428,-9.735320209279656,0.8394958909258246
1759162941005028900,4.11502880859375,-0.8309444087449461,-9.735340083023905,0.8385088526498525
1759162941015085800,4.1250859375,-0.8294695138867944,-9.735158881238103,0.8420563159983605
1759162941025142800,4.135142822265625,-0.8273906617861241,-9.734687172073125,0.8495093354180455
1759162941035200000,4.145199951171875,-0.8254895043399184,-9.733989252936839,0.8593108176600187
1759162941045258000,4.155258056640625,-0.8236875694844872,-9.733245156571268,0.8694128172185271
1759162941055315000,4.16531494140625,-0.8213137530252337,-9.732523856559395,0.8796697881430386
1759162941065372000,4.175371826171875,-0.8180448143571615,-9.731645904681086,0.8923270982075482
1759162941075430000,4.185429931640625,-0.8133859557006508,-9.730391520705819,0.9100931295879184
1759162941085486800,4.19548681640625,-0.8058658623941243,-9.728866503095626,0.9328087461996823
1759162941095543800,4.205543701171875,-0.7941035284079611,-9.727263744074106,0.9592244594383984
1759162941105602000,4.21560205078125,-0.7785643792968243,-9.725701901584863,0.9873845321264118
1759162941115659000,4.225658935546875,-0.7615338956493883,-9.724027830892801,1.0167132832676171
1759162941125716000,4.235716064453125,-0.7461741216931491,-9.722086049175262,1.046258088312298
1759162941135773000,4.24577294921875,-0.7376798495922238,-9.719937931230664,1.071926198054105
1759162941145831000,4.255830810546875,-0.7410315711729228,-9.718016607779264,1.0869234953735023
1759162941155887900,4.265887939453125,-0.7553226929843425,-9.716629537335038,1.0894960492752492
1759162941165945000,4.275945068359375,-0.7775697422362864,-9.715315532127022,1.0855581253044306
1759162941176003000,4.286003173828125,-0.8067728211712092,-9.713006670662761,1.0849173431828618
1759162941186060000,4.29606005859375,-0.8434914633680135,-9.708357383552194,1.0984875303085893
1759162941196117000,4.306116943359375,-0.8867199989154935,-9.700537065190076,1.1329947070010005
1759162941206174000,4.316174072265625,-0.9338599357530474,-9.689512397828697,1.188129222789034
1759162941216232000,4.32623193359375,-0.9808200590442866,-9.676049689665437,1.257949120403081
1759162941226289200,4.3362890625,-1.022871805897355,-9.661511461225151,1.3339116854906081
1759162941236346000,4.34634619140625,-1.0573928649846465,-9.647266078251599,1.408040459279716
1759162941246403800,4.35640380859375,-1.0847777885816992,-9.634149991568922,1.4754061686746776
1759162941256460800,4.366460693359375,-1.1064754603225737,-9.622508069092035,1.5340966964438556
1759162941266517800,4.376517822265625,-1.1210719217561185,-9.612474166333675,1.5855385682590304
1759162941276576000,4.386575927734375,-1.1260514637343584,-9.60378934009671,1.6338967948451637
1759162941286633000,4.396633056640625,-1.1166970676727592,-9.59601695252955,1.6851704704865813
1759162941296690000,4.40668994140625,-1.0878568307008594,-9.588693477773665,1.744687073816359
1759162941306748000,4.416747802734375,-1.035496748062223,-9.58141150407195,1.8151364284403622
1759162941316804900,4.426804931640625,-0.9578018062241375,-9.5741032268852,1.8946119700849056
1759162941326861800,4.43686181640625,-0.8558674722731113,-9.567558919808269,1.9747639496862888
1759162941336920000,4.446920166015625,-0.7336481829233468,-9.563211245992779,2.043807675296068
1759162941346977000,4.45697705078125,-0.5965289922140539,-9.5618837967813,2.0940232201866804
1759162941357034000,4.467033935546875,-0.4498597732732072,-9.563858896246552,2.121469445516914
1759162941367091000,4.477091064453125,-0.29820184266697614,-9.568559036761522,2.1270050139427186
1759162941377149000,4.48714892578125,-0.14364481135206297,-9.57577846662104,2.11050600682348
1759162941387206000,4.497205810546875,0.012487650302739347,-9.584226561492681,2.076738761778176
1759162941397263000,4.50726318359375,0.1709756484080106,-9.593568974855541,2.025972012745589
1759162941407321000,4.517321044921875,0.32984741938319057,-9.60222457499802,1.9644019840173421
1759162941417378000,4.5273779296875,0.4895522801816463,-9.611378187790512,1.884719229362905
1759162941427435000,4.53743505859375,0.6497966181516647,-9.621449499949811,1.7820947211906313
1759162941437492700,4.54749267578125,0.8128761795476078,-9.631346624585985,1.6573462056241928
1759162941447549700,4.5575498046875,0.9822945885762572,-9.638318801686166,1.5193093155480921
1759162941457607000,4.56760693359375,1.1605681389074771,-9.639013798213005,1.3830693918913601
1759162941467665000,4.577664794921875,1.3488209392003714,-9.631037412506341,1.2625998688183724
1759162941477721900,4.587721923828125,1.5435207967408,-9.613661330291627,1.1685288886535912
1759162941487778800,4.59777880859375,1.7383245530471205,-9.588028291863202,1.103781691193953
1759162941497836800,4.6078369140625,1.9329075062096117,-9.556319148391484,1.0540627707138657
1759162941507894000,4.61789404296875,2.12745831066817,-9.520517182648181,1.0020337466605007
1759162941517951000,4.627950927734375,2.3112496745727955,-9.48443289283216,0.934896731454879
1759162941528009000,4.638009033203125,2.4600781539067627,-9.455949141147732,0.8386947306107729
1759162941538066000,4.64806591796875,2.5494451210990547,-9.443817389327288,0.6964264135099947
1759162941548123000,4.658122802734375,2.5921795164540407,-9.444287344926595,0.5063950592372566
1759162941558179800,4.668179931640625,2.614744399483502,-9.447462467831373,0.2809963860451244
1759162941568238000,4.678238037109375,2.635645733214915,-9.445755663913488,0.03834280019938014
1759162941578295000,4.688294921875,2.661210967104137,-9.43621977380514,-0.21468924579238519
1759162941588352000,4.69835205078125,2.6953075902342793,-9.417405183219909,-0.4670769385991618
1759162941598410000,4.708409912109375,2.744930868320167,-9.387439668545126,-0.7153457796439529
1759162941608467000,4.718467041015625,2.807412166674435,-9.34658801819682,-0.9644331339973956
1759162941618524000,4.72852392578125,2.878707178342342,-9.295821707555652,-1.212905205996707
1759162941628582000,4.738581787109375,2.9693130396798253,-9.233552590647339,-1.4474423492111266
1759162941638638800,4.748638916015625,3.085431820197403,-9.158809776613115,-1.6633420850381253
1759162941648696000,4.758696044921875,3.2250787758186457,-9.072553634917735,-1.859579381278902
1759162941658753800,4.76875390625,3.384504783143103,-8.976617226207257,-2.0336783493392168
1759162941668810800,4.778810791015625,3.5653289678052067,-8.870593138724566,-2.1843501184523104
1759162941678868000,4.788867919921875,3.75503087092787,-8.755619436588884,-2.325778112271428
1759162941688926000,4.798926025390625,3.951282341824472,-8.631590905860065,-2.4603648618936536
1759162941698983000,4.80898291015625,4.168278202325105,-8.496409112954138,-2.570386202318966
1759162941709039900,4.819039794921875,4.4064735027208926,-8.35203571333289,-2.645164087666571
1759162941719097900,4.829097900390625,4.6476402201429,-8.204614032056927,-2.69334827286005
1759162941729154800,4.83915478515625,4.876569387282431,-8.05955148112774,-2.7263667453646656
1759162941739212000,4.8492119140625,5.098707286846637,-7.917422645562887,-2.736417599257827
1759162941749270000,4.85927001953125,5.324142766651511,-7.775842091530561,-2.7129621971294284
1759162941759327000,4.869326904296875,5.533817198222875,-7.641608977651596,-2.6745202382713553
1759162941769384000,4.879384033203125,5.718902547460794,-7.520382060340046,-2.6283818796917795
1759162941779442000,4.88944189453125,5.877631220170855,-7.4147016717284915,-2.577990247581899
1759162941789499100,4.8994990234375,6.009045184975862,-7.326121470999717,-2.5277850779548285
1759162941799556000,4.90955615234375,6.115585989809036,-7.254849547946453,-2.4773276871323584
1759162941809613800,4.91961376953125,6.197059573403,-7.200819267073273,-2.4320845238268376
1759162941819671000,4.929671142578125,6.254123522883654,-7.163630815407633,-2.3955624271154403
1759162941829728000,4.93972802734375,6.2872887103825805,-7.142606147557497,-2.3714044296756387
1759162941839786000,4.949785888671875,6.296861425369977,-7.136764435791969,-2.3635807503126562
1759162941849843000,4.959843017578125,6.284667714229226,-7.145392563405633,-2.3699577379986643
1759162941859900000,4.96989990234375,6.250552678659558,-7.168102992385625,-2.3914997077211737
1759162941869958000,4.9799580078125,6.196584357106685,-7.20310065600872,-2.4265325887881217
1759162941880014800,4.990014892578125,6.127008716577291,-7.247516136318445,-2.470558046866953
1759162941890071800,5.00007177734375,6.045699968156218,-7.299009592190385,-2.5187995152056217
1759162941900130000,5.010130126953125,5.958635432687402,-7.353832484745979,-2.566358261977136
1759162941910187000,5.02018701171875,5.8712809743613,-7.409400058189034,-2.6075354910179973
1759162941920244000,5.030243896484375,5.787932244545221,-7.464192555606365,-2.6374337856754657
1759162941930302000,5.040302001953125,5.710459128764271,-7.517246684923768,-2.6555697463467713
1759162941940359000,5.05035888671875,5.638233850508928,-7.568279537546634,-2.664930864410102
1759162941950416000,5.060415771484375,5.568164873504639,-7.6188202227383846,-2.668239842827618
1759162941960474000,5.07047412109375,5.493831224793196,-7.674342787995934,-2.663207401618361
1759162941970531000,5.080531005859375,5.409308775022626,-7.738129323729872,-2.65162802298367
1759162941980588000,5.090588134765625,5.31522939235568,-7.804464959424734,-2.64745950512737
1759162941990645800,5.100645751953125,5.222486226728559,-7.86226949813962,-2.6609651756495234
1759162942000703000,5.110702880859375,5.1363212704479695,-7.91072227114141,-2.684972074180841
1759162942010760000,5.120760009765625,5.062108033245802,-7.95630270357728,-2.691226166139543
1759162942020818000,5.13081787109375,5.013403331309557,-7.996570416557788,-2.662898189538717
1759162942030875000,5.140875,4.985833187338709,-8.032142665198444,-2.6070178968846798
1759162942040931800,5.150931884765625,4.97383996720612,-8.066077083504199,-2.5238299105882644
1759162942050989800,5.16098974609375,4.9611412291526795,-8.10389798785448,-2.4257585356757043
1759162942061046800,5.171046875,4.940712189108133,-8.145783072903752,-2.325072886611521
1759162942071104000,5.18110400390625,4.914613871255517,-8.189852516254783,-2.2233464963227507
1759162942081162000,5.191161865234375,4.873239366076886,-8.242155534943938,-2.118678791885078
1759162942091219000,5.201218994140625,4.81159451854676,-8.304845507612823,-2.012084211038053
1759162942101276000,5.21127587890625,4.729661793008447,-8.375752104485034,-1.909835258179903
1759162942111334000,5.221333984375,4.626942884550989,-8.453919632270932,-1.8146749484084546
1759162942121390800,5.231390869140625,4.5033036454007025,-8.538673552709817,-1.7267615410253405
1759162942131448000,5.241447998046875,4.360635003870725,-8.628183727765084,-1.6461143252529202
1759162942141506000,5.251506103515625,4.202206483151018,-8.720625280097126,-1.569245751236379
1759162942151563000,5.26156298828125,4.031379376368224,-8.814625167787074,-1.4902128387928009
1759162942161620700,5.271620849609375,3.8520053905144334,-8.908038780021666,-1.406868346760422
1759162942171678000,5.281677978515625,3.669770170010626,-8.998117110353707,-1.3179704583846032
1759162942181735000,5.29173486328125,3.4907962893903255,-9.082439653638005,-1.2223070213966072
1759162942191793000,5.30179296875,3.319624314692616,-9.159353966492414,-1.1210410882264374
1759162942201849900,5.311849853515625,3.157743023170531,-9.228575971278548,-1.016090109867975
1759162942211906800,5.32190673828125,3.004994886174798,-9.290401436072587,-0.9104104519087821
1759162942221964800,5.33196484375,2.8611060552001,-9.34521088462472,-0.8071395355917513
1759162942232022000,5.34202197265625,2.723637612661719,-9.394284419873356,-0.7068173860777169
1759162942242079000,5.352078857421875,2.590228966908157,-9.438825572389364,-0.6080237247725948
1759162942252137000,5.362136962890625,2.459619888745248,-9.479534599396587,-0.5090120368026196
1759162942262194000,5.37219384765625,2.3321156447298823,-9.516621344253421,-0.4068738873751834
1759162942272251000,5.3822509765625,2.210461734177917,-9.549513560029864,-0.3016949272134341
1759162942282309000,5.39230908203125,2.098161342904717,-9.57762672483623,-0.19277822356177493
1759162942292366600,5.40236669921875,1.999949390477687,-9.600190438821912,-0.08319613307025284
1759162942302423600,5.412423583984375,1.9186459027536211,-9.617100657090544,0.023329688822920434
1759162942312481300,5.422481201171875,1.8559379560366271,-9.628605801445245,0.125832958935434
1759162942322538500,5.43253857421875,1.8066992933541535,-9.636182374179363,0.22410655102236196
1759162942332595500,5.442595458984375,1.7650715440668165,-9.641132690063118,0.321689283901453
1759162942342653400,5.4526533203125,1.726089779243618,-9.644404843601583,0.4200495952906087
1759162942352710400,5.46271044921875,1.68448248822242,-9.646953943562506,0.5188326256038621
1759162942362767400,5.472767333984375,1.639894281694293,-9.648917937111854,0.6160444245450198
1759162942372825300,5.482825439453125,1.5932795377746223,-9.650278119549155,0.70991199109219
1759162942382882300,5.49288232421875,1.5446527233801781,-9.651176529693602,0.7995147398017346
1759162942392940300,5.502940185546875,1.4952315437376498,-9.651806644290685,0.8816505866967141
1759162942402997500,5.51299755859375,1.44364997119084,-9.65293652510345,0.9524067422475665
1759162942413054500,5.523054443359375,1.3844561700746416,-9.655697221988438,1.01053488689363
1759162942423112400,5.533112548828125,1.3134446515232323,-9.6608965441972,1.0546711849357933
1759162942433169400,5.54316943359375,1.2287433380544186,-9.668851302593946,1.0834697016578168
1759162942443226400,5.553226318359375,1.1302255345486103,-9.679153500899671,1.0986218242127448
1759162942453284600,5.56328466796875,1.0196177725374698,-9.691027478566765,1.1021568664710968
1759162942463341600,5.573341552734375,0.9017555093534291,-9.70394599685073,1.0911742116205394
1759162942473398500,5.5833984375,0.7815083237942307,-9.716646488469838,1.070710757849738
1759162942483456300,5.593456298828125,0.6606104192413389,-9.728385441580414,1.0452280146121977
1759162942493513500,5.603513427734375,0.5358202564902603,-9.739585465508698,1.0118073179822415
1759162942503570400,5.6135703125,0.40650227758381513,-9.750428931084274,0.9665901659008115
1759162942513628400,5.62362841796875,0.27573583516841754,-9.760163558635115,0.9129852708328515
1759162942523685400,5.633685302734375,0.14981495135435835,-9.767828394174575,0.8587517955377697
1759162942533743400,5.643743408203125,0.035862904433591754,-9.773667183330655,0.8028271522853523
1759162942543800300,5.65380029296875,-0.06533208467550575,-9.778514623361826,0.7394458363514393
1759162942553857300,5.663857177734375,-0.16079718607980756,-9.78242156767249,0.669897522220388
1759162942563915500,5.67391552734375,-0.26016917699584735,-9.784431738451122,0.6062860507924109
1759162942573972500,5.683972412109375,-0.3623672216506675,-9.784022573128341,0.5585440564084798
1759162942584029400,5.694029541015625,-0.4598709162104875,-9.78173124732077,0.5259672267241403
1759162942594087400,5.70408740234375,-0.5447307447092608,-9.7786180837363,0.5022836418630555
1759162942604144400,5.714144287109375,-0.6168999453958124,-9.77488708051443,0.49132999391127374
1759162942614201300,5.724201416015625,-0.6821902367562055,-9.770089909365772,0.5003636701185256
1759162942624259600,5.734259521484375,-0.7449702988613397,-9.764215464374422,0.5248882723810151
1759162942634316500,5.744316650390625,-0.8050603912301361,-9.757910226750374,0.5526623779587447
1759162942644373500,5.75437353515625,-0.8608339355740696,-9.752027013930677,0.5721248014608398
1759162942654431200,5.76443115234375,-0.9071838180124759,-9.74738123395145,0.5795953930698334
1759162942664488200,5.77448828125,-0.9427518288694322,-9.743940738108753,0.5807185153482481
1759162942674545400,5.78454541015625,-0.9692969406414776,-9.741437815377116,0.5789764209212735
1759162942684603400,5.794603271484375,-0.9932846960809081,-9.739132461044191,0.5771028821343556
1759162942694660400,5.804660400390625,-1.021768959221989,-9.736028649809956,0.5797350572688504
1759162942704718300,5.81471826171875,-1.0608875752326101,-9.73107891844809,0.5924577607197686
1759162942714775300,5.824775390625,-1.1125906552672387,-9.72371335811615,0.6180016960926353
1759162942724832300,5.834832275390625,-1.1707627121202646,-9.714462714689969,0.6549035859018564
1759162942734890500,5.844890380859375,-1.2261850318737326,-9.704611767283081,0.6981088136389851
1759162942744947500,5.854947509765625,-1.2724585611402988,-9.695420745089649,0.741641958156228
1759162942755004400,5.86500439453125,-1.3048584633551537,-9.688195470011234,0.7788385200630873
1759162942765062400,5.8750625,-1.3183458675682544,-9.684268067434429,0.8045533915560692
1759162942775119400,5.885119384765625,-1.3143185117483138,-9.683535076984763,0.8198341089267284
1759162942785176300,5.89517626953125,-1.3010346672832964,-9.68463865431249,0.8279539216920733
1759162942795234600,5.905234619140625,-1.2885126009710133,-9.68568494849503,0.835242909656465
1759162942805291500,5.91529150390625,-1.2826162364087998,-9.685341834145785,0.8481943072967231
1759162942815348500,5.925348388671875,-1.283465400584042,-9.683307113447785,0.8698737857937813
1759162942825406200,5.93540625,-1.2869754545316099,-9.680254155617952,0.8981916063267738
1759162942835463200,5.945463134765625,-1.2855239405490457,-9.677757078105211,0.9267281841769814
1759162942845521400,5.955521484375,-1.2734718298360705,-9.67704980661869,0.9504454521119594
1759162942855578400,5.965578369140625,-1.2529700168162583,-9.677913145449757,0.9687157797526568
1759162942865635300,5.97563525390625,-1.2340157254993915,-9.679046533393858,0.9816733148727566
1759162942875693300,5.985693359375,-1.2287054902620613,-9.678950671803952,0.9892398776695132
1759162942885750300,5.995750244140625,-1.2460600912973283,-9.676041506358981,0.9959615140747279
1759162942895807500,6.005807373046875,-1.2880287629768252,-9.668839027634263,1.0123780305422843
1759162942905865500,6.015865478515625,-1.3491069165349006,-9.656807813578844,1.0470580795835702
1759162942915922400,6.02592236328125,-1.4188706269823015,-9.640950319233536,1.0996670954819767
1759162942925979400,6.0359794921875,-1.4858372540570794,-9.623093760025501,1.1656389393657445
1759162942936037400,6.046037353515625,-1.5401317388243971,-9.605336569538713,1.2393120783418416
1759162942946094600,6.056094482421875,-1.5766270936593412,-9.58918739877045,1.3161119710363447
1759162942956152300,6.06615234375,-1.5974128381870687,-9.574577858659625,1.3950408385835587
1759162942966209500,6.07620947265625,-1.6091666966058313,-9.561147883722185,1.4715328343726695
1759162942976266500,6.0862666015625,-1.619732514283806,-9.54830710684955,1.541651057346165
1759162942986324200,6.09632421875,-1.6305669197700916,-9.53540086352527,1.60865611673519
1759162942996381200,6.106381103515625,-1.63788104217574,-9.522772852620482,1.6746688040859996
1759162943006438400,6.1164384765625,-1.6341716662637888,-9.511267123743892,1.742312745900452
1759162943016496400,6.126496337890625,-1.610661757469177,-9.502213464194536,1.8122024208150802
1759162943026553300,6.13655322265625,-1.5606784138992429,-9.496935231530665,1.8822613148167728
1759162943036610300,6.1466103515625,-1.4827679296143352,-9.496091181921958,1.9483403454020618
1759162943046668300,6.156668212890625,-1.3792039486348628,-9.49985550289154,2.005218709182739
1759162943056725500,6.1667255859375,-1.2521711215235292,-9.508650803765654,2.0464688573293386
1759162943066782500,6.176782470703125,-1.1043932472210376,-9.522063827568292,2.069057121234387
1759162943076840400,6.18684033203125,-0.9378437446922063,-9.539607083043455,2.0704484294623136
1759162943086897400,6.1968974609375,-0.7534223392557352,-9.560497310858965,2.0493014504067597
1759162943096955400,6.206955322265625,-0.552420239765942,-9.582999065524339,2.0078250922888516
1759162943107012600,6.2170126953125,-0.338038434221223,-9.604776013046502,1.9504890478685497
1759162943117069600,6.227069580078125,-0.11634819622612558,-9.623192544224858,1.8844089943699538
1759162943127127300,6.237127197265625,0.10499328313022852,-9.63490344028473,1.8242714826628565
1759162943137184300,6.247184326171875,0.32401005499921737,-9.640872577822208,1.7660620164088905
1759162943147241500,6.257241455078125,0.53713919360172,-9.642855276072025,1.7021251124188304
1759162943157299200,6.26729931640625,0.7388580995913595,-9.644078095865249,1.617478451746702
1759162943167356400,6.2773564453125,0.9281921923149377,-9.645870239979027,1.505341726602614
1759162943177413400,6.287413330078125,1.1061316153209655,-9.646953943562506,1.372273272588849
1759162943187471400,6.297471435546875,1.2741174342632293,-9.645410805773734,1.230073271483928
1759162943197528300,6.3075283203125,1.4314118363864718,-9.640213821652532,1.0898303227309136
1759162943207586300,6.31758642578125,1.5776526373147963,-9.630875499942897,0.9631486471448093
1759162943217643500,6.3276435546875,1.711823791873455,-9.617786885789036,0.8592013659361749
1759162943227700500,6.337700439453125,1.8264101021267474,-9.60360463117957,0.7780768149755894
1759162943237758500,6.347758544921875,1.9202925009168683,-9.591244915822148,0.7006461500968784
1759162943247815400,6.3578154296875,2.0018669145368038,-9.581127426433563,0.6040734893094748
1759162943257872400,6.367872314453125,2.0795538191989063,-9.571641220685839,0.47908250675667075
1759162943267930600,6.3779306640625,2.160953899165243,-9.559773672759531,0.33374409802816807
1759162943277987600,6.387987548828125,2.241548215706646,-9.54547509829402,0.17253749089725315
1759162943288044500,6.39804443359375,2.3149995286256075,-9.52948900913298,-0.004609658353077247
1759162943298102500,6.4081025390625,2.375465395504236,-9.512503387540578,-0.19961265442539006
1759162943308159500,6.418159423828125,2.4171337690629064,-9.494896419179438,-0.4180872822416946
1759162943318217700,6.4282177734375,2.439394992970675,-9.475519518536329,-0.6589872750189155
1759162943328274700,6.438274658203125,2.446273354307562,-9.452636071076988,-0.9131159845404326
1759162943338331600,6.44833154296875,2.4464475418306884,-9.424709368753433,-1.1662461114786564
1759162943348389600,6.4583896484375,2.450301879171282,-9.391020449641346,-1.4053931596413254
1759162943358446600,6.468446533203125,2.4742428728595374,-9.350533540952204,-1.6174163462959228
1759162943368503600,6.478503662109375,2.531557289969921,-9.30205387994349,-1.7981686347655952
1759162943378561800,6.488561767578125,2.618294200919568,-9.245142490676045,-1.9601728220149874
1759162943388618800,6.49861865234375,2.7290935399800538,-9.180180481421948,-2.108724384103715
1759162943398675700,6.50867578125,2.8634193005785344,-9.106729460763932,-2.244700834518671
1759162943408733700,6.518733642578125,3.0182556420251725,-9.024248161432146,-2.3713797336257993
1759162943418790700,6.528790771484375,3.201132375302911,-8.932074904647468,-2.478141633863747
1759162943428848600,6.5388486328125,3.402945864240825,-8.831412636458873,-2.568365217885375
1759162943438905600,6.548905517578125,3.6035038001596926,-8.72765006416738,-2.648258254289627
1759162943448962800,6.558962890625,3.800227564743161,-8.624540402826666,-2.7103444158464667
1759162943459020500,6.5690205078125,4.003072150294482,-8.520993519112467,-2.745628202934563
1759162943469077500,6.579077392578125,4.203618103514612,-8.418500528365373,-2.7620336865514514
1759162943479134700,6.589134765625,4.388830586263537,-8.319301902988553,-2.7744845873236654
1759162943489192700,6.599192626953125,4.565779390797019,-8.223989179134369,-2.773090210355818
1759162943499249700,6.609249755859375,4.736707327605783,-8.132697965881228,-2.7555785190626976
1759162943509307600,6.6193076171875,4.887509883491695,-8.049501211756468,-2.7364509170055387
1759162943519364600,6.629364501953125,5.016597158914804,-7.976383368575572,-2.7168852157920598
1759162943529421800,6.639421875,5.125500016704201,-7.913250912836194,-2.6981664867967368
1759162943539479800,6.649479736328125,5.212552861735224,-7.860359865126013,-2.685968099480867
1759162943549536800,6.659536865234375,5.27341678802073,-7.819126521983742,-2.687510945008695
1759162943559593700,6.66959375,5.3070098455429076,-7.7902780286401505,-2.705103884844482
1759162943569651700,6.679651611328125,5.326778375852108,-7.770782470053434,-2.7222686623960732
1759162943579708700,6.689708740234375,5.325965890425444,-7.761739916419982,-2.7495217032417654
1759162943589766000,6.699765869140625,5.307988335186243,-7.7617825865179295,-2.7839479967176914
1759162943599823600,6.70982373046875,5.276489035072922,-7.769750788918137,-2.8213500911340117
1759162943609880600,6.719880615234375,5.233632474642992,-7.78511377774477,-2.858579167070985
1759162943619938600,6.7299384765625,5.183367099261283,-7.806997108250856,-2.890309353330731
1759162943629995500,6.73999560546875,5.128409182149172,-7.834612844929099,-2.9135268550500273
1759162943640052700,6.750052734375,5.07048423192501,-7.867444270429015,-2.9264138091519474
1759162943650110700,6.76011083984375,5.01216648299098,-7.905117875263095,-2.9253543632268904
1759162943660167700,6.770167724609375,4.953987265744805,-7.947589235767722,-2.9093349563181397
1759162943670224600,6.780224609375,4.896511228331923,-7.993930131182074,-2.879522586378455
1759162943680282600,6.79028271484375,4.838507367652654,-8.044006705993413,-2.8378146114617584
1759162943690339800,6.80033984375,4.7759731700673695,-8.095462167942523,-2.7971333492442962
1759162943700396800,6.810396728515625,4.704566806979477,-8.145249988940357,-2.77350668220222
1759162943710454800,6.820454833984375,4.619524424988031,-8.190612979233265,-2.7828467574775217
1759162943720511700,6.83051171875,4.508168913349509,-8.238229301410913,-2.824601201884448
1759162943730569700,6.84056982421875,4.4153149808242915,-8.287800264787673,-2.8262615363121033
1759162943740626700,6.850626708984375,4.346146752052009,-8.335351120513677,-2.7934418012499806
1759162943750684000,6.860683837890625,4.300940413625538,-8.37550017555058,-2.74286487570107
1759162943760741600,6.87074169921875,4.274851155862212,-8.412903731271625,-2.668163562721014
1759162943770798600,6.880798583984375,4.25389195446372,-8.451530691307783,-2.578067988993227
1759162943780855600,6.89085546875,4.235719753435254,-8.489777127593754,-2.4804753375083206
1759162943790913500,6.90091357421875,4.218985768516362,-8.529056414058804,-2.371865617446601
1759162943800970800,6.910970703125,4.196399842698872,-8.57234785877466,-2.2528782957553863
1759162943811027700,6.92102783203125,4.161196427370608,-8.619978793999552,-2.1332551603786647
1759162943821085700,6.931085693359375,4.1073491018489,-8.672333250615,-2.0225491986900566
1759162943831142700,6.941142578125,4.0300791074246165,-8.731869143167138,-1.9191987143307923
1759162943841200600,6.95120068359375,3.927104470640421,-8.800238915038108,-1.8177014566227792
1759162943851257900,6.9612578125,3.800636145544052,-8.875947359234095,-1.715547050180286
1759162943861314800,6.971314697265625,3.6527176206618543,-8.957584024435281,-1.6092590510644018
1759162943871372800,6.981372802734375,3.487698615635931,-9.042644234344362,-1.495635302232951
1759162943881429800,6.9914296875,3.312330942814052,-9.127946436315774,-1.370919519892335
1759162943891486700,7.00148681640625,3.1318846515536305,-9.2109865385741,-1.232642099058628
1759162943901544400,7.01154443359375,2.95136237244755,-9.288636179965733,-1.0867769265096634
1759162943911601700,7.0216015625,2.7776535727486014,-9.358004315224289,-0.9395601932212709
1759162943921659000,7.031658935546875,2.614641523630917,-9.418209485340117,-0.794586635749787
1759162943931716600,7.041716552734375,2.464612290205061,-9.469152906113862,-0.6566621930722147
1759162943941773600,7.051773681640625,2.32960702290982,-9.511208671554922,-0.5293656004581601
1759162943951831600,7.06183154296875,2.2093244007110595,-9.54553121239543,-0.41486020995397116
1759162943961888800,7.071888671875,2.1034325613059104,-9.573266191539167,-0.3139195266827941
1759162943971945700,7.08194580078125,2.0095839186549185,-9.59607189758718,-0.21761516144275664
1759162943982003700,7.092003662109375,1.9243422146990894,-9.615287470188736,-0.11635925647625699
1759162943992060700,7.102060791015625,1.8448948762357233,-9.631545946550368,-0.007906519357825163
1759162944002117600,7.11211767578125,1.7705290788203476,-9.644890581291913,0.10811096762618981
1759162944012176000,7.12217578125,1.7035770647928117,-9.654906948393583,0.2258173552619293
1759162944022232800,7.13223291015625,1.6457672653809188,-9.661574589589238,0.34032965043094004
1759162944032290800,7.142290771484375,1.5979606813281773,-9.665174075385927,0.44869814561530946
1759162944042347800,7.15234765625,1.5504530802220104,-9.666589202880859,0.5688074570737779
1759162944052404700,7.16240478515625,1.496065802604705,-9.665724110484122,0.7113025686677545
1759162944062462500,7.17246240234375,1.4351581833079456,-9.662350250136852,0.8658405116897075
1759162944072519700,7.182519775390625,1.3731376343332231,-9.656940500047803,1.0140833000902085
1759162944082576600,7.19257666015625,1.3134345685206352,-9.650251816064118,1.14800449847579
1759162944092634600,7.202634521484375,1.2562750497110187,-9.643135262057184,1.265737874583155
1759162944102691600,7.212691650390625,1.198304141453281,-9.636950435942412,1.3651457587964833
1759162944112748500,7.22274853515625,1.137175207556039,-9.63286755054295,1.4439805183194576
1759162944122806800,7.232806884765625,1.0721562804829328,-9.630582069954276,1.5075642249576746
1759162944132863700,7.24286376953125,1.0053496662754564,-9.629186816203594,1.5615524202547966
1759162944142921700,7.252921630859375,0.9377444490361958,-9.628170917159318,1.6091484302967787
1759162944152978700,7.262978759765625,0.8656370250068605,-9.629570847085118,1.6408660493358969
1759162944163035600,7.27303564453125,0.7853866265323013,-9.633926119685173,1.6556063762195408
1759162944173094000,7.283093994140625,0.6927397608865052,-9.639555065482854,1.6641710832081733
1759162944183150800,7.29315087890625,0.5860579036148265,-9.645310268008709,1.6718055236093698
1759162944193207800,7.303207763671875,0.469306158955954,-9.651327336341142,1.6739276303298771
1759162944203265800,7.313265869140625,0.3486941952049732,-9.65819546854496,1.6637496429257095
1759162944213322800,7.32332275390625,0.22599738800395278,-9.665753921100496,1.6408822698183356
1759162944223379700,7.333379638671875,0.10650210765744558,-9.672547234502435,1.6127245352178812
1759162944233437700,7.343437744140625,-0.00254008411035029,-9.677396428099273,1.5869485811874269
1759162944243494700,7.35349462890625,-0.09834968953044153,-9.68262322283685,1.5516142329558729
1759162944253552600,7.363552734375,-0.19386019184589384,-9.6907194355309,1.4908926377505063
1759162944263609600,7.373609619140625,-0.3041005270504393,-9.699867787626385,1.410841780436039
1759162944273666600,7.38366650390625,-0.42537327453140167,-9.707211720648408,1.3264577162228524
1759162944283724800,7.393724853515625,-0.5459287223221734,-9.711549457591772,1.2482703146927059
1759162944293781800,7.40378173828125,-0.6544309999540447,-9.713217683064936,1.1813094597715883
1759162944303838700,7.413838623046875,-0.7497991072572767,-9.712065005898475,1.1331125612270085
1759162944313896700,7.423896728515625,-0.8335911969266832,-9.708291332578659,1.1066159647718072
1759162944323954000,7.433953857421875,-0.9081891225975006,-9.703196055266261,1.0925044373109936
1759162944334012000,7.444011962890625,-0.9796753459885715,-9.696904846167564,1.0865760701753198
1759162944344068900,7.45406884765625,-1.0473817585799843,-9.689524088266491,1.0892615829322487
1759162944354125800,7.464125732421875,-1.1078041516430674,-9.682149760106205,1.0950598939474672
1759162944364183600,7.47418359375,-1.1585229698807,-9.675274613639711,1.10331202785559
1759162944374240800,7.48424072265625,-1.1922986174281687,-9.670113869875669,1.1125293535340577
1759162944384297700,7.494297607421875,-1.2082482470363378,-9.666896076872945,1.123245101076737
1759162944394355700,7.504355712890625,-1.2142388657532632,-9.664829207471012,1.1344961245398968
1759162944404412700,7.51441259765625,-1.2205936416074632,-9.662703301358222,1.1457395492184907
1759162944414469600,7.5244697265625,-1.2320841729149221,-9.65972282424271,1.1584964471999555
1759162944424528000,7.53452783203125,-1.2494414042986928,-9.65569313033521,1.1734000018212944
1759162944434584800,7.544584716796875,-1.2727506759546696,-9.650745152539015,1.1889504029788076
1759162944444642800,7.554642822265625,-1.301060093985498,-9.645275781217217,1.202601619451493
1759162944454699800,7.56469970703125,-1.331356740310788,-9.639976505765318,1.211906331152469
1759162944464756700,7.5747568359375,-1.3591867042616008,-9.63549497643709,1.216652283570543
1759162944474814700,7.584814697265625,-1.380587219686806,-9.632181906366348,1.2187980634275823
1759162944484872000,7.594871826171875,-1.3936298027418552,-9.630006315892935,1.2211267986360936
1759162944494929000,7.604928955078125,-1.398475781468302,-9.628867082729935,1.2245713861320167
1759162944504987000,7.61498681640625,-1.397948981115222,-9.628312371456623,1.2295261589951811
1759162944515043800,7.6250439453125,-1.3948311413556336,-9.627650108155608,1.2382235524527727
1759162944525100800,7.635100830078125,-1.391858701416105,-9.6259672696352,1.2545451571784914
1759162944535158800,7.64515869140625,-1.39024542100057,-9.622745384979247,1.2807596487566828
1759162944545215700,7.6552158203125,-1.3894034172184764,-9.618131169182062,1.3158654489293693
1759162944555273700,7.665273681640625,-1.3896962626852094,-9.612254386103153,1.357829590564221
1759162944565330700,7.67533056640625,-1.3890332687318325,-9.60591699977517,1.40262427944988
1759162944575387600,7.6853876953125,-1.3833511314421891,-9.600086978447436,1.4474419108197092
1759162944585446000,7.69544580078125,-1.372718239877373,-9.594633973738551,1.4930008620761335
1759162944595502800,7.7055029296875,-1.3621715652912854,-9.588649638631939,1.5403464044883846
1759162944605559800,7.715559814453125,-1.360454824501276,-9.580178162884712,1.5936603537857532
1759162944615617800,7.72561767578125,-1.3749427840590476,-9.568062777677177,1.6529079309158026
1759162944625674800,7.7356748046875,-1.4076983678437769,-9.553373158067464,1.7093366512328385
1759162944635733000,7.74573291015625,-1.4571499426245689,-9.537722584471107,1.7546927733935416
1759162944645790000,7.7557900390625,-1.5191570475958287,-9.52167687407732,1.788914484208077
1759162944655847000,7.765846923828125,-1.5857904971934853,-9.505364037179946,1.8176175777316093
1759162944665904600,7.775904541015625,-1.6453699366264045,-9.489014959925413,1.8497927312798796
1759162944675961900,7.7859619140625,-1.6896249656774103,-9.472679326674342,1.893114571134001
1759162944686018800,7.796018798828125,-1.7196284742750227,-9.456627186539768,1.9456237799197433
1759162944696076800,7.806076904296875,-1.741883268442005,-9.441156061163545,2.0001973738893866
1759162944706133800,7.8161337890625,-1.7594835148014127,-9.42639396083951,2.0536992469742894
1759162944716190700,7.826190673828125,-1.7693256943799553,-9.412467726817727,2.108386676581949
1759162944726248700,7.836248779296875,-1.764085017247498,-9.400185168349742,2.1667741297513246
1759162944736305700,7.8463056640625,-1.7386163756005466,-9.39043651227355,2.2287407565817237
1759162944746364000,7.856364013671875,-1.6934307877011596,-9.383245139464735,2.292891303322464
1759162944756420900,7.8664208984375,-1.6318422004029154,-9.378858302682637,2.3546758515842257
1759162944766477800,7.876477783203125,-1.5556021335482597,-9.378132326495647,2.408556348723173
1759162944776535800,7.886535888671875,-1.4633032045572996,-9.38232451748848,2.4497170650206503
1759162944786592800,7.8965927734375,-1.3517210445560515,-9.392043362948298,2.4764397983819246
1759162944796649700,7.906649658203125,-1.2201979933533817,-9.405705977597831,2.492830376690626
1759162944806708000,7.9167080078125,-1.0705686459653079,-9.42206499172449,2.499789986570179
1759162944816765000,7.926764892578125,-0.9045233666315674,-9.439836210736631,2.498345340719819
1759162944826822000,7.93682177734375,-0.7248012249272316,-9.457602753573655,2.489738548155129
1759162944836879600,7.946879638671875,-0.5350121184451505,-9.47407808755636,2.4750761088132855
1759162944846936600,7.9569365234375,-0.3396988051814958,-9.489435231164098,2.4506292114295065
1759162944856994800,7.966994873046875,-0.14760348584996535,-9.50224152124524,2.419917554562539
1759162944867051800,7.9770517578125,0.036950909732852595,-9.513290154004096,2.3804056283853945
1759162944877108700,7.987108642578125,0.21017021573167294,-9.522855854728817,2.332688037790358
1759162944887166700,7.997166748046875,0.37526137267835435,-9.53068552544117,2.279384025365114
1759162944897223700,8.0072236328125,0.5391278466682881,-9.536400980478525,2.2218857761204243
1759162944907280600,8.01728076171875,0.7112672781586646,-9.5385730638206,2.163355115088075
1759162944917339000,8.0273388671875,0.8996734423823655,-9.53473275500536,2.109468626599759
1759162944927395800,8.037395751953126,1.1064750219311565,-9.522872805863619,2.0642206409886477
1759162944937452800,8.047452880859375,1.3288133394382893,-9.50315746704638,2.0235234505496917
1759162944947510800,8.0575107421875,1.5578876141369342,-9.477313416215777,1.9808893006987869
1759162944957567700,8.067567626953124,1.783159281682223,-9.448431020602584,1.9281774089477954
1759162944967626000,8.0776259765625,1.9960631966941058,-9.420688442674278,1.8538427373230457
1759162944977683000,8.087682861328124,2.1932238913901148,-9.396469362697005,1.751143410348892
1759162944987740000,8.097739990234375,2.3762252739608285,-9.375108010238408,1.6221213091164826
1759162944997797600,8.107797607421874,2.542808751824498,-9.35548561040163,1.4762715533323585
1759162945007854600,8.1178544921875,2.6912641600623726,-9.337495780202746,1.3185874212391673
1759162945017911600,8.12791162109375,2.8244162007063625,-9.320450537377596,1.1499032447692006
1759162945027969800,8.1379697265625,2.9470684746459126,-9.303653716355562,0.9629114773880689
1759162945038026800,8.14802685546875,3.0635002666354176,-9.285724091911316,0.7487943141289055
1759162945048083700,8.158083740234375,3.172462745657563,-9.265207958105206,0.5116639395508915
1759162945058141700,8.1681416015625,3.2708775271803137,-9.241456495639682,0.2592633324636146
1759162945068198700,8.17819873046875,3.3583523970156905,-9.213677092832325,-0.0009057370036087376
1759162945078257000,8.1882568359375,3.442296170115471,-9.17905703034997,-0.2566869426369667
1759162945088313900,8.19831396484375,3.53268517383188,-9.134522892096639,-0.5009967073250562
1759162945098370800,8.208370849609375,3.6412872951090334,-9.076576899084449,-0.7260604312080889
1759162945108428800,8.2184287109375,3.7681133476018904,-9.005411359015106,-0.935020796225965
1759162945118485800,8.22848583984375,3.9095764127343893,-8.921787319388985,-1.134596004717797
1759162945128542700,8.238542724609376,4.056237338770925,-8.828652524095773,-1.33124582728222
1759162945138600700,8.2486005859375,4.201265402908623,-8.728959393200277,-1.5248068900510667
1759162945148658000,8.258657958984376,4.3494057538479565,-8.621483353343605,-1.7097028541967272
1759162945158715000,8.26871484375,4.506835911180079,-8.505009183517098,-1.8771325736261903
1759162945168772600,8.278772705078126,4.664677279661595,-8.382721358975768,-2.034983294457942
1759162945178829600,8.28882958984375,4.82630868807584,-8.255310784593224,-2.174162778697908
1759162945188886800,8.29888671875,4.998167183732986,-8.121721229314804,-2.2861234166227278
1759162945198944800,8.30894482421875,5.16474189376831,-7.987108176207542,-2.387869388394803
1759162945209001700,8.319001708984375,5.316476762068271,-7.857115184116363,-2.484190266378224
1759162945219059700,8.329059814453124,5.466507749059796,-7.731039073207974,-2.5531775856256482
1759162945229116700,8.33911669921875,5.61213903978765,-7.610592492619157,-2.5986846605643628
1759162945239174000,8.349173828125,5.748139163339138,-7.498451383560895,-2.6272651506215334
1759162945249232000,8.35923193359375,5.869233394181728,-7.3984285823196165,-2.6430577630370853
1759162945259288800,8.369288818359376,5.972241933235526,-7.313301736915111,-2.6492136553183196
1759162945269345800,8.379345703125,6.056666767850518,-7.243754153436422,-2.6486203656002876
1759162945279403800,8.38940380859375,6.121953186753392,-7.189544424343109,-2.6462273329839108
1759162945289460700,8.399460693359375,6.169158005520701,-7.149211244910955,-2.645876912111044
1759162945299517700,8.409517578125,6.202604932570457,-7.120224804401397,-2.6458427175804973
1759162945309575700,8.41957568359375,6.224907949793338,-7.100869531068206,-2.6454800217479466
1759162945319632600,8.429632568359375,6.236339444389939,-7.090486084219813,-2.646406196682155
1759162945329690400,8.4396904296875,6.236145383122563,-7.089203643193841,-2.6502973589017986
1759162945339747300,8.449747314453125,6.226120832714438,-7.096150101330876,-2.655271055661142
1759162945349804300,8.45980419921875,6.206580265942216,-7.110739183175563,-2.6619781520843504
1759162945359862500,8.469862548828125,6.17924977594614,-7.13107528423965,-2.6711460856631395
1759162945369919500,8.47991943359375,6.146048348090052,-7.1555953929901115,-2.6821502947583795
1759162945379976400,8.4899765625,6.1078276307672255,-7.183900280976295,-2.693771466708183
1759162945390034400,8.500034423828126,6.0661851223021745,-7.214926118358969,-2.704927943755686
1759162945400091400,8.51009130859375,6.019145138707756,-7.248083707073331,-2.7213167684987187
1759162945410148600,8.520148681640626,5.970812192693352,-7.283651864060759,-2.732800870065391
1759162945420206600,8.53020654296875,5.917213288974762,-7.3226254455775015,-2.7452023787379263
1759162945430263600,8.540263671875,5.858343751376867,-7.365574944987893,-2.756540057571232
1759162945440320500,8.550320556640624,5.793725440993905,-7.412439572015404,-2.767467402037978
1759162945450378500,8.56037841796875,5.725431656968594,-7.462185891959071,-2.775897084470093
1759162945460435700,8.570435791015624,5.661332986545562,-7.513575302934647,-2.7687328919291496
1759162945470493400,8.580493408203125,5.594910841611028,-7.568125808289647,-2.755143634776771
1759162945480550400,8.59055029296875,5.523435504940152,-7.626807714360952,-2.737491365969181
1759162945490607600,8.600607666015625,5.446122548156977,-7.68940007187426,-2.717216639703512
1759162945500665300,8.610665283203126,5.365765401372313,-7.754984596940875,-2.6905671177089214
1759162945510722600,8.62072265625,5.282327239707112,-7.821879620084166,-2.661878783363104
1759162945520779500,8.630779541015626,5.199441451227664,-7.882348994094133,-2.6466549107462165
1759162945530837500,8.64083740234375,5.126521760967374,-7.927544811126589,-2.653902105395496
1759162945540894500,8.65089453125,5.069351428502798,-7.9564090865612025,-2.677240895406902
1759162945550951400,8.660951416015624,5.019918412292004,-7.982675162196159,-2.6921558482050894
1759162945561009400,8.671009521484375,5.009311093559861,-8.005740980485081,-2.642972715102136
1759162945571066600,8.681066650390624,5.020160988876223,-8.030008575779199,-2.547025492736697
1759162945581124600,8.69112451171875,5.0334337274253365,-8.059933173921705,-2.4233045666523276
1759162945591181600,8.701181640625,5.037255331540107,-8.096014541128277,-2.291501164138317
1759162945601238500,8.711238525390625,5.0215755318492645,-8.139653191846609,-2.1679960727617145
1759162945611296500,8.721296630859374,4.978566411206126,-8.19529967574477,-2.0545847976371645
1759162945621353700,8.731353759765625,4.908429629662633,-8.26524239602089,-1.9399638544619082
1759162945631410700,8.74141064453125,4.815643501676619,-8.347752921447157,-1.815208178502321
1759162945641468400,8.751468505859375,4.702334517882764,-8.439609951889514,-1.682682014671713
1759162945651525400,8.761525390625,4.570483330704271,-8.537332074972987,-1.5475813241779803
1759162945661582600,8.77158251953125,4.423990746971964,-8.63687965991795,-1.4152742099255322
1759162945671640600,8.781640625,4.268821228048205,-8.734205477160215,-1.2888783655434846
1759162945681697500,8.791697509765624,4.108911236599088,-8.827076068559288,-1.1704573724981397
1759162945691754500,8.80175439453125,3.945256213402748,-8.915651593112946,-1.0566492070104927
1759162945701812500,8.8118125,3.780048407806456,-8.999528730717302,-0.9434495288100093
1759162945711869400,8.821869384765625,3.615918460574746,-9.077719054856896,-0.8309818912111222
1759162945721926400,8.831926513671876,3.4526772788763043,-9.150213797703385,-0.7231755234215408
1759162945731984600,8.841984619140625,3.2883532703772187,-9.217852332690358,-0.6231580559425055
1759162945742041600,8.85204150390625,3.1203578798890113,-9.28162951607406,-0.5339601251741871
1759162945752099600,8.862099609375,2.948670064623654,-9.341803122007846,-0.4543765931105241
1759162945762156500,8.872156494140626,2.773670056070387,-9.398451476424931,-0.38241928160898386
1759162945772213500,8.882213623046875,2.5982681887179613,-9.451105208247899,-0.30980463870987296
1759162945782271700,8.892271728515626,2.4253981779307128,-9.499213113334774,-0.2297040787684731
1759162945792328700,8.90232861328125,2.2594579664066434,-9.541731820112465,-0.14342508592046796
1759162945802385700,8.9123857421875,2.102102335615456,-9.578545008724927,-0.054929672831739294
1759162945812443400,8.922443359375,1.9564938412413,-9.609435821551084,0.03554652739422163
1759162945822500400,8.932500244140625,1.8254183146104215,-9.634411272853612,0.127793865478551
1759162945832557300,8.942557373046874,1.7121042162500322,-9.65353039934337,0.2200648196171969
1759162945842615600,8.952615478515625,1.621319491214305,-9.66716378789842,0.29604345905669033
1759162945852672500,8.962672607421876,1.555122241076827,-9.67621277127266,0.35052210475187745
1759162945862729500,8.9727294921875,1.5110194799780845,-9.681457101666927,0.39573392307106403
1759162945872787500,8.982787353515626,1.4821516974121332,-9.6839126781255,0.4421130681365728
1759162945882844400,8.992844482421875,1.461338334225118,-9.684446346610784,0.4963545806076377
1759162945892902700,9.002902587890626,1.4437284432545303,-9.683476040273904,0.5624305424530058
1759162945902959600,9.012959716796875,1.4254083581879735,-9.681392804259062,0.6397266942318528
1759162945913016600,9.0230166015625,1.402110338578373,-9.678863578042387,0.7239354749433696
1759162945923074600,9.033074462890625,1.375771197707206,-9.67587550214231,0.809362033946812
1759162945933131500,9.043131591796875,1.3486870836876332,-9.672252050948142,0.8938378680966794
1759162945943188500,9.0531884765625,1.3216494391582905,-9.667981534022092,0.9766081404376774
1759162945953246700,9.063246826171875,1.2972343982174992,-9.662945877942443,1.0559629052467643
1759162945963303700,9.0733037109375,1.2772184690184891,-9.65727952274382,1.1296277878511696
1759162945973360600,9.083360595703125,1.2632489803768694,-9.650683777740596,1.1995406244456768
1759162945983418400,9.09341845703125,1.252210869012028,-9.642724927690624,1.2728792707704006
1759162945993475300,9.103475341796875,1.2379914972625672,-9.634216042542457,1.3489419352315366
1759162946003532300,9.1135322265625,1.2138689364623279,-9.626118660804629,1.4264436925850807
1759162946013590500,9.123590576171875,1.178081729896739,-9.619278001129627,1.5006697892688214
1759162946023647500,9.1336474609375,1.1329005259115248,-9.614363341081141,1.565543681848049
1759162946033704400,9.143704345703124,1.0807067397505044,-9.611023383003472,1.621938792156428
1759162946043762400,9.153762451171875,1.0232664312381297,-9.60858417315781,1.672848749051988
1759162946053819400,9.1638193359375,0.9629348582636564,-9.606107553911208,1.7221572621002792
1759162946063876600,9.173876708984375,0.9024974868271499,-9.60291547987163,1.7719789853677153
1759162946073934600,9.1839345703125,0.8446140376571566,-9.598646716511249,1.8229095466598868
1759162946083991600,9.193991455078125,0.7918715315721928,-9.593670681664348,1.8721091925062239
1759162946094049500,9.204049560546874,0.7455768133871257,-9.587923662444949,1.919950994002819
1759162946104106500,9.2141064453125,0.7071700719729066,-9.581596797510981,1.965527188654989
1759162946114163700,9.224163818359376,0.6770803463965654,-9.574477905416488,2.0103020037963986
1759162946124221400,9.234221435546875,0.655187298214063,-9.567138064047693,2.052067846380174
1759162946134278700,9.244278564453126,0.6395732572358102,-9.558799274769425,2.095401376672089
1759162946144335600,9.254335693359375,0.6291285086542368,-9.55056511490941,2.1357189201436935
1759162946154393300,9.264393310546875,0.6226360048297792,-9.543807457342742,2.167587784221768
1759162946164450300,9.2744501953125,0.6167068339765072,-9.539604744955897,2.1876928530089557
1759162946174507500,9.284507568359375,0.608583148753643,-9.53933469584286,2.191145916072279
1759162946184565500,9.2945654296875,0.594768120021373,-9.542635490953922,2.180537282165885
1759162946194622500,9.30462255859375,0.5730063335357234,-9.5468136534214,2.168042396121472
1759162946204679400,9.314679443359376,0.543928853741847,-9.549616435882449,2.1631804891735316
1759162946214737400,9.3247373046875,0.5107476649561896,-9.55024538143575,2.168485902105272
1759162946224794600,9.334794677734376,0.4786083499062806,-9.549401916348934,2.179499025159329
1759162946234851600,9.3448515625,0.4516162250190973,-9.547697450518607,2.1926886154696343
1759162946244909600,9.35490966796875,0.43215117116849866,-9.545032615223526,2.2081636863686143
1759162946254966500,9.364966552734375,0.4194070961359888,-9.540337150883675,2.2307975429810583
1759162946265023500,9.3750234375,0.4109683536145836,-9.535070024135708,2.254759725587815
1759162946275081700,9.385081787109375,0.40223844612687826,-9.530172315222025,2.2769265492103994
1759162946285138700,9.395138671875,0.3906907778047025,-9.527039277893305,2.292001953267306
1759162946295196400,9.405196533203124,0.3762445750294253,-9.526762214517593,2.2955738204047083
1759162946305254000,9.41525390625,0.36100276489704847,-9.528657819005847,2.2901469730503856
1759162946315310800,9.425310791015624,0.34801881669405843,-9.531233222451805,2.2814202073678373
1759162946325369000,9.435369140625,0.3390304044006392,-9.532844164779782,2.2760382220685482
1759162946335426000,9.445426025390624,0.33754531694203616,-9.533208906438945,2.2747281623832882
1759162946345483000,9.45548291015625,0.3460316614648327,-9.532544889572263,2.2762346214234825
1759162946355541000,9.465541015625,0.3640869946479797,-9.531965628379583,2.275841676583141
1759162946365598000,9.475597900390625,0.38725411788690833,-9.53128349133432,2.2748669863320887
1759162946375655200,9.4856552734375,0.40917043734714387,-9.52855786576271,2.2824498426765203
1759162946385713200,9.495713134765625,0.426211405855976,-9.522470654803515,2.3046245573446154
1759162946395770000,9.50577001953125,0.43780696844048794,-9.514341708883643,2.335809969203174
1759162946405827000,9.5158271484375,0.44545762932412325,-9.505734624058007,2.369171994448453
1759162946415885000,9.525885009765625,0.45222628320883956,-9.497239767435193,2.401735708922893
1759162946425942000,9.53594189453125,0.46079519144855435,-9.488689965754746,2.433684506369382
1759162946435999200,9.545999267578125,0.471249036652036,-9.479874791136384,2.465824588604271
1759162946446057000,9.556056884765624,0.48163171631544827,-9.470582646656036,2.4992972346171736
1759162946456114200,9.5661142578125,0.4896121936753392,-9.461030389934777,2.533687287735939
1759162946466171100,9.576171142578126,0.49346470438502726,-9.451978483951091,2.5665105299293995
1759162946476228900,9.586228759765625,0.4917976479556411,-9.444013788682222,2.595981246824562
1759162946486286000,9.5962861328125,0.48307906557954844,-9.438621574249863,2.61714415410161
1759162946496343000,9.606343017578125,0.46634785713963206,-9.436189378666878,2.6289240237444638
1759162946506401000,9.616401123046876,0.44149475357513873,-9.434019048890471,2.640977157370746
1759162946516458000,9.6264580078125,0.4113107373114675,-9.429832703116535,2.6607269829794764
1759162946526515000,9.636514892578125,0.38110929498896,-9.423333988747,2.6881045269876718
1759162946536573200,9.6465732421875,0.35576362213455137,-9.415457556283473,2.7190006005108356
1759162946546630100,9.656630126953125,0.33850185048189013,-9.406984326970576,2.7503528933688997
1759162946556688100,9.666688232421874,0.33120767488572744,-9.39864203056097,2.7796082139477134
1759162946566745000,9.6767451171875,0.33445151564516123,-9.390867889428138,2.805371308496594
1759162946576802000,9.686802001953126,0.3457866371951997,-9.382893257287144,2.8305712162047625
1759162946586860300,9.6968603515625,0.3611208748513832,-9.373960009247064,2.8581188560828563
1759162946596917200,9.706917236328126,0.37582244062721726,-9.3640283978194,2.8886180392429233
1759162946606974200,9.71697412109375,0.3863458804681897,-9.353666578280926,2.920623535312712
1759162946617032000,9.727031982421876,0.39063400611616667,-9.344242916375398,2.9500691177666187
1759162946627089000,9.7370888671875,0.38936771250739693,-9.33651845960319,2.9745944872140884
1759162946637146000,9.74714599609375,0.3855043516101315,-9.328132324051856,3.0012860947847364
1759162946647204000,9.7572041015625,0.3861689164660871,-9.318731458500027,3.030264059726894
1759162946657261000,9.767260986328125,0.39617673493511973,-9.308079716104269,3.0615479635238647
1759162946667318000,9.777318115234374,0.41558092544395475,-9.29552535495758,3.096920013417303
1759162946677376000,9.7873759765625,0.4406135502938181,-9.28213278942108,3.1334122995123264
1759162946687433000,9.797432861328126,0.4670680977055803,-9.269618175762892,3.1664541528925296
1759162946697490000,9.807489990234375,0.49105588967762887,-9.260001037111877,3.190870216746628
1759162946707548200,9.817548095703126,0.5094293488992377,-9.253914410674572,3.205613320109248
1759162946717605000,9.827605224609375,0.5214008686566725,-9.250534705108404,3.213430715861916
1759162946727662000,9.837662109375,0.5279575968237593,-9.249228298684955,3.2161177629888056
1759162946737720000,9.847719970703125,0.5315828015835955,-9.249058202815055,3.216009041917324
1759162946747777000,9.857777099609375,0.5341356644041836,-9.248334564715623,3.2176673305183647
1759162946757834000,9.867833984375,0.5361900031181052,-9.244710528999567,3.227727244500816
1759162946767892200,9.877892333984375,0.5388462897805497,-9.237799142175913,3.2470152978166937
1759162946777949200,9.88794921875,0.5436702028056606,-9.227661779043078,3.2749145276114344
1759162946788006100,9.898006103515625,0.5513607938408851,-9.213604027596116,3.31298736089617
1759162946798063900,9.90806396484375,0.5626301201457158,-9.195782539701462,3.360271090118587
1759162946808121000,9.91812109375,0.5780262440569699,-9.174995187738537,3.4140488575354215
1759162946818178300,9.92817822265625,0.5968488718181848,-9.153156865417957,3.468989238990843
1759162946828236000,9.938236083984375,0.6211847100429236,-9.131209822025895,3.522148289987445
1759162946838293000,9.94829296875,0.6508980765875428,-9.109853730264305,3.571732697367668
1759162946848350000,9.958349853515625,0.6817597363844513,-9.091673930451273,3.6120696761921045
1759162946858408000,9.968407958984375,0.7101895659245551,-9.079057609984279,3.638233460496366
1759162946868465000,9.97846484375,0.7340882548410445,-9.0730089774698,3.6485643003746864
1759162946878522000,9.988522216796875,0.7520341728329658,-9.073063338005543,3.644773675920069
1759162946888580000,9.998580078125,0.7626385689556598,-9.077957539787889,3.6303546899452805
1759162946898637000,10.008636962890625,0.7651795586753636,-9.084619335764646,3.613113047765195
1759162946908694000,10.018694091796876,0.7593491720214486,-9.089518213722108,3.6020083009049295
1759162946918752000,10.028751953125,0.7491613208103924,-9.093644938263296,3.5937107204198835
1759162946928809200,10.038809326171876,0.7381780083727091,-9.098577718490361,3.5834830486550926
1759162946938866200,10.0488662109375,0.729939976055175,-9.10466317588389,3.56968716301471
1759162946948924200,10.058924072265626,0.7285060707945377,-9.111959178110956,3.5513197316750884
1759162946958981000,10.068981201171875,0.7354802937213331,-9.118174983885885,3.5338834437057374
1759162946969038000,10.0790380859375,0.7474000102262943,-9.121304514083265,3.523290738020837
1759162946979096000,10.089095947265625,0.7611914388872683,-9.121908909717202,3.5187697534650564
1759162946989153000,10.099153076171875,0.7741912787791341,-9.119972973218559,3.5209479742869734
1759162946999210200,10.109210205078124,0.78574106599316,-9.117798551788926,3.5240263588190075
1759162947009268000,10.11926806640625,0.7962051768623292,-9.118371383240818,3.520193064266443
1759162947019325000,10.129324951171874,0.8060264597833157,-9.121777976813911,3.509116958978772
1759162947029382000,10.1393818359375,0.8156325655836612,-9.126278795364499,3.4951641292110085
1759162947039440100,10.149440185546876,0.8247135515313595,-9.130516579064727,3.4819387369349597
1759162947049497000,10.1594970703125,0.8332107462417334,-9.134341690310835,3.4698610533893106
1759162947059554000,10.169553955078126,0.8397324030954391,-9.137255531930922,3.4606071950927375
1759162947069612000,10.179612060546875,0.8434211015455424,-9.138690533170104,3.4559181604936717
1759162947079669000,10.1896689453125,0.8442399436477571,-9.1389968226403,3.454908691190183
1759162947089726000,10.199725830078124,0.8435998921785504,-9.13974033448398,3.4530952120274305
1759162947099784200,10.2097841796875,0.843841007458046,-9.141838768067956,3.4474776644065974
1759162947109841200,10.219841064453124,0.8468510029289871,-9.144529906848073,3.4395921718537807
1759162947119898000,10.229898193359375,0.8531436002671718,-9.146758688813447,3.4321044464468953
1759162947129956000,10.2399560546875,0.861250334355235,-9.148141083082557,3.4263922062799335
1759162947140013000,10.250012939453125,0.8692156141459941,-9.14929025311768,3.421305696795881
1759162947150070000,10.260070068359376,0.8748612918827682,-9.15083806708157,3.415721759183705
1759162947160128000,10.2701279296875,0.8770510570120066,-9.15240517026782,3.410957905782759
1759162947170185200,10.280185302734376,0.8760692794330418,-9.153594672313332,3.4080198065042495
1759162947180242200,10.2902421875,0.8737363064408302,-9.154726891213654,3.4055767972663045
1759162947190300000,10.3002998046875,0.8720604821830987,-9.156028621461987,3.4025068883016703
1759162947200356900,10.31035693359375,0.8721297480270266,-9.157520321324467,3.3984684265658256
1759162947210414000,10.3204140625,0.8740992214690894,-9.158791071912646,3.39453488650918
1759162947220472000,10.33047216796875,0.8774296080008148,-9.159037155628203,3.3930122069865463
1759162947230529000,10.340529052734375,0.8811366458252072,-9.158421654078364,3.3937148022979495
1759162947240586000,10.3505859375,0.8844138408649712,-9.15768164936602,3.3948622187674045
1759162947250644000,10.36064404296875,0.8874225211616605,-9.157325675535201,3.3950355295076964
1759162947260701200,10.370701171875,0.8905709752552211,-9.157602738910914,3.3934652114510535
1759162947270758100,10.380758056640625,0.8941167581032962,-9.158448542085289,3.3902456648826598
1759162947280816000,10.390816162109376,0.8982795038059354,-9.159800541216134,3.3854888257443903
1759162947290873000,10.400873046875,0.9035127282842993,-9.16139687049687,3.3797739552289245
1759162947300929500,10.410929443359375,0.9094874187797307,-9.162769912415742,3.374443115594983
1759162947310987800,10.42098779296875,0.9154358057901263,-9.163765937715768,3.3701249601349232
1759162947321044700,10.431044677734375,0.9206165694288909,-9.164429954582452,3.3669095052197573
1759162947331101700,10.441101806640624,0.9246609494488686,-9.164932643407584,3.3644323014512656
1759162947341159700,10.45115966796875,0.9275236454036087,-9.165632900631428,3.3617350251913067
1759162947351216600,10.461216552734374,0.9298401056524366,-9.166322636461258,3.3592136900201437
1759162947361273600,10.471273681640625,0.932713688327372,-9.166946321317553,3.356713982158899
1759162947371331600,10.48133154296875,0.936980332795903,-9.167524413466452,3.3539448097065088
1759162947381388500,10.491388427734375,0.9433736870948225,-9.167681649854778,3.3517224574819204
1759162947391445800,10.50144580078125,0.952232920050621,-9.167415692394972,3.3499452186763286
1759162947401503500,10.51150341796875,0.9658336484450847,-9.16661665097177,3.3482363689318295
1759162947411560400,10.521560546875,0.9875748670667409,-9.165473910677433,3.345020329494774
1759162947421617700,10.53161767578125,1.0166193213738501,-9.16462109324038,3.3386522557675837
1759162947431675600,10.541675537109375,1.0432078338962048,-9.165226657918096,3.3287720822662115
1759162947441732600,10.551732666015624,1.0589968661151825,-9.16693287731409,3.3190754486382006
1759162947451789600,10.56178955078125,1.0633338724061847,-9.168680597764252,3.3128564279928803
1759162947461847600,10.57184765625,1.0588659332118928,-9.170400261163712,3.309526406787336
1759162947471904800,10.58190478515625,1.0482950009673833,-9.172459531781076,3.307183350792527
1759162947481961700,10.591961669921876,1.0352709034170955,-9.174307789996266,3.30616131426841
1759162947492019700,10.602019775390625,1.0237894321989267,-9.17510098620057,3.3075349407091736
1759162947502076700,10.61207666015625,1.017891241005808,-9.174645643648505,3.3106162478506564
1759162947512133600,10.622133544921875,1.019728027978912,-9.173471339172124,3.3133030027166006
1759162947522190600,10.632190673828125,1.0286918172877282,-9.17198723809421,3.3146386352345347
1759162947532248800,10.642248779296875,1.0423268132779746,-9.17025471521318,3.315172888241708
