time,seconds_elapsed,z,y,x
1759162936910553300,0.02055322265625,-0.03750556334853172,-0.0545700341463089,0.014081730507314205
1759162936920610300,0.0306103515625,-0.0443086102604866,-0.07327394932508469,0.010979413986206055
1759162936930667300,0.040667236328125,-0.049785397946834564,-0.08048445731401443,0.020548684522509575
1759162936940724500,0.050724365234375,-0.04632914811372757,-0.08290153741836548,0.023747140541672707
1759162936950780200,0.0607802734375,-0.039331428706645966,-0.07974383234977722,0.019342007115483284
1759162936960837400,0.07083740234375,-0.025853434577584267,-0.07142491638660431,0.0029968551825731993
1759162936970894300,0.080894287109375,-0.009464874863624573,-0.0603693351149559,-0.014881477691233158
1759162936980950300,0.0909501953125,0.0005328985280357301,-0.04906288534402847,-0.022664831951260567
1759162936991007200,0.10100732421875,0.0032091091852635145,-0.04054290056228638,-0.02064189501106739
1759162937001064200,0.111064208984375,0.00007004113285802305,-0.041431330144405365,-0.014403173699975014
1759162937011121200,0.12112109375,-0.00854182243347168,-0.05361662432551384,-0.0048767803236842155
1759162937021177300,0.13117724609375,-0.016635170206427574,-0.06864883750677109,0.0012306467397138476
1759162937031234300,0.141234375,-0.02069222927093506,-0.0857710987329483,-0.003002181416377425
1759162937041291300,0.151291259765625,-0.018983012065291405,-0.09554995596408844,-0.013282516039907932
1759162937051348200,0.16134814453125,-0.014945659786462784,-0.09974256902933121,-0.023601466789841652
1759162937061405200,0.1714052734375,-0.014967497438192368,-0.1058739647269249,-0.034449052065610886
1759162937071461000,0.181461181640625,-0.012827914208173752,-0.1012914702296257,-0.036428581923246384
1759162937081518000,0.19151806640625,-0.023327693343162537,-0.11061040312051773,-0.04134238138794899
1759162937091575300,0.2015751953125,-0.03109986148774624,-0.12391155958175659,-0.051407795399427414
1759162937101632300,0.21163232421875,-0.03989335522055626,-0.13631096482276917,-0.05174601823091507
1759162937111688400,0.2216884765625,-0.04024835303425789,-0.12601572275161743,-0.05235534906387329
1759162937121745400,0.231745361328125,-0.03905605524778366,-0.10291732847690582,-0.049136385321617126
1759162937131802400,0.24180224609375,-0.0310460664331913,-0.0777219608426094,-0.05373832955956459
1759162937141859300,0.251859375,-0.03221333026885986,-0.06778250634670258,-0.0559796467423439
1759162937151915300,0.261915283203125,-0.050998203456401825,-0.04362710565328598,-0.06366366147994995
1759162937161972200,0.27197216796875,-0.03079812601208687,-0.022480275481939316,-0.06767065823078156
1759162937172029200,0.282029296875,-0.029693979769945145,-0.007708519697189331,-0.07234983146190643
1759162937182086100,0.292086181640625,-0.015246330760419369,-0.013155749067664146,-0.0745149776339531
1759162937192143000,0.30214306640625,-0.011691010557115078,-0.04108431935310364,-0.06933540105819702
1759162937202199300,0.31219921875,-0.03442242369055748,-0.07561619579792023,-0.06376592814922333
1759162937212256300,0.32225634765625,-0.028728317469358444,-0.11604911088943481,-0.06753537058830261
1759162937222313200,0.332313232421875,-0.008317850530147552,-0.12073041498661041,-0.06384129822254181
1759162937232370400,0.342370361328125,-0.004509796854108572,-0.10726360231637955,-0.05730510130524635
1759162937242426000,0.352426025390625,0.0006407565670087934,-0.08879298716783524,-0.05254283547401428
1759162937252483300,0.3624833984375,-0.0011310444679111242,-0.07711689174175262,-0.04332057759165764
1759162937262540300,0.372540283203125,-0.007248325273394585,-0.08787579089403152,-0.04628067836165428
1759162937272597200,0.38259716796875,-0.011846273206174374,-0.10924126952886581,-0.0502043142914772
1759162937282654200,0.392654296875,-0.010541590861976147,-0.12668044865131378,-0.05246986448764801
1759162937292710700,0.402710693359375,-0.010942662134766579,-0.13094203174114227,-0.0519859679043293
1759162937302767900,0.412767822265625,-0.012207131832838058,-0.13530217111110687,-0.05585633963346481
1759162937312824800,0.422824951171875,-0.007839813828468323,-0.1390223354101181,-0.05288398638367653
1759162937322881800,0.4328818359375,-0.0019233349012210965,-0.12270807474851608,-0.0520983561873436
1759162937332938800,0.442938720703125,0.0009813748765736818,-0.10781355202198029,-0.05730137228965759
1759162937342994700,0.45299462890625,0.0012479572324082255,-0.09945947676897049,-0.07263398915529251
1759162937353051600,0.4630517578125,-0.005714611150324345,-0.11023622751235962,-0.09910740703344345
1759162937363108600,0.473108642578125,-0.01016581803560257,-0.13431866466999054,-0.116456039249897
1759162937373165600,0.48316552734375,-0.023967916145920753,-0.1516992449760437,-0.12937477231025696
1759162937383222500,0.493222412109375,-0.01581864431500435,-0.1558780074119568,-0.13976030051708221
1759162937393278700,0.50327880859375,0.028022047132253647,-0.1532774418592453,-0.1284618377685547
1759162937403335700,0.513335693359375,0.04499970003962517,-0.17219120264053345,-0.11062318086624146
1759162937413392600,0.523392578125,0.04749135300517082,-0.1980622112751007,-0.10183608531951904
1759162937423449900,0.533449951171875,0.039933301508426666,-0.22293800115585327,-0.11569197475910187
1759162937433506800,0.5435068359375,0.011305917985737324,-0.2718839645385742,-0.14967364072799683
1759162937443563800,0.553563720703125,-0.013635384850203991,-0.5017358064651489,-0.17321625351905823
1759162937453619700,0.56361962890625,-0.0395418182015419,-0.607528030872345,-0.14945366978645325
1759162937463676700,0.5736767578125,-0.0468633808195591,-0.5469619035720825,-0.11265011876821518
1759162937473733600,0.583733642578125,-0.06752737611532211,-0.4037834107875824,-0.08918926119804382
1759162937483790600,0.59379052734375,-0.06909944117069244,-0.27039313316345215,-0.09648019820451736
1759162937493847600,0.60384765625,-0.04557361081242561,-0.15822745859622955,-0.1354912519454956
1759162937503904500,0.613904541015625,-0.015977634117007256,-0.0701143741607666,-0.18224650621414185
1759162937513960700,0.623960693359375,-0.005562544334679842,-0.06030808016657829,-0.2232578545808792
1759162937524017700,0.634017578125,-0.011990616098046303,-0.12303458154201508,-0.24785427749156952
1759162937534074600,0.64407470703125,-0.027601268142461777,-0.2053409069776535,-0.2509147822856903
1759162937544131800,0.6541318359375,-0.055271510034799576,-0.3082342743873596,-0.2338109016418457
1759162937554188800,0.664188720703125,-0.06694094836711884,-0.36032596230506897,-0.2241971492767334
1759162937564245800,0.674245849609375,-0.08494018763303757,-0.46678075194358826,-0.28020450472831726
1759162937574301700,0.6843017578125,-0.11993785202503204,-0.8212616443634033,-0.4546748399734497
1759162937584358700,0.694358642578125,-0.177847757935524,-1.1171371936798096,-0.5590651631355286
1759162937594415600,0.70441552734375,-0.25930851697921753,-1.3390432596206665,-0.6175998449325562
1759162937604472600,0.71447265625,-0.32157668471336365,-1.4382978677749634,-0.6217319965362549
1759162937614529500,0.724529541015625,-0.3475979268550873,-1.3368083238601685,-0.5614851713180542
1759162937624586500,0.73458642578125,-0.35336658358573914,-1.0599108934402466,-0.4504249691963196
1759162937634642700,0.744642578125,-0.35056015849113464,-0.6892825365066528,-0.29700610041618347
1759162937644699600,0.75469970703125,-0.3315073549747467,-0.30621984601020813,-0.12923868000507355
1759162937654756600,0.764756591796875,-0.30177849531173706,0.05449653044342995,0.03009878098964691
1759162937664813800,0.774813720703125,-0.2557329833507538,0.32767054438591003,0.14768800139427185
1759162937674870800,0.784870849609375,-0.20362822711467743,0.494588166475296,0.21091437339782715
1759162937684927700,0.794927734375,-0.14188656210899353,0.5722309947013855,0.21516025066375732
1759162937694983700,0.804983642578125,-0.09281542152166367,0.5584710240364075,0.1748458445072174
1759162937705040600,0.81504052734375,-0.058226555585861206,0.4650763273239136,0.09395818412303925
1759162937715097600,0.82509765625,-0.03683418035507202,0.32952383160591125,-0.006244580261409283
1759162937725154600,0.835154541015625,-0.030644461512565613,0.17611484229564667,-0.10488593578338623
1759162937735211500,0.84521142578125,-0.025787655264139175,0.029752302914857864,-0.1760738343000412
1759162937745268500,0.8552685546875,0.016564596444368362,-0.04542047902941704,-0.21509340405464172
1759162937755325400,0.865325439453125,0.05979142710566521,-0.07511312514543533,-0.21440017223358154
1759162937765382700,0.875382568359375,0.061236992478370667,-0.09798888117074966,-0.17272943258285522
1759162937775438600,0.8854384765625,0.03593989089131355,-0.08632849901914597,-0.11952745914459229
1759162937785495800,0.895495849609375,0.015909723937511444,-0.033669281750917435,-0.06998308002948761
1759162937795552800,0.905552734375,-0.001255680457688868,0.020794760435819626,-0.03260135278105736
1759162937805609700,0.915609619140625,-0.012780509889125824,0.03729970008134842,-0.01678537204861641
1759162937815666700,0.925666748046875,-0.030856715515255928,0.014483069069683552,-0.0208863727748394
1759162937825723600,0.9357236328125,-0.04519517347216606,-0.03013579733669758,-0.04261856526136398
1759162937835780600,0.945780517578125,-0.04298022389411926,-0.07892277836799622,-0.07386916130781174
1759162937845837600,0.955837646484375,-0.03280961140990257,-0.11138724535703659,-0.10228163003921509
1759162937855893500,0.9658935546875,-0.03057894855737686,-0.11585736274719238,-0.11787443608045578
1759162937865950500,0.975950439453125,-0.026561303064227104,-0.08965478837490082,-0.11030333489179611
1759162937876007700,0.986007568359375,-0.018271150067448616,-0.04586655646562576,-0.08636844158172607
1759162937886064600,0.996064697265625,0.0029087045695632696,-0.04262522608041763,-0.0744531974196434
1759162937896121900,1.006121826171875,-0.02624145708978176,-0.05053294822573662,-0.062063105404376984
1759162937906178800,1.0161787109375,-0.0021552962716668844,-0.04694779962301254,-0.041361287236213684
1759162937916235800,1.02623583984375,0.04361698403954506,-0.026437999680638313,-0.02600283920764923
1759162937926292700,1.036292724609375,0.08742545545101166,0.0002700445184018463,-0.015664713457226753
1759162937936349700,1.046349609375,0.1134602501988411,0.03252971172332764,-0.017560884356498718
1759162937946405600,1.056405517578125,0.10903886705636978,0.0716203898191452,-0.021456556394696236
1759162937956462600,1.066462646484375,0.08992056548595428,0.09683253616094589,-0.023811856284737587
1759162937966519600,1.07651953125,0.0797177329659462,0.11388901621103287,-0.027661988511681557
1759162937976576500,1.086576416015625,0.046720102429389954,0.10746441036462784,-0.032941438257694244
1759162937986633500,1.096633544921875,0.05691494792699814,0.11421605199575424,-0.04544178396463394
1759162937996690700,1.106690673828125,0.05776236578822136,0.09656568616628647,-0.06742405146360397
1759162938006747600,1.11674755859375,0.06601603329181671,0.06967388838529587,-0.08013105392456055
1759162938016804600,1.1268046875,0.06655719131231308,0.035654399544000626,-0.09822963178157806
1759162938026861600,1.136861572265625,0.09091738611459732,-0.04885249584913254,-0.14678572118282318
1759162938036918500,1.14691845703125,0.08147488534450531,-0.09080713242292404,-0.16763506829738617
1759162938046975500,1.1569755859375,0.11625204235315323,-0.09333660453557968,-0.16772295534610748
1759162938057031700,1.16703173828125,0.14800171554088593,-0.059125903993844986,-0.1611715853214264
1759162938067088600,1.177088623046875,0.1388167440891266,-0.015967514365911484,-0.15142494440078735
1759162938077145600,1.1871455078125,0.10524679720401764,0.012064386159181595,-0.1335436850786209
1759162938087202600,1.19720263671875,0.08351326733827591,0.015221563167870045,-0.10797227174043655
1759162938097259800,1.207259765625,0.07386863231658936,0.015146195888519287,-0.08311139792203903
1759162938107316700,1.217316650390625,0.07833395153284073,0.009342635050415993,-0.06402532011270523
1759162938117373700,1.227373779296875,0.08274281769990921,-0.005031243897974491,-0.05536232516169548
1759162938127430700,1.2374306640625,0.09140368551015854,-0.02889236807823181,-0.055147141218185425
1759162938137487600,1.247487548828125,0.10437007993459702,-0.05640149116516113,-0.061640460044145584
1759162938147544600,1.257544677734375,0.12293177843093872,-0.07979176938533783,-0.07223531603813171
1759162938157601500,1.2676015625,0.12783758342266083,-0.08757219463586807,-0.091883584856987
1759162938167658500,1.277658447265625,0.13626223802566528,-0.0997319221496582,-0.10825350135564804
1759162938177715500,1.287715576171875,0.15084223449230194,-0.11661715805530548,-0.12063880264759064
1759162938187771600,1.297771728515625,0.1735110729932785,-0.1385730654001236,-0.12313764542341232
1759162938197828600,1.30782861328125,0.2056484967470169,-0.15136101841926575,-0.12130112946033478
1759162938207885800,1.3178857421875,0.2402871698141098,-0.15686631202697754,-0.1191098764538765
1759162938217942800,1.32794287109375,0.26372724771499634,-0.18148191273212433,-0.11622247844934464
1759162938227999700,1.337999755859375,0.23790496587753296,-0.19133055210113525,-0.1394801288843155
1759162938238056700,1.348056640625,0.24574744701385498,-0.16673651337623596,-0.1368587762117386
1759162938248113700,1.35811376953125,0.2751934826374054,-0.14507223665714264,-0.12358851730823517
1759162938258170600,1.368170654296875,0.320128470659256,-0.123124860227108,-0.11869069933891296
1759162938268227600,1.3782275390625,0.3297581970691681,-0.07188776880502701,-0.10904312878847122
1759162938278284500,1.388284423828125,0.3427794575691223,-0.04280179366469383,-0.09666795283555984
1759162938288342300,1.39834228515625,0.361524373292923,-0.05534155294299126,-0.09366630762815475
1759162938298399200,1.408399169921875,0.38398733735084534,-0.07862982898950577,-0.10267151892185211
1759162938308456200,1.418456298828125,0.4020718038082123,-0.07661435008049011,-0.12193016707897186
1759162938318513200,1.42851318359375,0.4153817594051361,-0.04571129381656647,-0.15194904804229736
1759162938328570000,1.438570068359375,0.4169948399066925,-0.0010788465151563287,-0.18364626169204712
1759162938338627000,1.448626953125,0.42169690132141113,0.06269080936908722,-0.20615583658218384
1759162938348684000,1.45868408203125,0.4616467356681824,0.13314473628997803,-0.20226575434207916
1759162938358741000,1.468740966796875,0.4930104911327362,0.2473464161157608,-0.20713800191879272
1759162938368798200,1.478798095703125,0.46424275636672974,0.39890238642692566,-0.2507549822330475
1759162938378855200,1.488855224609375,0.39410310983657837,0.5454002022743225,-0.32731953263282776
1759162938388912000,1.498912109375,0.35431015491485596,0.5700107216835022,-0.3419557511806488
1759162938398969000,1.508968994140625,0.39269641041755676,0.48041000962257385,-0.3130228817462921
1759162938409026000,1.519026123046875,0.4416376054286957,0.380874365568161,-0.28543201088905334
1759162938419083000,1.5290830078125,0.4259031116962433,0.336678147315979,-0.29739201068878174
1759162938429140000,1.539139892578125,0.35742178559303284,0.32218417525291443,-0.3130492568016052
1759162938439197200,1.549197265625,0.28171876072883606,0.30843374133110046,-0.3087802231311798
1759162938449254100,1.559254150390625,0.24453863501548767,0.2914177179336548,-0.26585352420806885
1759162938459311400,1.569311279296875,0.22503311932086945,0.2893489897251129,-0.19587522745132446
1759162938469368300,1.579368408203125,0.20558111369609833,0.2820620536804199,-0.1225203201174736
1759162938479424300,1.58942431640625,0.18726815283298492,0.24228587746620178,-0.06575877219438553
1759162938489481200,1.599481201171875,0.17945125699043274,0.17827466130256653,-0.03696148097515106
1759162938499538200,1.6095380859375,0.17893806099891663,0.1049189567565918,-0.0359199158847332
1759162938509595100,1.61959521484375,0.18404653668403625,0.019030949100852013,-0.054854195564985275
1759162938519652000,1.629652099609375,0.1776578724384308,-0.05071510747075081,-0.10452800989151001
1759162938529709000,1.639708984375,0.19170205295085907,-0.09311716258525848,-0.1664278656244278
1759162938539766000,1.64976611328125,0.2361198514699936,-0.07414799928665161,-0.23429079353809357
1759162938549823000,1.659822998046875,0.26967915892601013,0.024569790810346603,-0.29946714639663696
1759162938559880200,1.669880126953125,0.3217697739601135,0.20570895075798035,-0.34932684898376465
1759162938569937200,1.679937255859375,0.3982565701007843,0.4093707203865051,-0.3537532687187195
1759162938579994000,1.689994140625,0.4778675138950348,0.6079466938972473,-0.3309571444988251
1759162938590051000,1.700051025390625,0.5187851190567017,0.7802875638008118,-0.3056110441684723
1759162938600109000,1.710109130859375,0.46312424540519714,0.8759999871253967,-0.3238731324672699
1759162938610166000,1.720166015625,0.37178900837898254,0.8314351439476013,-0.39735907316207886
1759162938620223000,1.730222900390625,0.28845974802970886,0.6537793874740601,-0.4166640639305115
1759162938630280200,1.7402802734375,0.1864553689956665,0.4314582049846649,-0.3445262312889099
1759162938640337200,1.750337158203125,0.11059442162513733,0.20330731570720673,-0.2322835773229599
1759162938650394000,1.76039404296875,0.06900756061077118,0.052013665437698364,-0.13572187721729279
1759162938660451000,1.770451171875,0.0401998832821846,-0.04033543914556503,-0.06463358551263809
1759162938670508000,1.780508056640625,0.008347411639988422,-0.12376215308904648,-0.025011610239744186
1759162938680565000,1.79056494140625,-0.013200757093727589,-0.19897648692131042,-0.01865784078836441
1759162938690622200,1.800622314453125,-0.007595335599035025,-0.2852093577384949,-0.027948277071118355
1759162938700679200,1.81067919921875,0.008961270563304424,-0.3720606565475464,-0.04861121252179146
1759162938710736100,1.820736083984375,0.021862421184778214,-0.44446054100990295,-0.06977242231369019
1759162938720793300,1.83079345703125,0.03321201354265213,-0.47824034094810486,-0.08524805307388306
1759162938730850300,1.840850341796875,0.05254203826189041,-0.4416043162345886,-0.09963418543338776
1759162938740907300,1.8509072265625,0.07013940811157227,-0.3597957193851471,-0.10512562096118927
1759162938750964200,1.860964111328125,0.08642170578241348,-0.26169365644454956,-0.11630663275718689
1759162938761021200,1.871021240234375,0.11120641231536865,-0.16192951798439026,-0.12997505068778992
1759162938771078100,1.881078125,0.17088519036769867,-0.10495704412460327,-0.14379684627056122
1759162938781135000,1.891135009765625,0.23146624863147736,-0.04415441304445267,-0.166005477309227
1759162938791192000,1.901192138671875,0.2746264934539795,0.011914716102182865,-0.18253226578235626
1759162938801249000,1.9112490234375,0.28388312458992004,0.059189554303884506,-0.16555488109588623
1759162938811306200,1.92130615234375,0.2701776921749115,0.03840917348861694,-0.12128541618585587
1759162938821363200,1.93136328125,0.2428605854511261,-0.05693332478404045,-0.06585198640823364
1759162938831420200,1.941420166015625,0.19465629756450653,-0.16950727999210358,0.005477323196828365
1759162938841477000,1.95147705078125,0.13160116970539093,-0.24689367413520813,0.06683921813964844
1759162938851534000,1.9615341796875,0.08405628800392151,-0.26776352524757385,0.1235022321343422
1759162938861591000,1.971591064453125,0.0721982941031456,-0.2488553524017334,0.18323053419589996
1759162938871648000,1.98164794921875,0.0858192965388298,-0.20383141934871674,0.2346535176038742
1759162938881705000,1.991705078125,0.13962580263614655,-0.14466211199760437,0.22735698521137238
1759162938891763200,2.00176318359375,0.23830178380012512,-0.02521454356610775,0.114934042096138
1759162938901820200,2.011820068359375,0.34361568093299866,0.14887788891792297,-0.07419939339160919
1759162938911877000,2.021877197265625,0.38519081473350525,0.3411349654197693,-0.24327337741851807
1759162938921934000,2.03193408203125,0.4299681484699249,0.49085041880607605,-0.34586071968078613
1759162938931991000,2.041990966796875,0.4479255676269531,0.596459150314331,-0.37371954321861267
1759162938942048000,2.052048095703125,0.4936339557170868,0.6323391199111938,-0.3509441614151001
1759162938952105000,2.06210498046875,0.48910951614379883,0.632709264755249,-0.25726374983787537
1759162938962162200,2.072162109375,0.47906193137168884,0.5976405143737793,-0.12998409569263458
1759162938972219100,2.08221923828125,0.47471779584884644,0.44526374340057373,-0.04572407901287079
1759162938982276000,2.092276123046875,0.4962180256843567,0.17765948176383972,-0.04133998230099678
1759162938992333000,2.1023330078125,0.514959990978241,-0.0985817015171051,-0.09408841282129288
1759162939002390300,2.112390380859375,0.5601498484611511,-0.14810025691986084,-0.17251424491405487
1759162939012447200,2.122447265625,0.5562965273857117,0.0026730147656053305,-0.23299676179885864
1759162939022504200,2.132504150390625,0.5702903866767883,0.17907653748989105,-0.2506023943424225
1759162939032562200,2.142562255859375,0.5102089047431946,0.08528267592191696,-0.20489296317100525
1759162939042619100,2.152619140625,0.4230561852455139,-0.10709396004676819,-0.16851764917373657
1759162939052676000,2.162676025390625,0.3110817074775696,-0.21448513865470886,-0.1646704375743866
1759162939062733000,2.172733154296875,0.2249087393283844,-0.25018107891082764,-0.1525447964668274
1759162939072790300,2.182790283203125,0.19847367703914642,-0.29410165548324585,-0.12240953743457794
1759162939082847200,2.19284716796875,0.22299419343471527,-0.35217881202697754,-0.07093355804681778
1759162939092904200,2.202904296875,0.23114453256130219,-0.3359588384628296,-0.007250189781188965
1759162939102961200,2.212961181640625,0.22483551502227783,-0.26626071333885193,0.05775890499353409
1759162939113018000,2.22301806640625,0.21885591745376587,-0.1661365032196045,0.103706955909729
1759162939123075300,2.233075439453125,0.20914416015148163,-0.07750730961561203,0.10677091777324677
1759162939133132300,2.24313232421875,0.20369453728199005,-0.055142879486083984,0.08865024149417877
1759162939143189200,2.253189208984375,0.18489022552967072,-0.04009202495217323,0.06315180659294128
1759162939153247200,2.263247314453125,0.15409955382347107,-0.032041024416685104,0.05403580516576767
1759162939163304200,2.27330419921875,0.13742762804031372,-0.026269687339663506,0.03399977833032608
1759162939173361200,2.283361083984375,0.13393835723400116,-0.03227271884679794,-0.0024711471050977707
1759162939183418000,2.293418212890625,0.14988963305950165,-0.04519783705472946,-0.01966691203415394
1759162939193475300,2.303475341796875,0.1754053682088852,-0.0641704648733139,-0.002062085550278425
1759162939203532300,2.3135322265625,0.16655409336090088,-0.07578104734420776,0.0631355568766594
1759162939213589200,2.32358935546875,0.12066889554262161,-0.07249097526073456,0.1570977419614792
1759162939223646200,2.333646240234375,0.04909271001815796,-0.05901804566383362,0.24046720564365387
1759162939233703200,2.343703125,-0.04054369777441025,-0.03217897564172745,0.2699097692966461
1759162939243761200,2.35376123046875,-0.12389957159757614,-0.0441642664372921,0.2293303906917572
1759162939253818000,2.363818115234375,-0.17680619657039642,-0.07107337564229965,0.13883857429027557
1759162939263875300,2.373875244140625,-0.2112525850534439,-0.04559864476323128,0.03549274802207947
1759162939273932300,2.383932373046875,-0.21313677728176117,0.015686018392443657,-0.04346225783228874
1759162939283989200,2.3939892578125,-0.17596091330051422,0.08320434391498566,-0.0739826112985611
1759162939294045400,2.40404541015625,-0.11760199815034866,0.13470108807086945,-0.06352145224809647
1759162939304102700,2.4141025390625,-0.06788264214992523,0.1507152020931244,-0.022478943690657616
1759162939314159600,2.42415966796875,-0.04752890393137932,0.13846945762634277,0.013532320037484169
1759162939324216600,2.434216552734375,-0.04439942166209221,0.10146030783653259,0.014358432963490486
1759162939334274600,2.444274658203125,-0.06576569378376007,0.0919504314661026,-0.018458370119333267
1759162939344331500,2.45433154296875,-0.1221940889954567,0.1174672394990921,-0.07258552312850952
1759162939354388500,2.464388427734375,-0.21993929147720337,0.16448108851909637,-0.12468307465314865
1759162939364445400,2.474445556640625,-0.33788803219795227,0.22865980863571167,-0.1564660370349884
1759162939374502700,2.484502685546875,-0.4438892900943756,0.293412446975708,-0.16734452545642853
1759162939384559600,2.4945595703125,-0.5194253325462341,0.3358115553855896,-0.1816512942314148
1759162939394616600,2.504616455078125,-0.5317562818527222,0.35003843903541565,-0.2048732489347458
1759162939404674600,2.514674560546875,-0.4492585062980652,0.322672575712204,-0.26427558064460754
1759162939414731500,2.5247314453125,-0.3038158118724823,0.20655344426631927,-0.3376201093196869
1759162939424788500,2.53478857421875,-0.19999727606773376,0.006739927921444178,-0.3818989098072052
1759162939434845400,2.544845458984375,-0.16759298741817474,-0.16710376739501953,-0.41341954469680786
1759162939444902700,2.554902587890625,-0.20809167623519897,-0.28090542554855347,-0.41558602452278137
1759162939454959600,2.564959716796875,-0.30409252643585205,-0.288517028093338,-0.40056899189949036
1759162939465016600,2.5750166015625,-0.40903598070144653,-0.2555742561817169,-0.36929282546043396
1759162939475073500,2.585073486328125,-0.5045547485351562,-0.24695545434951782,-0.3522794842720032
1759162939485131500,2.595131591796875,-0.5687494874000549,-0.26518160104751587,-0.35405394434928894
1759162939495188500,2.6051884765625,-0.6069016456604004,-0.2506106495857239,-0.3769637942314148
1759162939505245400,2.615245361328125,-0.6388849020004272,-0.1844971477985382,-0.40599650144577026
1759162939515302700,2.625302734375,-0.6788016557693481,-0.085075743496418,-0.40739598870277405
1759162939525359600,2.635359619140625,-0.7247662544250488,0.012868394143879414,-0.34259650111198425
1759162939535416600,2.64541650390625,-0.7892965078353882,0.11707629263401031,-0.20523305237293243
1759162939545474600,2.655474609375,-0.866644024848938,0.26787564158439636,-0.02947852946817875
1759162939555531500,2.665531494140625,-0.9498100280761719,0.395886093378067,0.14990773797035217
1759162939565588500,2.67558837890625,-1.0089972019195557,0.43099212646484375,0.3029510974884033
1759162939575645400,2.6856455078125,-1.022948145866394,0.35137268900871277,0.4112333357334137
1759162939585702700,2.69570263671875,-0.9753233790397644,0.20894575119018555,0.48120418190956116
1759162939595759600,2.705759521484375,-0.8847125172615051,0.08590265363454819,0.5375654697418213
1759162939605816600,2.715816650390625,-0.7525070309638977,0.015958726406097412,0.6224595904350281
1759162939615874600,2.72587451171875,-0.6173747777938843,0.04043131321668625,0.7317160367965698
1759162939625931500,2.735931640625,-0.4836178123950958,0.1337982714176178,0.8627848029136658
1759162939635988500,2.745988525390625,-0.3671306073665619,0.26084384322166443,0.9992587566375732
1759162939646045400,2.75604541015625,-0.26827406883239746,0.3712310791015625,1.1532491445541382
1759162939656102700,2.7661025390625,-0.17963473498821259,0.4540516436100006,1.321512222290039
1759162939666159600,2.77615966796875,-0.08540783822536469,0.5336365103721619,1.4806424379348755
1759162939676217600,2.786217529296875,0.03537663444876671,0.6491151452064514,1.604270339012146
1759162939686274600,2.796274658203125,0.10991930961608887,0.8295727968215942,1.6536844968795776
1759162939696331500,2.80633154296875,0.2201978862285614,0.9080535173416138,1.6818625926971436
1759162939706388500,2.816388427734375,0.33378010988235474,0.9024336934089661,1.690263032913208
1759162939716445400,2.826445556640625,0.43146830797195435,0.8923531174659729,1.693678617477417
1759162939726502700,2.836502685546875,0.496573269367218,0.9386278986930847,1.6983494758605957
1759162939736560600,2.846560546875,0.531528890132904,1.0686988830566406,1.734721064567566
1759162939746617600,2.85661767578125,0.5346988439559937,1.2649387121200562,1.8007535934448242
1759162939756674600,2.866674560546875,0.509576678276062,1.5340569019317627,1.890075445175171
1759162939766731500,2.8767314453125,0.48172590136528015,1.8557499647140503,1.9718928337097168
1759162939776788500,2.88678857421875,0.4777897298336029,2.1875383853912354,2.020826578140259
1759162939786846700,2.8968466796875,0.4764035642147064,2.479137897491455,2.0029051303863525
1759162939796903700,2.906903564453125,0.503513753414154,2.6311542987823486,1.9179686307907104
1759162939806960600,2.916960693359375,0.5353358387947083,2.5424764156341553,1.8124371767044067
1759162939817017600,2.927017578125,0.5439623594284058,2.1984033584594727,1.7591891288757324
1759162939827074600,2.937074462890625,0.5450172424316406,1.6270941495895386,1.7532933950424194
1759162939837131500,2.947131591796875,0.5425027012825012,1.162672758102417,1.598438024520874
1759162939847189800,2.957189697265625,0.6499425768852234,0.8237442374229431,1.3323930501937866
1759162939857246700,2.967246826171875,0.9798105359077454,0.9180083870887756,1.0030018091201782
1759162939867303700,2.9773037109375,1.4862627983093262,1.5407071113586426,0.6263682842254639
1759162939877360600,2.987360595703125,2.054342031478882,2.346508741378784,0.41529759764671326
1759162939887417600,2.99741748046875,2.458979606628418,2.867976427078247,0.3902580142021179
1759162939897475600,3.0074755859375,2.5306341648101807,2.875723123550415,0.5065249800682068
1759162939907532500,3.017532470703125,2.4354043006896973,2.358571767807007,0.636881947517395
1759162939917589800,3.02758984375,2.3923234939575195,1.4352933168411255,0.818757951259613
1759162939927646700,3.037646728515625,2.382909059524536,0.6296309232711792,1.0237622261047363
1759162939937703700,3.04770361328125,2.3292155265808105,0.1417936235666275,1.204891562461853
1759162939947761400,3.057761474609375,2.306704044342041,-0.1036643460392952,1.380941390991211
1759162939957818600,3.067818603515625,2.278437376022339,-0.17740567028522491,1.4936383962631226
1759162939967875600,3.07787548828125,2.2263991832733154,-0.42677953839302063,1.6031877994537354
1759162939977932500,3.0879326171875,2.165332555770874,-0.8362546563148499,1.7931462526321411
1759162939987989800,3.09798974609375,2.130643129348755,-1.0243494510650635,1.9387810230255127
1759162939998047500,3.108047607421875,1.9979716539382935,-1.4022542238235474,2.0957698822021484
1759162940008104400,3.1181044921875,1.7944190502166748,-1.8918414115905762,2.350843906402588
1759162940018161400,3.128161376953125,1.5601279735565186,-2.0517120361328125,2.460293769836426
1759162940028218600,3.138218505859375,1.3887269496917725,-2.113734722137451,2.451988935470581
1759162940038275600,3.148275634765625,1.263533353805542,-2.0002245903015137,2.2833375930786133
1759162940048333600,3.15833349609375,1.0256009101867676,-2.1767115592956543,2.2689695358276367
1759162940058390500,3.168390625,0.8784255981445312,-1.9923853874206543,2.090010166168213
1759162940068447500,3.178447509765625,0.7510433793067932,-1.7418452501296997,1.8162803649902344
1759162940078504400,3.18850439453125,0.6601595282554626,-1.55263090133667,1.49838387966156
1759162940088561400,3.1985615234375,0.5777943730354309,-1.3987095355987549,1.1714779138565063
1759162940098619400,3.208619384765625,0.6128618121147156,-1.1119587421417236,0.7794281244277954
1759162940108676600,3.218676513671875,0.5125408172607422,-1.1870853900909424,0.578904390335083
1759162940118733600,3.228733642578125,0.5060509443283081,-0.9890215992927551,0.31711244583129883
1759162940128790500,3.23879052734375,0.5166140794754028,-0.7513797283172607,0.057017747312784195
1759162940138848500,3.2488486328125,0.6046315431594849,-0.28333398699760437,-0.2760571539402008
1759162940148905500,3.258905517578125,0.537898063659668,-0.3375561833381653,-0.4015738070011139
1759162940158962400,3.26896240234375,0.5201369524002075,-0.17763976752758026,-0.570022463798523
1759162940169019400,3.279019287109375,0.5166606903076172,-0.055447544902563095,-0.7149583697319031
1759162940179076600,3.28907666015625,0.5021136999130249,0.00013262542779557407,-0.8227673768997192
1759162940189134600,3.299134521484375,0.4663514494895935,-0.008708270266652107,-0.8815963268280029
1759162940199191600,3.309191650390625,0.4188838005065918,-0.058029480278491974,-0.90146404504776
1759162940209248500,3.31924853515625,0.3580414950847626,-0.14146845042705536,-0.8969100117683411
1759162940219305500,3.329305419921875,0.2874365746974945,-0.22091293334960938,-0.8972466588020325
1759162940229363700,3.33936376953125,0.20010405778884888,-0.2538098990917206,-0.9038577079772949
1759162940239420700,3.349420654296875,0.08692291378974915,-0.20470547676086426,-0.9187700748443604
1759162940249477600,3.3594775390625,-0.04517466947436333,-0.11151960492134094,-0.9302091598510742
1759162940259534600,3.36953466796875,-0.14794445037841797,-0.03007827326655388,-0.9813532829284668
1759162940269591600,3.379591552734375,-0.18517199158668518,0.07547904551029205,-1.0577476024627686
1759162940279649500,3.3896494140625,-0.10505025088787079,0.22076007723808289,-1.1298441886901855
1759162940289706500,3.39970654296875,0.06836547702550888,0.36522164940834045,-1.142137885093689
1759162940299763000,3.409762939453125,0.25350096821784973,0.42737877368927,-1.0786950588226318
1759162940309820000,3.41981982421875,0.3457121253013611,0.2544594407081604,-1.058384656906128
1759162940319878000,3.4298779296875,0.17652790248394012,0.12085345387458801,-1.0283007621765137
1759162940329934800,3.439934814453125,-0.14391721785068512,-0.19485284388065338,-0.675068199634552
1759162940339992000,3.449991943359375,-0.3503281772136688,-0.4723763167858124,-0.4773242175579071
1759162940350049000,3.460049072265625,-0.46266910433769226,-0.8358474969863892,-0.45723891258239746
1759162940360107000,3.47010693359375,-0.5509939193725586,-1.0090781450271606,-0.4011610150337219
1759162940370164000,3.4801640625,-0.6619870066642761,-1.1948604583740234,-0.3351774513721466
1759162940380221000,3.490220947265625,-0.8203476071357727,-1.4054741859436035,-0.3425544202327728
1759162940390278000,3.50027783203125,-0.9629513621330261,-1.604099154472351,-0.46513891220092773
1759162940400336100,3.510336181640625,-1.069437861442566,-1.5695531368255615,-0.6602109670639038
1759162940410393000,3.52039306640625,-1.1117664575576782,-1.3360759019851685,-0.8933296799659729
1759162940420450000,3.530449951171875,-1.1052217483520508,-1.1094132661819458,-1.1754119396209717
1759162940430507000,3.540507080078125,-1.0605911016464233,-0.8312292695045471,-1.4571166038513184
1759162940440565000,3.55056494140625,-1.0559524297714233,-0.433919757604599,-1.6939888000488281
1759162940450622000,3.5606220703125,-1.0548263788223267,-0.07989909499883652,-1.9035625457763672
1759162940460679200,3.57067919921875,-1.036342978477478,0.21333464980125427,-2.0479886531829834
1759162940470736100,3.580736083984375,-1.087275505065918,0.4311380684375763,-2.1233670711517334
1759162940480793900,3.5907939453125,-1.1854132413864136,0.5747128129005432,-2.1449646949768066
1759162940490850800,3.600850830078125,-1.2391952276229858,0.6955193877220154,-2.1326215267181396
1759162940500907800,3.61090771484375,-1.240002989768982,0.7730658650398254,-2.071464776992798
1759162940510965000,3.620965087890625,-1.2072367668151855,0.815319299697876,-1.9807924032211304
1759162940521023000,3.63102294921875,-1.168441891670227,0.8968176245689392,-1.900384545326233
1759162940531080000,3.641079833984375,-1.1353510618209839,0.9103885889053345,-1.8519717454910278
1759162940541137000,3.651136962890625,-1.08221435546875,0.9163588285446167,-1.8164457082748413
1759162940551193900,3.66119384765625,-1.0574560165405273,0.9123890995979309,-1.7831072807312012
1759162940561251800,3.671251953125,-1.0264378786087036,0.8380951881408691,-1.7262433767318726
1759162940571308800,3.681308837890625,-0.9732559323310852,0.7019919753074646,-1.6308116912841797
1759162940581365800,3.69136572265625,-0.8938561677932739,0.48897209763526917,-1.4890053272247314
1759162940591423000,3.701423095703125,-0.8299296498298645,0.2750294506549835,-1.3034367561340332
1759162940601481000,3.71148095703125,-0.823231041431427,0.10439271479845047,-1.1100715398788452
1759162940611538000,3.721537841796875,-0.8385748267173767,-0.06491108983755112,-0.8872203826904297
1759162940621595000,3.731594970703125,-0.8380690813064575,-0.2915809750556946,-0.6786160469055176
1759162940631651800,3.74165185546875,-0.839891254901886,-0.5310937166213989,-0.5216599702835083
1759162940641710000,3.7517099609375,-0.8439980745315552,-0.8124244213104248,-0.4034654498100281
1759162940651767000,3.76176708984375,-0.8181337118148804,-1.1565709114074707,-0.310230553150177
1759162940661824000,3.771823974609375,-0.7447308897972107,-1.4783177375793457,-0.2514660656452179
1759162940671881000,3.781880859375,-0.6475383043289185,-1.7487598657608032,-0.22604139149188995
1759162940681939000,3.79193896484375,-0.5646253228187561,-2.0002472400665283,-0.23149128258228302
1759162940691996000,3.801995849609375,-0.4811527729034424,-2.2291743755340576,-0.2555428147315979
1759162940702052900,3.812052978515625,-0.36619555950164795,-2.371321439743042,-0.3036067485809326
1759162940712111000,3.822111083984375,-0.2289053499698639,-2.2952609062194824,-0.3915959894657135
1759162940722168000,3.83216796875,-0.10283130407333374,-2.0545034408569336,-0.5213971138000488
1759162940732225000,3.84222509765625,0.02484196610748768,-1.7553787231445312,-0.6628994345664978
1759162940742282000,3.852281982421875,0.13292555510997772,-1.4368363618850708,-0.8253796696662903
1759162940752339700,3.862339599609375,0.22810134291648865,-1.0764622688293457,-0.9801567196846008
1759162940762397000,3.87239697265625,0.32071277499198914,-0.7495019435882568,-1.1251860857009888
1759162940772454100,3.8824541015625,0.4499242901802063,-0.46536022424697876,-1.2274482250213623
1759162940782511000,3.892510986328125,0.6062619686126709,-0.17532894015312195,-1.3353395462036133
1759162940792568800,3.90256884765625,0.7096911668777466,0.009764480404555798,-1.4195873737335205
1759162940802625800,3.912625732421875,0.7247473001480103,0.11735032498836517,-1.374650001525879
1759162940812682800,3.922682861328125,0.747922956943512,0.014463894069194794,-1.2664977312088013
1759162940822739700,3.93273974609375,0.8440231084823608,0.02473543956875801,-1.2738139629364014
1759162940832798000,3.9427978515625,0.8683934211730957,0.1814883053302765,-1.3408006429672241
1759162940842855000,3.95285498046875,0.738725483417511,0.5164172649383545,-1.4093163013458252
1759162940852911900,3.962911865234375,0.5201361179351807,0.8179201483726501,-1.3025100231170654
1759162940862969900,3.972969970703125,0.234613299369812,0.9125555753707886,-1.068385124206543
1759162940873026800,3.98302685546875,-0.055444616824388504,0.7676585912704468,-0.9292988777160645
1759162940883083800,3.993083740234375,-0.26216769218444824,0.4469170570373535,-0.8401817679405212
1759162940893141000,4.00314111328125,-0.318183034658432,0.1480826735496521,-0.7392264008522034
1759162940903199000,4.013198974609375,-0.20383408665657043,0.04777364805340767,-0.5760267972946167
1759162940913256000,4.023255859375,-0.01600266806781292,0.06894151866436005,-0.42164498567581177
1759162940923313000,4.03331298828125,0.1429784595966339,0.1274261325597763,-0.3465832471847534
1759162940933371000,4.043370849609375,0.23995932936668396,0.2490556240081787,-0.3253392279148102
1759162940943428000,4.053427978515625,0.26983654499053955,0.31042417883872986,-0.29197993874549866
1759162940953485000,4.063485107421875,0.25936979055404663,0.3698901832103729,-0.2830333113670349
1759162940963542000,4.0735419921875,0.22831067442893982,0.4302235543727875,-0.26846474409103394
1759162940973600000,4.08360009765625,0.19866569340229034,0.4514760971069336,-0.20631588995456696
1759162940983657000,4.093656982421875,0.14791515469551086,0.4488734006881714,-0.13024188578128815
1759162940993714000,4.1037138671875,0.0852469876408577,0.43575066328048706,-0.07722128182649612
1759162941003772000,4.11377197265625,0.02833949588239193,0.36174169182777405,-0.033242374658584595
1759162941013829000,4.1238291015625,-0.024418523535132408,0.2581780254840851,-0.009558085352182388
1759162941023886000,4.133885986328125,-0.06888771802186966,0.16484194993972778,-0.0012311793398112059
1759162941033943000,4.143943115234375,-0.08934372663497925,0.10818852484226227,0.0027292075101286173
1759162941044000800,4.154000732421875,-0.08828379213809967,0.09381810575723648,0.0033694314770400524
1759162941054057700,4.1640576171875,-0.09491000324487686,0.09629138559103012,0.012043080292642117
1759162941064115000,4.174114990234375,-0.1329316794872284,0.09213205426931381,0.022302908822894096
1759162941074173000,4.1841728515625,-0.18839681148529053,0.09115947037935257,0.038606781512498856
1759162941084230000,4.19422998046875,-0.2333725392818451,0.11724992841482162,0.07460606098175049
1759162941094286800,4.204286865234375,-0.26138898730278015,0.14677612483501434,0.11646243184804916
1759162941104344800,4.2143447265625,-0.2743191719055176,0.16172711551189423,0.1466970294713974
1759162941114402000,4.224402099609375,-0.2854711711406708,0.14595986902713776,0.15153811872005463
1759162941124459000,4.234458984375,-0.28700247406959534,0.08978661149740219,0.12549135088920593
1759162941134516000,4.244515869140625,-0.22696071863174438,0.008224107325077057,0.040233973413705826
1759162941144574000,4.254573974609375,-0.09958571195602417,-0.03852129355072975,-0.08569972217082977
1759162941154631000,4.264630859375,0.019449863582849503,-0.014127270318567753,-0.18540634214878082
1759162941164688000,4.27468798828125,0.054134875535964966,0.023094400763511658,-0.26391366124153137
1759162941174746000,4.28474609375,-0.017197895795106888,0.06300932914018631,-0.34085771441459656
1759162941184803000,4.294802978515625,-0.19978740811347961,0.09382876008749008,-0.4231454133987427
1759162941194860000,4.304860107421875,-0.4250926971435547,0.09157385677099228,-0.4818257689476013
1759162941204917000,4.3149169921875,-0.6265802979469299,0.05035105347633362,-0.5036618113517761
1759162941214975000,4.32497509765625,-0.7527648210525513,-0.01483620423823595,-0.47734764218330383
1759162941225032000,4.335031982421875,-0.787667989730835,-0.061291053891181946,-0.40526440739631653
1759162941235089000,4.3450888671875,-0.7500556111335754,-0.09085693210363388,-0.31780752539634705
1759162941245147000,4.35514697265625,-0.6690622568130493,-0.1220657229423523,-0.2464614361524582
1759162941255203800,4.365203857421875,-0.5890963077545166,-0.16407814621925354,-0.18228697776794434
1759162941265261000,4.375260986328125,-0.5251647233963013,-0.1806155890226364,-0.09654944390058517
1759162941275318800,4.38531884765625,-0.5170543193817139,-0.1580926924943924,0.015542208217084408
1759162941285375700,4.395375732421875,-0.5559782981872559,-0.05921671912074089,0.16726408898830414
1759162941295433000,4.405432861328125,-0.6434112191200256,0.07465506345033646,0.3643406629562378
1759162941305491000,4.415490966796875,-0.7438629865646362,0.2440108060836792,0.5874342322349548
1759162941315548000,4.4255478515625,-0.8044754266738892,0.39123088121414185,0.8227985501289368
1759162941325604900,4.43560498046875,-0.7622070908546448,0.4710431396961212,1.0431396961212158
1759162941335662800,4.445662841796875,-0.6091166138648987,0.49017661809921265,1.228277325630188
1759162941345720000,4.455719970703125,-0.40103423595428467,0.5109809637069702,1.3533380031585693
1759162941355777000,4.465777099609375,-0.16249489784240723,0.517720103263855,1.4325956106185913
1759162941365834000,4.475833984375,0.056175388395786285,0.5676242709159851,1.4558836221694946
1759162941375892000,4.48589208984375,0.2629309594631195,0.6782626509666443,1.4555456638336182
1759162941385949000,4.495948974609375,0.43017828464508057,0.8582673072814941,1.4359983205795288
1759162941396006000,4.506005859375,0.5571119785308838,1.0991795063018799,1.4080153703689575
1759162941406064000,4.516064208984375,0.6530444025993347,1.3149200677871704,1.3690192699432373
1759162941416121000,4.52612109375,0.8440409898757935,1.4535799026489258,1.3605924844741821
1759162941426178000,4.536177978515625,1.0631922483444214,1.4769039154052734,1.3760178089141846
1759162941436236000,4.546236083984375,1.2497605085372925,1.4583762884140015,1.4439542293548584
1759162941446293000,4.55629296875,1.3145650625228882,1.3864110708236694,1.5496143102645874
1759162941456350000,4.566349853515625,1.2236993312835693,1.224910020828247,1.6900070905685425
1759162941466408000,4.576407958984375,1.0202895402908325,1.099623680114746,1.8321908712387085
1759162941476465000,4.58646484375,0.7093148231506348,0.8808623552322388,1.9060709476470947
1759162941486521900,4.59652197265625,0.41988277435302734,0.9491553902626038,1.8969224691390991
1759162941496579800,4.606579833984375,0.22603286802768707,1.37821626663208,1.869131088256836
1759162941506636800,4.61663671875,0.16532397270202637,1.9152820110321045,1.8083117008209229
1759162941516693800,4.62669384765625,0.23315203189849854,2.2740776538848877,1.6210256814956665
1759162941526752000,4.636751953125,0.6688464879989624,2.0099663734436035,1.158113956451416
1759162941536809000,4.64680908203125,1.219317078590393,1.7685725688934326,0.569057047367096
1759162941546866000,4.656865966796875,1.6314023733139038,2.0235626697540283,0.19964146614074707
1759162941556923000,4.6669228515625,1.8128374814987183,2.3967180252075195,0.11825473606586456
1759162941566980900,4.67698095703125,1.9161382913589478,2.4899847507476807,0.21057428419589996
1759162941577038000,4.6870380859375,2.041247606277466,2.3313450813293457,0.3269070088863373
1759162941587095000,4.697094970703125,2.143040180206299,1.7482043504714966,0.4909779727458954
1759162941597153000,4.707153076171875,2.305691719055176,1.1068049669265747,0.6651577949523926
1759162941607210000,4.7172099609375,2.4438083171844482,0.7380253076553345,0.7649821043014526
1759162941617267000,4.727266845703125,2.5058486461639404,0.40389740467071533,0.8555055856704712
1759162941627325000,4.737324951171875,2.4743659496307373,-0.058219365775585175,1.057486891746521
1759162941637382100,4.747382080078125,2.4250147342681885,-0.46685293316841125,1.277430772781372
1759162941647439000,4.757439208984375,2.3504440784454346,-0.8036099076271057,1.442195177078247
1759162941657496800,4.767496826171875,2.2598397731781006,-1.144733190536499,1.5879936218261719
1759162941667553800,4.7775537109375,2.142310857772827,-1.3594372272491455,1.7704098224639893
1759162941677610800,4.78761083984375,2.1215691566467285,-1.1811281442642212,1.8281245231628418
1759162941687669000,4.7976689453125,2.0643486976623535,-1.27790367603302,1.9460610151290894
1759162941697726000,4.807725830078125,1.921572208404541,-1.6175960302352905,2.167249917984009
1759162941707783000,4.817782958984375,1.7017875909805298,-1.8199232816696167,2.3023681640625
1759162941717841000,4.8278408203125,1.521019697189331,-1.8446714878082275,2.285179376602173
1759162941727897900,4.83789794921875,1.4158152341842651,-1.6841069459915161,2.126779317855835
1759162941737954800,4.847954833984375,1.2126682996749878,-1.991959571838379,2.1322755813598633
1759162941748013000,4.858012939453125,1.044407606124878,-2.131089448928833,2.095399856567383
1759162941758070000,4.868070068359375,0.8906435966491699,-1.9780458211898804,1.9103083610534668
1759162941768127000,4.878126953125,0.7364686727523804,-1.8207371234893799,1.6739552021026611
1759162941778185000,4.88818505859375,0.6187574863433838,-1.6310114860534668,1.4091717004776
1759162941788242000,4.898241943359375,0.5150542855262756,-1.4614245891571045,1.1393556594848633
1759162941798299000,4.908298828125,0.4208841025829315,-1.3113088607788086,0.8822815418243408
1759162941808357000,4.918357177734375,0.33835673332214355,-1.0660532712936401,0.6257832050323486
1759162941818414000,4.9284140625,0.26671504974365234,-0.8288654685020447,0.38818901777267456
1759162941828471000,4.938470947265625,0.240064799785614,-0.5573362112045288,0.14274756610393524
1759162941838528800,4.94852880859375,0.23879553377628326,-0.29526492953300476,-0.08576683700084686
1759162941848585700,4.958585693359375,0.2398754507303238,-0.08080457150936127,-0.31752443313598633
1759162941858643000,4.968642822265625,0.26243722438812256,0.1386422961950302,-0.547760009765625
1759162941868701000,4.978700927734375,0.2911601960659027,0.29958832263946533,-0.7411771416664124
1759162941878758000,4.9887578125,0.2961781322956085,0.40990975499153137,-0.8952048420906067
1759162941888814800,4.99881494140625,0.29148536920547485,0.45809459686279297,-1.0008835792541504
1759162941898872800,5.008872802734375,0.27183258533477783,0.44185811281204224,-1.044547438621521
1759162941908929800,5.0189296875,0.23074373602867126,0.3505558967590332,-1.0448271036148071
1759162941918987000,5.028987060546875,0.18041850626468658,0.20945921540260315,-1.0161160230636597
1759162941929045000,5.039044921875,0.1206638365983963,0.08817087113857269,-0.9707094430923462
1759162941939102000,5.04910205078125,0.042868103832006454,0.07630142569541931,-0.9085065126419067
1759162941949159000,5.059158935546875,-0.05586300045251846,0.0967201516032219,-0.8920881152153015
1759162941959217000,5.069216796875,-0.1447390764951706,0.0537140928208828,-0.9920493364334106
1759162941969274000,5.079274169921875,-0.14735376834869385,-0.0008668589289300144,-1.1515707969665527
1759162941979331000,5.0893310546875,-0.0358770415186882,0.09392915666103363,-1.2005122900009155
1759162941989389000,5.09938916015625,0.09276136010885239,0.24049650132656097,-1.056803822517395
1759162941999446000,5.109446044921875,0.1687847524881363,0.31592947244644165,-1.0142028331756592
1759162942009503000,5.1195029296875,-0.014989336021244526,-0.18626601994037628,-0.8466266393661499
1759162942019561000,5.12956103515625,-0.21947403252124786,-0.39095523953437805,-0.6512041091918945
1759162942029618000,5.139617919921875,-0.38156867027282715,-0.7155442237854004,-0.48006194829940796
1759162942039675000,5.1496748046875,-0.5136135220527649,-0.9953266382217407,-0.4315037429332733
1759162942049732900,5.15973291015625,-0.5771256685256958,-1.0600826740264893,-0.5220927596092224
1759162942059789800,5.169789794921875,-0.6826754808425903,-0.8938218355178833,-0.5351560711860657
1759162942069846800,5.1798466796875,-0.7786630392074585,-0.7650582790374756,-0.5763311982154846
1759162942079905000,5.189905029296875,-0.889066219329834,-0.6528590321540833,-0.7669128775596619
1759162942089962000,5.1999619140625,-0.961394727230072,-0.5276901721954346,-0.9654632806777954
1759162942100019000,5.21001904296875,-1.0062682628631592,-0.30211910605430603,-1.1423603296279907
1759162942110077000,5.220076904296875,-1.0403809547424316,-0.07833528518676758,-1.3253343105316162
1759162942120134000,5.2301337890625,-1.059334397315979,0.13388589024543762,-1.510483741760254
1759162942130190800,5.24019091796875,-1.0875582695007324,0.3746532201766968,-1.6559621095657349
1759162942140249000,5.2502490234375,-1.1393409967422485,0.5505824685096741,-1.7762871980667114
1759162942150306000,5.26030615234375,-1.2144932746887207,0.677246630191803,-1.865454077720642
1759162942160364000,5.270364013671875,-1.2831737995147705,0.776458740234375,-1.9115906953811646
1759162942170421000,5.2804208984375,-1.3450188636779785,0.828678548336029,-1.9011965990066528
1759162942180478000,5.29047802734375,-1.3903477191925049,0.8321422338485718,-1.828987956047058
1759162942190536000,5.300535888671875,-1.4102988243103027,0.8135075569152832,-1.7284072637557983
1759162942200593000,5.310593017578125,-1.3970381021499634,0.7661355137825012,-1.63100266456604
1759162942210649900,5.32064990234375,-1.3444318771362305,0.6836089491844177,-1.536395788192749
1759162942220707800,5.330707763671875,-1.2736597061157227,0.6321172714233398,-1.4533394575119019
1759162942230764800,5.340764892578125,-1.2237920761108398,0.6044254302978516,-1.3957648277282715
1759162942240821800,5.35082177734375,-1.1920874118804932,0.5786694884300232,-1.361521601676941
1759162942250880000,5.3608798828125,-1.1833487749099731,0.5502423644065857,-1.337348461151123
1759162942260937000,5.37093701171875,-1.1989835500717163,0.48659947514533997,-1.3021677732467651
1759162942270994000,5.380993896484375,-1.1917169094085693,0.3968818485736847,-1.2323609590530396
1759162942281052000,5.391052001953125,-1.2045930624008179,0.29393842816352844,-1.118293285369873
1759162942291109400,5.401109375,-1.1470439434051514,0.1446184366941452,-0.9633665680885315
1759162942301166300,5.411166259765625,-1.0616753101348877,-0.10499405860900879,-0.7716155052185059
1759162942311224600,5.421224609375,-0.9569441080093384,-0.3947845995426178,-0.5828868746757507
1759162942321281500,5.431281494140625,-0.876800000667572,-0.63703453540802,-0.4625607132911682
1759162942331338500,5.44133837890625,-0.8471235632896423,-0.8497049808502197,-0.38733547925949097
1759162942341396200,5.451396240234375,-0.8295032978057861,-1.0177052021026611,-0.3687460720539093
1759162942351453200,5.461453125,-0.813901424407959,-1.1292964220046997,-0.3896702527999878
1759162942361510400,5.471510498046875,-0.7695507407188416,-1.2608387470245361,-0.39631032943725586
1759162942371568400,5.481568359375,-0.7128368616104126,-1.422755479812622,-0.39138534665107727
1759162942381625300,5.491625244140625,-0.6470592021942139,-1.544481873512268,-0.3864419758319855
1759162942391683300,5.501683349609375,-0.5497078895568848,-1.624816656112671,-0.36949601769447327
1759162942401740300,5.511740234375,-0.4397754967212677,-1.613206386566162,-0.3992062509059906
1759162942411797200,5.52179736328125,-0.33681291341781616,-1.422701120376587,-0.5074238181114197
1759162942421855500,5.53185546875,-0.2344476580619812,-1.1508733034133911,-0.6632011532783508
1759162942431912400,5.541912353515625,-0.1095866784453392,-0.868294358253479,-0.8329877853393555
1759162942441969400,5.551969482421875,-0.04024515673518181,-0.599385142326355,-1.0040249824523926
1759162942452027400,5.56202734375,0.059426307678222656,-0.35403478145599365,-1.139424443244934
1759162942462084400,5.57208447265625,0.18938830494880676,-0.19025036692619324,-1.2105568647384644
1759162942472141600,5.5821416015625,0.23917104303836823,-0.11606215685606003,-1.2248029708862305
1759162942482199600,5.592199462890625,0.3021297752857208,-0.12233257293701172,-1.2371070384979248
1759162942492256500,5.602256591796875,0.39105111360549927,-0.08511728793382645,-1.289015531539917
1759162942502313500,5.6123134765625,0.5129104256629944,0.020003534853458405,-1.3425540924072266
1759162942512371200,5.62237109375,0.5615152716636658,0.16840100288391113,-1.3495910167694092
1759162942522428400,5.632428466796875,0.5448598265647888,0.21205925941467285,-1.273997187614441
1759162942532486400,5.642486328125,0.5965925455093384,0.12689989805221558,-1.1232808828353882
1759162942542543400,5.65254345703125,0.6828342080116272,0.027246268466114998,-0.9947596192359924
1759162942552600300,5.662600341796875,0.7181400060653687,0.0488482341170311,-0.982303261756897
1759162942562658300,5.672658203125,0.6039151549339294,0.2248016893863678,-1.0526388883590698
1759162942572715300,5.68271533203125,0.4458898603916168,0.528094470500946,-1.0723817348480225
1759162942582772500,5.6927724609375,0.32054632902145386,0.7291796207427979,-1.0017493963241577
1759162942592830500,5.70283056640625,0.2703015208244324,0.8214994072914124,-0.852383553981781
1759162942602887400,5.712887451171875,0.08790136128664017,0.7339181900024414,-0.7419785261154175
1759162942612944400,5.7229443359375,-0.12575367093086243,0.5124265551567078,-0.684330403804779
1759162942623002400,5.73300244140625,-0.2638814449310303,0.24001899361610413,-0.6512592434883118
1759162942633059600,5.7430595703125,-0.26383963227272034,-0.015511315315961838,-0.6066840887069702
1759162942643116500,5.753116455078125,-0.15947221219539642,-0.1916879415512085,-0.5359851121902466
1759162942653174500,5.763174560546875,-0.05499187856912613,-0.23502476513385773,-0.4256804585456848
1759162942663231500,5.7732314453125,-0.00802943017333746,-0.15402232110500336,-0.31804028153419495
1759162942673288400,5.783288330078125,0.02816825546324253,-0.043179694563150406,-0.25194036960601807
1759162942683346400,5.793346435546875,0.02105175517499447,0.04896221682429314,-0.2585149109363556
1759162942693403400,5.8034033203125,-0.035059183835983276,0.11962226778268814,-0.33536601066589355
1759162942703461400,5.81346142578125,-0.15137887001037598,0.20354166626930237,-0.4705781638622284
1759162942713518300,5.823518310546875,-0.27838581800460815,0.21108268201351166,-0.5891567468643188
1759162942723575300,5.8335751953125,-0.39282000064849854,0.13061606884002686,-0.6169598698616028
1759162942733633300,5.84363330078125,-0.44076648354530334,0.0628037303686142,-0.5521768927574158
1759162942743690500,5.8536904296875,-0.41981831192970276,0.07065819203853607,-0.44282349944114685
1759162942753747500,5.86374755859375,-0.33057764172554016,0.04106008633971214,-0.2762289345264435
1759162942763805400,5.873805419921875,-0.20053522288799286,0.09164975583553314,-0.07668332755565643
1759162942773862400,5.8838623046875,-0.08201044797897339,0.24039529263973236,0.07104674726724625
1759162942783919400,5.89391943359375,-0.00996261928230524,0.38321423530578613,0.11026525497436523
1759162942793977600,5.9039775390625,-0.02377244085073471,0.43144088983535767,0.06536862254142761
1759162942804034600,5.91403466796875,-0.10595865547657013,0.397865891456604,-0.010358631610870361
1759162942814091500,5.924091552734375,-0.20324179530143738,0.3659726679325104,-0.06981423497200012
1759162942824149200,5.934149169921875,-0.25155872106552124,0.36590129137039185,-0.07240362465381622
1759162942834206500,5.94420654296875,-0.22354893386363983,0.3830645680427551,0.00640889722853899
1759162942844264400,5.954264404296875,-0.1557304710149765,0.45213523507118225,0.11667095869779587
1759162942854321400,5.9643212890625,-0.08820495754480362,0.5637571215629578,0.16544568538665771
1759162942864378400,5.97437841796875,-0.03086497075855732,0.5882139801979065,0.09568977355957031
1759162942874436400,5.984436279296875,0.007484015077352524,0.4907289743423462,-0.07664870470762253
1759162942884493300,5.994493408203125,-0.04000840336084366,0.30802521109580994,-0.31548765301704407
1759162942894550300,6.00455029296875,-0.210292786359787,0.11056140065193176,-0.5384547114372253
1759162942904608500,6.0146083984375,-0.4241296947002411,0.015737950801849365,-0.6920847296714783
1759162942914665500,6.02466552734375,-0.5935288667678833,0.04256796836853027,-0.7407153844833374
1759162942924722400,6.034722412109375,-0.6954967379570007,0.13142620027065277,-0.6819223761558533
1759162942934780400,6.044780517578125,-0.7430906295776367,0.2333967685699463,-0.5339795351028442
1759162942944837400,6.05483740234375,-0.7474475502967834,0.26359301805496216,-0.3474128246307373
1759162942954895600,6.0648955078125,-0.7959895730018616,0.212028369307518,-0.20647753775119781
1759162942964952600,6.07495263671875,-0.7565712928771973,0.024946894496679306,-0.11239924281835556
1759162942975009500,6.085009521484375,-0.7222405076026917,-0.06704481691122055,-0.10955632477998734
1759162942985067300,6.0950673828125,-0.6867812871932983,-0.014451110735535622,-0.11458516865968704
1759162942995124200,6.105124267578125,-0.6641880869865417,0.12092828750610352,-0.07812117040157318
1759162943005181400,6.115181396484375,-0.6556952595710754,0.3211926817893982,0.03508155420422554
1759162943015239400,6.125239501953125,-0.6458200216293335,0.5037310719490051,0.2392650544643402
1759162943025296400,6.13529638671875,-0.6112875938415527,0.6675729751586914,0.4961945712566376
1759162943035353300,6.145353271484375,-0.5419612526893616,0.7516849637031555,0.7614845633506775
1759162943045411300,6.155411376953125,-0.426861047744751,0.7383073568344116,1.0194921493530273
1759162943055468300,6.16546826171875,-0.27307307720184326,0.6321439146995544,1.2707821130752563
1759162943065525200,6.175525146484375,-0.08907128870487213,0.522344172000885,1.5003384351730347
1759162943075583500,6.18558349609375,0.12233470380306244,0.43810704350471497,1.70638906955719
1759162943085640400,6.195640380859375,0.3450932204723358,0.3781616687774658,1.8977766036987305
1759162943095698400,6.205698486328125,0.5193004012107849,0.4027186930179596,2.050045967102051
1759162943105755400,6.21575537109375,0.6802919507026672,0.5125860571861267,2.154348134994507
1759162943115812400,6.225812255859375,0.6896223425865173,0.6471268534660339,2.1627554893493652
1759162943125870600,6.23587060546875,0.597814679145813,0.9345144033432007,2.095163345336914
1759162943135927600,6.245927490234375,0.571666955947876,1.2339783906936646,2.0114388465881348
1759162943145984500,6.255984619140625,0.6372864246368408,1.4183822870254517,1.9049670696258545
1759162943156042200,6.266042236328125,0.8653222918510437,1.633109211921692,1.7428677082061768
1759162943166099200,6.27609912109375,1.0932936668395996,1.7937366962432861,1.618601679801941
1759162943176156200,6.28615625,1.2204148769378662,1.9315345287322998,1.5064599514007568
1759162943186214400,6.29621435546875,1.2133561372756958,2.0520787239074707,1.423214316368103
1759162943196271400,6.306271240234375,1.097982406616211,2.221134901046753,1.3140393495559692
1759162943206329300,6.316329345703125,0.8723439574241638,2.2695744037628174,1.2351198196411133
1759162943216386300,6.32638623046875,0.60976243019104,2.0769736766815186,1.1280428171157837
1759162943226443300,6.336443359375,0.45980435609817505,1.7354161739349365,0.9518427848815918
1759162943236501500,6.34650146484375,0.5712746977806091,1.3849798440933228,0.8033787608146667
1759162943246558500,6.356558349609375,0.8651757836341858,1.2293130159378052,0.71871018409729
1759162943256615400,6.366615478515625,1.1611922979354858,1.0922023057937622,0.757850170135498
1759162943266673400,6.37667333984375,1.3885865211486816,0.8653702139854431,0.8170820474624634
1759162943276730400,6.38673046875,1.5969443321228027,0.6407086253166199,0.8024178743362427
1759162943286787600,6.39678759765625,1.788054347038269,0.5302153825759888,0.7182074189186096
1759162943296845600,6.406845458984375,1.9748809337615967,0.6118684411048889,0.5731332898139954
1759162943306902500,6.416902587890625,2.1865642070770264,0.7958707809448242,0.38417482376098633
1759162943316960500,6.42696044921875,2.3786351680755615,0.8898654580116272,0.21145205199718475
1759162943327017700,6.437017822265625,2.475613594055176,0.8849665522575378,0.10345741361379623
1759162943337074700,6.44707470703125,2.4374663829803467,0.7804361581802368,0.08378517627716064
1759162943347132700,6.457132568359375,2.326157808303833,0.4991442859172821,0.15027391910552979
1759162943357189600,6.467189697265625,2.129976987838745,-0.03985846787691116,0.36211854219436646
1759162943367246600,6.47724658203125,1.9798908233642578,-0.5326037406921387,0.6404212713241577
1759162943377304800,6.487304931640625,1.9218201637268066,-0.8140742778778076,0.8566529154777527
1759162943387361800,6.49736181640625,1.8847793340682983,-1.109031319618225,1.0305300951004028
1759162943397418800,6.507418701171875,1.9116119146347046,-1.4395054578781128,1.1991268396377563
1759162943407476700,6.517476806640625,1.8777176141738892,-1.6920766830444336,1.3659284114837646
1759162943417533700,6.52753369140625,1.7871919870376587,-1.89118492603302,1.6154260635375977
1759162943427591700,6.537591796875,1.6755565404891968,-1.8885951042175293,1.7589308023452759
1759162943437649000,6.54764892578125,1.6037564277648926,-1.6909674406051636,1.6902505159378052
1759162943447705900,6.557705810546875,1.4138085842132568,-1.8886981010437012,1.7032324075698853
1759162943457763600,6.567763671875,1.2388596534729004,-1.9762471914291382,1.7277758121490479
1759162943467820500,6.577820556640625,1.1035279035568237,-1.9573967456817627,1.6950244903564453
1759162943477877500,6.58787744140625,1.0556501150131226,-1.6595001220703125,1.530945062637329
1759162943487935700,6.597935791015625,0.8567285537719727,-1.7854881286621094,1.5424003601074219
1759162943497992700,6.60799267578125,0.7121130228042603,-1.6253395080566406,1.4553879499435425
1759162943508050700,6.61805078125,0.5998410582542419,-1.3773208856582642,1.2820435762405396
1759162943518107600,6.628107666015625,0.4912043511867523,-1.1713738441467285,1.1051963567733765
1759162943528164600,6.63816455078125,0.42794734239578247,-0.9964931011199951,0.9284586310386658
1759162943538222800,6.648222900390625,0.40682661533355713,-0.7851347923278809,0.7210553884506226
1759162943548279800,6.65827978515625,0.4681336581707001,-0.3981572389602661,0.43004751205444336
1759162943558336800,6.668336669921875,0.43342599272727966,-0.3711192309856415,0.25843608379364014
1759162943568394800,6.678394775390625,0.42731696367263794,-0.22699026763439178,0.06764482706785202
1759162943578451700,6.68845166015625,0.4427449405193329,-0.06475289911031723,-0.1320190131664276
1759162943588508700,6.6985087890625,0.43797972798347473,0.0486610122025013,-0.2915695309638977
1759162943598566700,6.708566650390625,0.412145733833313,0.11528638005256653,-0.4297660291194916
1759162943608623600,6.71862353515625,0.3714531660079956,0.14560566842556,-0.5450992584228516
1759162943618681600,6.728681640625,0.2985411584377289,0.10643323510885239,-0.6326903700828552
1759162943628738600,6.738738525390625,0.23105639219284058,0.042022816836833954,-0.7095127105712891
1759162943638795500,6.74879541015625,0.146164670586586,-0.0603078156709671,-0.7673360705375671
1759162943648853800,6.758853759765625,0.05248770862817764,-0.20734307169914246,-0.8167723417282104
1759162943658910700,6.76891064453125,-0.04824475944042206,-0.3354099690914154,-0.8558773994445801
1759162943668967700,6.7789677734375,-0.15472300350666046,-0.45283272862434387,-0.8845638632774353
1759162943679025700,6.789025634765625,-0.22531168162822723,-0.5281410813331604,-0.9184834957122803
1759162943689082600,6.79908251953125,-0.16770164668560028,-0.4681139290332794,-0.9738194942474365
1759162943699139600,6.8091396484375,-0.025968482717871666,-0.25276753306388855,-1.0082645416259766
1759162943709197800,6.81919775390625,0.20090168714523315,0.33683767914772034,-1.0841059684753418
1759162943719254800,6.8292548828125,0.2206820398569107,0.43346914649009705,-1.2114144563674927
1759162943729312800,6.839312744140625,-0.2049345076084137,-0.044449757784605026,-0.9942868947982788
1759162943739369700,6.84936962890625,-0.5131232142448425,0.11469808965921402,-0.7058223485946655
1759162943749426700,6.8594267578125,-0.6289377212524414,-0.1431632786989212,-0.46954724192619324
1759162943759484700,6.869484619140625,-0.7311977744102478,-0.4815559685230255,-0.4256732761859894
1759162943769541600,6.879541748046875,-0.7961573004722595,-0.5911780595779419,-0.4294951856136322
1759162943779598600,6.8895986328125,-0.8682712316513062,-0.6150708794593811,-0.3805982172489166
1759162943789656600,6.899656494140625,-0.9757816791534424,-0.6895062327384949,-0.4050140678882599
1759162943799713500,6.909713623046875,-0.993510365486145,-0.836767315864563,-0.5316210389137268
1759162943809770500,6.9197705078125,-0.9325207471847534,-0.8597224354743958,-0.6968173980712891
1759162943819828700,6.929828857421875,-0.8562904596328735,-0.770715057849884,-0.8965531587600708
1759162943829885700,6.9398857421875,-0.8590009808540344,-0.6364086866378784,-1.1397548913955688
1759162943839943700,6.949943603515625,-0.9541549682617188,-0.4255464971065521,-1.3627054691314697
1759162943850000600,6.960000732421875,-1.0594984292984009,-0.20505355298519135,-1.5606060028076172
1759162943860057600,6.9700576171875,-1.1989657878875732,-0.005620068870484829,-1.7343639135360718
1759162943870115800,6.98011572265625,-1.3504087924957275,0.174616277217865,-1.8511494398117065
1759162943880172800,6.9901728515625,-1.5241869688034058,0.31828823685646057,-1.8991239070892334
1759162943890229800,7.000229736328125,-1.6789594888687134,0.41329944133758545,-1.9136847257614136
1759162943900287700,7.010287841796875,-1.7220313549041748,0.4711206555366516,-1.8701694011688232
1759162943910344700,7.0203447265625,-1.7005889415740967,0.4797514081001282,-1.767799973487854
1759162943920401700,7.030401611328125,-1.632051944732666,0.4402602016925812,-1.6448055505752563
1759162943930459600,7.040459716796875,-1.5105966329574585,0.3985622823238373,-1.4982472658157349
1759162943940516600,7.0505166015625,-1.3647406101226807,0.34629297256469727,-1.3393911123275757
1759162943950574600,7.06057470703125,-1.2079204320907593,0.3371441960334778,-1.1895756721496582
1759162943960631600,7.070631591796875,-1.0726443529129028,0.32260867953300476,-1.0412530899047852
1759162943970688500,7.0806884765625,-1.0430773496627808,0.22239792346954346,-0.9359421133995056
1759162943980746800,7.090746826171875,-1.095363736152649,0.10806015878915787,-0.8571226596832275
1759162943990803700,7.1008037109375,-1.1535303592681885,0.05776902288198471,-0.8123839497566223
1759162944000860700,7.110860595703125,-1.2043440341949463,-0.05464939773082733,-0.746055543422699
1759162944010918700,7.120918701171875,-1.1669896841049194,-0.17157042026519775,-0.6614253520965576
1759162944020975600,7.1309755859375,-1.1053383350372314,-0.23676887154579163,-0.548948347568512
1759162944031033900,7.141033935546875,-1.0613034963607788,-0.31660884618759155,-0.4620280861854553
1759162944041090800,7.1510908203125,-1.2262789011001587,-0.53415846824646,-0.48394110798835754
1759162944051147800,7.161147705078125,-1.4338810443878174,-0.679406464099884,-0.5487933158874512
1759162944061205500,7.17120556640625,-1.4660414457321167,-0.787000834941864,-0.5776220560073853
1759162944071262700,7.1812626953125,-1.3499845266342163,-0.8895735740661621,-0.5513166785240173
1759162944081319700,7.191319580078125,-1.174705147743225,-0.9872980117797852,-0.4906855523586273
1759162944091377700,7.201377685546875,-1.0029672384262085,-1.0905356407165527,-0.45028647780418396
1759162944101434600,7.2114345703125,-0.7943690419197083,-1.1429014205932617,-0.4543837606906891
1759162944111491600,7.22149169921875,-0.5970141291618347,-1.1708438396453857,-0.4765705466270447
1759162944121549600,7.231549560546875,-0.47381868958473206,-1.1852065324783325,-0.5083646774291992
1759162944131606500,7.2416064453125,-0.42172035574913025,-1.0686661005020142,-0.520114541053772
1759162944141664800,7.251664794921875,-0.3460349142551422,-0.9641101360321045,-0.5548089146614075
1759162944151721700,7.2617216796875,-0.16557617485523224,-0.9082793593406677,-0.6208683252334595
1759162944161778700,7.27177880859375,-0.019041867926716805,-0.8495190739631653,-0.7290430068969727
1759162944171836700,7.281836669921875,-0.02161261811852455,-0.8238376975059509,-0.8764715790748596
1759162944181893600,7.2918935546875,-0.02305205538868904,-0.7142313122749329,-1.033872365951538
1759162944191950800,7.301950927734375,0.051666922867298126,-0.4998423159122467,-1.1472159624099731
1759162944202008800,7.3120087890625,0.17330734431743622,-0.3340296447277069,-1.2001240253448486
1759162944212065800,7.322065673828125,0.2925384044647217,-0.28099972009658813,-1.224237322807312
1759162944222122800,7.332122802734375,0.2921775281429291,-0.30196091532707214,-1.1582002639770508
1759162944232180500,7.342180419921875,0.2639634609222412,-0.3858819305896759,-1.0064330101013184
1759162944242237400,7.352237548828125,0.4549672603607178,-0.29796165227890015,-0.9055970311164856
1759162944252295700,7.362295654296875,0.729239821434021,0.16221314668655396,-1.05246901512146
1759162944262352600,7.3723525390625,0.8880124092102051,0.5988919138908386,-1.2859177589416504
1759162944272409600,7.38240966796875,0.9076910614967346,1.048862338066101,-1.4179564714431763
1759162944282467600,7.392467529296875,0.8450796008110046,1.390105128288269,-1.3895511627197266
1759162944292524800,7.40252490234375,0.7268695831298828,1.3763599395751953,-1.2260615825653076
1759162944302581800,7.412581787109375,0.4979802370071411,1.1766002178192139,-1.0794484615325928
1759162944312639700,7.4226396484375,0.2761855125427246,0.7592430114746094,-0.9045652747154236
1759162944322696700,7.43269677734375,0.15938246250152588,0.4238596558570862,-0.7981845140457153
1759162944332755000,7.4427548828125,0.06265246123075485,0.33044156432151794,-0.7669363021850586
1759162944342812000,7.45281201171875,-0.027941087260842323,0.1260836273431778,-0.6933891177177429
1759162944352868900,7.462868896484375,-0.07498423010110855,-0.09738567471504211,-0.584001898765564
1759162944362926800,7.4729267578125,-0.10728118568658829,-0.15805940330028534,-0.46087732911109924
1759162944372983800,7.48298388671875,-0.09965415298938751,-0.09187479317188263,-0.2689249515533447
1759162944383040800,7.493040771484375,-0.09125055372714996,0.16627046465873718,-0.13080674409866333
1759162944393098800,7.5030986328125,-0.05977252125740051,0.3805689215660095,-0.09892924129962921
1759162944403155700,7.51315576171875,-0.05745237320661545,0.42171820998191833,-0.1375642567873001
1759162944413212700,7.523212646484375,-0.08573594689369202,0.3896303176879883,-0.19496363401412964
1759162944423270700,7.533270751953125,-0.11272069066762924,0.3216904103755951,-0.24706119298934937
1759162944433327600,7.54332763671875,-0.12265081703662872,0.2276448756456375,-0.2962779998779297
1759162944443385900,7.5533857421875,-0.10493680089712143,0.12627431750297546,-0.3291853368282318
1759162944453442800,7.56344287109375,-0.06786799430847168,0.02383129671216011,-0.32117268443107605
1759162944463499800,7.573499755859375,-0.03226526081562042,-0.03261999413371086,-0.27137452363967896
1759162944473557800,7.583557861328125,-0.015373097732663155,-0.027368241921067238,-0.19195079803466797
1759162944483614700,7.59361474609375,-0.017402691766619682,0.046727556735277176,-0.11368368566036224
1759162944493671700,7.603671630859375,-0.010870491154491901,0.15090402960777283,-0.04796486347913742
1759162944503730000,7.61372998046875,-0.012403938919305801,0.2760113477706909,-0.022240856662392616
1759162944513787000,7.623786865234375,-0.05552477762103081,0.3511074185371399,-0.015400527976453304
1759162944523843800,7.63384375,-0.1486227661371231,0.351248562335968,-0.027720578014850616
1759162944533901600,7.643901611328125,-0.2575971782207489,0.3140255808830261,-0.03569221869111061
1759162944543958800,7.653958740234375,-0.34671905636787415,0.2937072515487671,-0.041424937546253204
1759162944554016800,7.664016845703125,-0.4078596532344818,0.2730211615562439,-0.05260542035102844
1759162944564073700,7.67407373046875,-0.41183629631996155,0.34696248173713684,-0.03702752664685249
1759162944574130700,7.684130615234375,-0.3877541124820709,0.4904349446296692,0.0025979136116802692
1759162944584188700,7.694188720703125,-0.38340890407562256,0.5987963080406189,0.024293089285492897
1759162944594245600,7.70424560546875,-0.4140791893005371,0.6118080019950867,-0.013275325298309326
1759162944604302800,7.714302734375,-0.49727341532707214,0.5678069591522217,-0.13742150366306305
1759162944614360800,7.72436083984375,-0.5558339357376099,0.4508659839630127,-0.3047234117984772
1759162944624417800,7.734417724609375,-0.51494961977005,0.2312910109758377,-0.45935454964637756
1759162944634475800,7.744475830078125,-0.4143601655960083,0.023779630661010742,-0.584214985370636
1759162944644532700,7.75453271484375,-0.3346504271030426,-0.09227533638477325,-0.6757041215896606
1759162944654589700,7.764589599609375,-0.3071434199810028,-0.11449462175369263,-0.6769225597381592
1759162944664648000,7.77464794921875,-0.3700544834136963,-0.015910256654024124,-0.5771147012710571
1759162944674705000,7.784704833984375,-0.47507303953170776,0.12412194907665253,-0.42925602197647095
1759162944684761900,7.794761962890625,-0.5310899615287781,0.20744159817695618,-0.3199862539768219
1759162944694819600,7.804819580078125,-0.5304415225982666,0.18445825576782227,-0.26098763942718506
1759162944704876500,7.81487646484375,-0.5306457877159119,0.14791463315486908,-0.20536620914936066
1759162944714933800,7.824933837890625,-0.5516865849494934,0.17778544127941132,-0.10559780150651932
1759162944724991700,7.83499169921875,-0.5797230005264282,0.2737194299697876,0.06271184980869293
1759162944735048700,7.845048583984375,-0.5957845449447632,0.3878643810749054,0.2562602758407593
1759162944745106700,7.855106689453125,-0.5926247239112854,0.4686060845851898,0.42745545506477356
1759162944755163600,7.86516357421875,-0.5460814237594604,0.4864245057106018,0.583544135093689
1759162944765220900,7.875220947265625,-0.44959431886672974,0.46382251381874084,0.7393443584442139
1759162944775278800,7.88527880859375,-0.30177661776542664,0.4170595407485962,0.9331263899803162
1759162944785335800,7.895335693359375,-0.18233971297740936,0.3615342378616333,1.160117745399475
1759162944795392800,7.905392822265625,-0.09641628712415695,0.22722196578979492,1.4002258777618408
1759162944805450800,7.91545068359375,-0.027885427698493004,0.05416709929704666,1.625185489654541
1759162944815508000,7.925508056640625,0.04518425464630127,-0.08122348040342331,1.8256269693374634
1759162944825565000,7.93556494140625,0.0915597453713417,-0.20516221225261688,1.9776703119277954
1759162944835623000,7.945622802734375,0.1780269891023636,-0.300733745098114,2.1015024185180664
1759162944845679900,7.955679931640625,0.2736624479293823,-0.3650685250759125,2.132922887802124
1759162944855737600,7.965737548828125,0.3519018590450287,-0.33437079191207886,2.0671775341033936
1759162944865794600,7.975794677734375,0.4572799503803253,-0.29194211959838867,1.9531034231185913
1759162944875851800,7.985851806640625,0.5364282727241516,-0.2913506329059601,1.831470251083374
1759162944885909800,7.99590966796875,0.5889428853988647,-0.2753748595714569,1.7588567733764648
1759162944895966700,8.005966796875,0.6303566694259644,-0.19204799830913544,1.7607945203781128
1759162944906023700,8.016023681640625,0.6139513254165649,-0.06437366455793381,1.8556653261184692
1759162944916081700,8.02608154296875,0.5276353359222412,0.11233479529619217,2.0061051845550537
1759162944926139000,8.036138916015625,0.4002256989479065,0.4082343578338623,2.1316730976104736
1759162944936195800,8.04619580078125,0.3160165548324585,0.8437511920928955,2.1869122982025146
1759162944946253800,8.05625390625,0.28473904728889465,1.0949525833129883,2.1669416427612305
1759162944956310800,8.066310791015624,0.37809404730796814,1.3385494947433472,2.056393623352051
1759162944966368800,8.07636865234375,0.5893381237983704,1.477388858795166,1.8832993507385254
1759162944976426000,8.086426025390624,0.8297650814056396,1.653049349784851,1.7112798690795898
1759162944986483000,8.09648291015625,1.0409801006317139,1.653127908706665,1.5878386497497559
1759162944996540700,8.106540771484376,1.2114490270614624,1.4672880172729492,1.4563696384429932
1759162945006597600,8.11659765625,1.3565740585327148,1.2790981531143188,1.3220746517181396
1759162945016654800,8.12665478515625,1.5253220796585083,1.0928672552108765,1.2214990854263306
1759162945026712600,8.136712646484375,1.7928826808929443,0.9914554357528687,1.1696033477783203
1759162945036769800,8.146769775390625,2.0596704483032227,1.070915937423706,1.123452067375183
1759162945046826800,8.15682666015625,2.2284035682678223,1.137205719947815,1.0618356466293335
1759162945056884700,8.166884765625,2.3732144832611084,1.1525495052337646,0.9637271761894226
1759162945066941700,8.176941650390624,2.4586918354034424,0.9731038808822632,0.9009771943092346
1759162945076999700,8.186999755859375,2.485534429550171,0.6857410669326782,0.9233334064483643
1759162945087057000,8.197056884765624,2.4576432704925537,0.35654720664024353,1.0541225671768188
1759162945097113900,8.20711376953125,2.3938446044921875,-0.00740385428071022,1.2620654106140137
1759162945107171800,8.217171875,2.3677289485931396,-0.268648236989975,1.435709834098816
1759162945117228800,8.227228759765625,2.391869068145752,-0.42728209495544434,1.5610132217407227
1759162945127285800,8.23728564453125,2.4159960746765137,-0.4449779987335205,1.5732184648513794
1759162945137344000,8.247343994140625,2.410841703414917,-0.4604283273220062,1.5561140775680542
1759162945147401000,8.25740087890625,2.370145082473755,-0.5851830244064331,1.617324709892273
1759162945157458000,8.2674580078125,2.265122890472412,-0.7516764402389526,1.7098708152770996
1759162945167515600,8.277515625,2.2344985008239746,-0.6432445049285889,1.6627211570739746
1759162945177572600,8.287572509765624,2.073575258255005,-0.9528164267539978,1.7630256414413452
1759162945187629800,8.2976298828125,1.9394090175628662,-1.0502668619155884,1.8093159198760986
1759162945197687800,8.307687744140624,1.847032904624939,-0.9479036927223206,1.7271190881729126
1759162945207744800,8.317744873046875,1.7241235971450806,-0.8824818134307861,1.5985387563705444
1759162945217802800,8.327802734375,1.4937728643417358,-1.0487957000732422,1.567254900932312
1759162945227859700,8.337859619140625,1.315546989440918,-1.1142250299453735,1.483221173286438
1759162945237916700,8.347916748046876,1.1291481256484985,-1.0700820684432983,1.3558776378631592
1759162945247975000,8.357974853515625,0.9328981041908264,-0.9657301306724548,1.1849557161331177
1759162945258031900,8.368031982421876,0.7418032884597778,-0.8576763272285461,0.9872213006019592
1759162945268088800,8.3780888671875,0.5951182246208191,-0.7492492198944092,0.7815208435058594
1759162945278146800,8.388146728515625,0.493361234664917,-0.6020413637161255,0.572637677192688
1759162945288203800,8.398203857421874,0.4237443506717682,-0.5000748038291931,0.39091476798057556
1759162945298260500,8.408260498046875,0.37994706630706787,-0.4176401197910309,0.2353627234697342
1759162945308318700,8.418318603515624,0.3486120402812958,-0.40778374671936035,0.10435889661312103
1759162945318375700,8.428375732421875,0.33662861585617065,-0.3391527533531189,-0.038052842020988464
1759162945328433400,8.438433349609374,0.31274300813674927,-0.2737969160079956,-0.1673961877822876
1759162945338490400,8.448490478515625,0.2952721118927002,-0.24754615128040314,-0.28894737362861633
1759162945348547600,8.458547607421876,0.2837566137313843,-0.19522514939308167,-0.4012765884399414
1759162945358605600,8.46860546875,0.28848719596862793,-0.16586114466190338,-0.4819096624851227
1759162945368662500,8.47866259765625,0.28751620650291443,-0.14078748226165771,-0.5519737005233765
1759162945378719500,8.488719482421875,0.28102076053619385,-0.1423824429512024,-0.6073735356330872
1759162945388777500,8.498777587890626,0.3041095435619354,-0.1447198987007141,-0.6624969840049744
1759162945398834400,8.50883447265625,0.3196786642074585,-0.10376793891191483,-0.7071850895881653
1759162945408891400,8.518891357421875,0.2515358328819275,-0.1433774083852768,-0.7293626070022583
1759162945418949600,8.52894970703125,0.23971378803253174,-0.06268388777971268,-0.792900800704956
1759162945429006600,8.539006591796875,0.22583046555519104,-0.08948700875043869,-0.8668096661567688
1759162945439063600,8.5490634765625,0.20020605623722076,-0.05445525050163269,-0.92454594373703
1759162945449121500,8.55912158203125,0.12061749398708344,-0.05702679976820946,-0.9423576593399048
1759162945459178500,8.569178466796876,-0.05716528370976448,-0.1512555629014969,-0.891904890537262
1759162945469236700,8.57923681640625,-0.1347985565662384,-0.05422462150454521,-0.927985668182373
1759162945479293700,8.589293701171876,-0.24476288259029388,-0.023625701665878296,-0.9690414667129517
1759162945489350700,8.5993505859375,-0.31135308742523193,0.08207675814628601,-1.0101841688156128
1759162945499408400,8.609408447265626,-0.3673074245452881,-0.030498255044221878,-1.0529265403747559
1759162945509465300,8.61946533203125,-0.29760637879371643,-0.04241110756993294,-1.10052490234375
1759162945519522300,8.629522216796875,-0.10586518049240112,0.007213437929749489,-1.0263383388519287
1759162945529580500,8.63958056640625,0.16561320424079895,0.06628315150737762,-0.8295341730117798
1759162945539637500,8.649637451171875,0.33987128734588623,-0.024202542379498482,-0.6575586795806885
1759162945549694500,8.659694580078124,0.15294800698757172,-0.36164847016334534,-0.5935658812522888
1759162945559752400,8.66975244140625,-0.24773097038269043,-1.0073214769363403,-0.31255149841308594
1759162945569809400,8.679809326171876,-0.4957628846168518,-1.3734091520309448,-0.2701726257801056
1759162945579867600,8.68986767578125,-0.6251288652420044,-1.5657485723495483,-0.3360738754272461
1759162945589924600,8.699924560546876,-0.7008153796195984,-1.4547810554504395,-0.44077447056770325
1759162945599981600,8.709981689453125,-0.7630475759506226,-1.1042627096176147,-0.6091554760932922
1759162945610039600,8.72003955078125,-0.8516605496406555,-0.8120657205581665,-0.8673047423362732
1759162945620096500,8.730096435546875,-0.9643471240997314,-0.753158450126648,-1.13974928855896
1759162945630153500,8.740153564453125,-1.0782103538513184,-0.7777476906776428,-1.3796838521957397
1759162945640211500,8.75021142578125,-1.1809608936309814,-0.716832160949707,-1.5746454000473022
1759162945650268700,8.7602685546875,-1.239867091178894,-0.6068127155303955,-1.7330645322799683
1759162945660325600,8.77032568359375,-1.2457106113433838,-0.49317482113838196,-1.8277695178985596
1759162945670383400,8.78038330078125,-1.218936562538147,-0.3709735572338104,-1.855365514755249
1759162945680440300,8.7904404296875,-1.1890615224838257,-0.23657552897930145,-1.8606762886047363
1759162945690497500,8.80049755859375,-1.1886066198349,-0.15697124600410461,-1.863468885421753
1759162945700555500,8.810555419921876,-1.189811110496521,-0.1372302919626236,-1.8484119176864624
1759162945710612500,8.820612548828125,-1.1684139966964722,-0.12252644449472427,-1.810552954673767
1759162945720669400,8.83066943359375,-1.1060731410980225,-0.08697271347045898,-1.7915973663330078
1759162945730727400,8.8407275390625,-1.0451780557632446,0.024685107171535492,-1.78693687915802
1759162945740784400,8.850784423828125,-0.9602983593940735,0.1636166274547577,-1.8152692317962646
1759162945750842600,8.860842529296875,-0.9128461480140686,0.3092087209224701,-1.831026554107666
1759162945760899600,8.870899658203125,-0.8692392706871033,0.4714711308479309,-1.8534666299819946
1759162945770956500,8.88095654296875,-0.9208869934082031,0.504126250743866,-1.831167221069336
1759162945781014500,8.8910146484375,-0.9911990165710449,0.4867299795150757,-1.7853658199310303
1759162945791071500,8.901071533203124,-1.005488395690918,0.39528581500053406,-1.6940093040466309
1759162945801128700,8.911128662109375,-0.9971607327461243,0.3547176122665405,-1.6022742986679077
1759162945811186400,8.9211865234375,-0.9817498326301575,0.23470917344093323,-1.4606258869171143
1759162945821243600,8.93124365234375,-0.9692819714546204,0.02828383632004261,-1.2995214462280273
1759162945831300600,8.941300537109376,-0.8770803809165955,-0.2343970537185669,-1.0914132595062256
1759162945841358300,8.9513583984375,-0.6235714554786682,-0.32448461651802063,-0.838029682636261
1759162945851415600,8.96141552734375,-0.4388343393802643,-0.33395692706108093,-0.5805802941322327
1759162945861472500,8.971472412109375,-0.40005233883857727,-0.3238004446029663,-0.37363430857658386
1759162945871530500,8.981530517578125,-0.4430408179759979,-0.3010282814502716,-0.2475605309009552
1759162945881587500,8.99158740234375,-0.5494383573532104,-0.27379080653190613,-0.18691715598106384
1759162945891645400,9.0016455078125,-0.6813085079193115,-0.28503814339637756,-0.1654731184244156
1759162945901702400,9.011702392578124,-0.7704748511314392,-0.36619529128074646,-0.1851930320262909
1759162945911759600,9.021759521484375,-0.7962403893470764,-0.5391697287559509,-0.22665710747241974
1759162945921817600,9.031817626953124,-0.7594602704048157,-0.7650918364524841,-0.21912968158721924
1759162945931874600,9.04187451171875,-0.7292605638504028,-0.9365876913070679,-0.20310890674591064
1759162945941931500,9.051931640625,-0.6883552074432373,-1.066885232925415,-0.17223834991455078
1759162945951989500,9.061989501953125,-0.6454375982284546,-1.1199064254760742,-0.12518134713172913
1759162945962046700,9.072046630859376,-0.5844546556472778,-1.0749660730361938,-0.06421520560979843
1759162945972103700,9.082103759765625,-0.5725732445716858,-1.0865025520324707,0.0038567897863686085
1759162945982161400,9.092161376953126,-0.6108444333076477,-1.2273393869400024,0.04198766499757767
1759162945992218400,9.10221826171875,-0.621875524520874,-1.2514110803604126,-0.007770038675516844
1759162946002275600,9.112275634765625,-0.6507276892662048,-1.1426225900650024,-0.1339423507452011
1759162946012333600,9.12233349609375,-0.6060622334480286,-1.026759147644043,-0.25886085629463196
1759162946022390500,9.132390625,-0.5156002044677734,-0.9510228037834167,-0.35103684663772583
1759162946032447500,9.142447509765624,-0.4472677707672119,-0.9012869596481323,-0.41817036271095276
1759162946042505500,9.15250537109375,-0.4089834988117218,-0.9450597167015076,-0.4535999894142151
1759162946052562400,9.1625625,-0.4016108214855194,-0.9872114658355713,-0.46086373925209045
1759162946062619400,9.172619384765625,-0.43449926376342773,-0.9725480675697327,-0.44986703991889954
1759162946072677600,9.182677734375,-0.4288634657859802,-0.9194459915161133,-0.4146040976047516
1759162946082734600,9.192734619140625,-0.4421505033969879,-0.8093830943107605,-0.3740766644477844
1759162946092792600,9.20279248046875,-0.4234359562397003,-0.6537927389144897,-0.3271687924861908
1759162946102849500,9.212849609375,-0.43291202187538147,-0.49119555950164795,-0.27337536215782166
1759162946112906500,9.222906494140625,-0.4236348867416382,-0.29859068989753723,-0.22266130149364471
1759162946122964700,9.23296484375,-0.4241182506084442,-0.12627777457237244,-0.1790807992219925
1759162946133021700,9.243021728515625,-0.44868004322052,0.04008004069328308,-0.15528546273708344
1759162946143078700,9.25307861328125,-0.4010496735572815,0.19269515573978424,-0.1399507075548172
1759162946153136400,9.263136474609375,-0.3091495931148529,0.33844807744026184,-0.14047323167324066
1759162946163193300,9.273193359375,-0.18116766214370728,0.47097817063331604,-0.18172213435173035
1759162946173250600,9.28325048828125,0.0070131681859493256,0.5546690821647644,-0.23397548496723175
1759162946183308500,9.29330859375,0.11068709939718246,0.569642961025238,-0.30960527062416077
1759162946193365500,9.303365478515625,0.08782891929149628,0.5224403142929077,-0.38456258177757263
1759162946203422500,9.31342236328125,-0.009273126721382141,0.4317258298397064,-0.43127548694610596
1759162946213480400,9.32348046875,-0.1015404760837555,0.33138859272003174,-0.43256500363349915
1759162946223537400,9.333537353515625,-0.13231569528579712,0.25556251406669617,-0.3849570155143738
1759162946233594400,9.343594482421874,-0.14806216955184937,0.2413465678691864,-0.3182685077190399
1759162946243652600,9.353652587890625,-0.18709026277065277,0.2780425250530243,-0.24194684624671936
1759162946253709600,9.36370947265625,-0.2712503969669342,0.36965635418891907,-0.20345325767993927
1759162946263766500,9.3737666015625,-0.25076058506965637,0.44274628162384033,-0.18981067836284637
1759162946273824500,9.383824462890624,-0.24119450151920319,0.561795711517334,-0.24077746272087097
1759162946283881500,9.393881591796875,-0.1367168426513672,0.7295972108840942,-0.31622588634490967
1759162946293939700,9.403939697265624,-0.0244374331086874,0.9363107085227966,-0.391593873500824
1759162946303997000,9.413996826171875,0.04282895475625992,1.1205631494522095,-0.4313146471977234
1759162946314054000,9.424053955078126,0.048116397112607956,1.1884052753448486,-0.4166342318058014
1759162946324112100,9.434112060546875,0.0075902752578258514,1.0992985963821411,-0.33986037969589233
1759162946334169000,9.444169189453126,-0.028593827039003372,0.7564818263053894,-0.16769632697105408
1759162946344226000,9.45422607421875,-0.020293820649385452,0.306971937417984,0.050758518278598785
1759162946354284000,9.464283935546876,0.026731213554739952,-0.17281705141067505,0.2538551688194275
1759162946364341000,9.474341064453125,0.028869464993476868,-0.5681758522987366,0.37575605511665344
1759162946374398000,9.48439794921875,-0.0938415378332138,-0.8970122933387756,0.4227270185947418
1759162946384456200,9.494456298828124,-0.22744540870189667,-1.100437045097351,0.4156714975833893
1759162946394513200,9.50451318359375,-0.2878866493701935,-1.0975635051727295,0.3635912537574768
1759162946404570000,9.514570068359374,-0.3000389039516449,-0.8936266303062439,0.28724002838134766
1759162946414628000,9.524628173828125,-0.307271808385849,-0.5045017600059509,0.195515438914299
1759162946424685000,9.53468505859375,-0.32759252190589905,-0.02497752197086811,0.09924988448619843
1759162946434742000,9.544741943359375,-0.3558361232280731,0.42895880341529846,-0.004858138505369425
1759162946444800300,9.55480029296875,-0.3923283517360687,0.7683131694793701,-0.10568621754646301
1759162946454857200,9.564857177734375,-0.4051187336444855,0.9825780987739563,-0.19875037670135498
1759162946464914200,9.5749140625,-0.3880755603313446,1.1131606101989746,-0.28545892238616943
1759162946474972000,9.584971923828125,-0.3497209846973419,1.186044692993164,-0.37621596455574036
1759162946485028900,9.59502880859375,-0.22936049103736877,1.1896893978118896,-0.4591262936592102
1759162946495086000,9.605086181640624,-0.15311285853385925,1.107677698135376,-0.5251950621604919
1759162946505144000,9.61514404296875,-0.1896791160106659,0.9807961583137512,-0.5709460377693176
1759162946515201000,9.625200927734374,-0.27819299697875977,0.8670725226402283,-0.5816823244094849
1759162946525258000,9.635258056640625,-0.33594390749931335,0.7704759240150452,-0.5332258343696594
1759162946535316000,9.64531591796875,-0.35234472155570984,0.6918942928314209,-0.4481245279312134
1759162946545373000,9.655373046875,-0.34655582904815674,0.6394156813621521,-0.3391959071159363
1759162946555431200,9.66543115234375,-0.3075719475746155,0.5666676759719849,-0.2076898068189621
1759162946565488000,9.675488037109375,-0.27610960602760315,0.4679533541202545,-0.07335996627807617
1759162946575545000,9.685545166015626,-0.28048786520957947,0.40095728635787964,0.01678004488348961
1759162946585603000,9.69560302734375,-0.31579524278640747,0.407100111246109,0.037941522896289825
1759162946595660000,9.705659912109375,-0.3442439138889313,0.42172887921333313,0.009623066522181034
1759162946605717000,9.715717041015624,-0.35062167048454285,0.370265394449234,-0.03400031104683876
1759162946615775200,9.725775146484375,-0.29206034541130066,0.20001618564128876,-0.048293229192495346
1759162946625832200,9.735832275390624,-0.25492602586746216,0.04403643310070038,-0.0541527159512043
1759162946635889200,9.74588916015625,-0.2931751608848572,0.029087044298648834,-0.053049370646476746
1759162946645947000,9.75594677734375,-0.31330785155296326,0.09488043934106827,0.0011438276851549745
1759162946656003800,9.76600390625,-0.3505164682865143,0.17351186275482178,0.08460516482591629
1759162946666061000,9.77606103515625,-0.39777612686157227,0.2345517873764038,0.1560138314962387
1759162946676119000,9.786119140625,-0.3905664086341858,0.235715851187706,0.1950587034225464
1759162946686176000,9.796176025390626,-0.33639639616012573,0.2064724862575531,0.20379307866096497
1759162946696233000,9.80623291015625,-0.22100721299648285,0.15755313634872437,0.17817746102809906
1759162946706291000,9.816291015625,-0.12690627574920654,0.11751145124435425,0.12415550649166107
1759162946716348200,9.82634814453125,-0.057490989565849304,0.08599746227264404,0.06768263876438141
1759162946726405000,9.836405029296875,-0.015306252054870129,0.1117480993270874,0.008382299914956093
1759162946736463000,9.846463134765624,0.0004037352045997977,0.160588338971138,-0.03003113530576229
1759162946746520000,9.85652001953125,-0.04869616776704788,0.25506263971328735,-0.07027415931224823
1759162946756577000,9.866576904296876,-0.1656680554151535,0.3514251410961151,-0.1090599074959755
1759162946766635300,9.87663525390625,-0.25362882018089294,0.3607022762298584,-0.0978916734457016
1759162946776692200,9.886692138671876,-0.35330772399902344,0.30465203523635864,-0.05278252065181732
1759162946786749200,9.896749267578125,-0.4558064043521881,0.1748058944940567,0.027188744395971298
1759162946796807200,9.90680712890625,-0.5366453528404236,0.008869924582540989,0.12914280593395233
1759162946806864100,9.916864013671875,-0.59078449010849,-0.16543424129486084,0.234651118516922
1759162946816921000,9.926921142578125,-0.5494940280914307,-0.4228961169719696,0.3735978305339813
1759162946826979000,9.93697900390625,-0.5386824011802673,-0.4602738618850708,0.46176737546920776
1759162946837036000,9.9470361328125,-0.4750053882598877,-0.4194020628929138,0.497953861951828
1759162946847093000,9.957093017578124,-0.3568710386753082,-0.40926527976989746,0.4872801899909973
1759162946857151000,9.96715087890625,-0.18439966440200806,-0.3753525912761688,0.44098353385925293
1759162946867208000,9.9772080078125,-0.021517809480428696,-0.3236885964870453,0.36438193917274475
1759162946877265000,9.987264892578125,0.11633326858282089,-0.18638132512569427,0.23548682034015656
1759162946887323100,9.9973232421875,0.19783584773540497,-0.012148807756602764,0.08251964300870895
1759162946897380000,10.007380126953125,0.1725667119026184,0.0360911600291729,-0.030194386839866638
1759162946907437000,10.01743701171875,0.0947536751627922,0.06356778740882874,-0.12154959887266159
1759162946917495000,10.0274951171875,0.08200112730264664,0.23095785081386566,-0.21830198168754578
1759162946927552000,10.037552001953125,0.09573344886302948,0.3297877609729767,-0.25597503781318665
1759162946937609000,10.04760888671875,0.14123009145259857,0.4295681416988373,-0.24383343756198883
1759162946947667200,10.057667236328125,0.17455290257930756,0.5947874784469604,-0.21751262247562408
1759162946957724200,10.06772412109375,0.1145353689789772,0.689489483833313,-0.1691352277994156
1759162946967781000,10.077781005859375,0.04145929217338562,0.6482530832290649,-0.11429142206907272
1759162946977839000,10.087839111328124,-0.012925651855766773,0.5169898867607117,-0.053650978952646255
1759162946987896000,10.09789599609375,-0.06873645633459091,0.32018545269966125,0.0036647759843617678
1759162946997953300,10.107953369140626,-0.03187297657132149,0.18543297052383423,0.04250325262546539
1759162947008011000,10.118010986328125,0.0803329199552536,0.09198132157325745,0.06975644081830978
1759162947018068000,10.12806787109375,0.1457470804452896,0.018252773210406303,0.0922822579741478
1759162947028125000,10.138125,0.15883386135101318,-0.017836520448327065,0.1027146577835083
1759162947038183000,10.148182861328126,0.1515360027551651,-0.06477712839841843,0.1155734658241272
1759162947048239900,10.158239990234375,0.13594771921634674,-0.06215125694870949,0.10521110892295837
1759162947058297000,10.168297119140625,0.09471798688173294,-0.04687270149588585,0.07133117318153381
1759162947068355000,10.17835498046875,0.0381641648709774,-0.010313889943063259,0.024658741429448128
1759162947078412000,10.188412109375,0.0057194046676158905,0.044678255915641785,-0.025945046916604042
1759162947088469000,10.198468994140624,0.029581859707832336,0.10708357393741608,-0.05522623658180237
1759162947098527000,10.20852685546875,0.06770820915699005,0.154160276055336,-0.05306161940097809
1759162947108584200,10.218584228515626,0.07845991849899292,0.16913442313671112,-0.025407355278730392
1759162947118641200,10.22864111328125,0.06561416387557983,0.16573810577392578,0.012664662674069405
1759162947128699100,10.23869921875,0.049908172339200974,0.12370675802230835,0.03813167288899422
1759162947138756000,10.248756103515625,0.05577458068728447,0.07091012597084045,0.04862958565354347
1759162947148813000,10.25881298828125,0.06625039130449295,0.013191701844334602,0.0372626818716526
1759162947158871300,10.268871337890625,0.05413806810975075,-0.04461167752742767,0.01822534203529358
1759162947168928300,10.27892822265625,0.03979268670082092,-0.08101682364940643,0.0024288028944283724
1759162947178985200,10.288985107421874,0.03995700180530548,-0.08151110261678696,-0.001939313835464418
1759162947189043000,10.29904296875,0.04952547326683998,-0.062117431312799454,0.003870638320222497
1759162947199100000,10.309099853515624,0.056106679141521454,-0.03284742683172226,0.014316887594759464
1759162947209156900,10.319156982421875,0.043171171098947525,-0.009494435973465443,0.025349298492074013
1759162947219215000,10.329215087890624,0.012930979020893574,-0.013699034228920937,0.0391165092587471
1759162947229272000,10.33927197265625,-0.0033622407354414463,-0.03724617138504982,0.04712224006652832
1759162947239329000,10.3493291015625,0.0008916263468563557,-0.061460163444280624,0.04989485442638397
1759162947249387000,10.359386962890625,0.015587215311825275,-0.06422718614339828,0.049312688410282135
1759162947259444000,10.36944384765625,0.0360831692814827,-0.049131594598293304,0.044853758066892624
1759162947269501000,10.3795009765625,0.04741119220852852,-0.020423782989382744,0.04282016679644585
1759162947279559200,10.38955908203125,0.06179678812623024,0.02834881655871868,0.032346487045288086
1759162947289616100,10.3996162109375,0.06114724278450012,0.07172612100839615,0.02767716720700264
1759162947299672600,10.409672607421875,0.05067010223865509,0.0892004519701004,0.026430541649460793
1759162947309730600,10.41973046875,0.03988483175635338,0.08026740700006485,0.027399400249123573
1759162947319787800,10.429787841796875,0.030276412144303322,0.05330503359436989,0.02575170248746872
1759162947329844700,10.4398447265625,0.02917999029159546,0.024173513054847717,0.023141272366046906
1759162947339902700,10.44990283203125,0.03507383167743683,0.006286657880991697,0.01878460682928562
1759162947349959700,10.459959716796876,0.03277365863323212,-0.006916229147464037,0.02184404619038105
1759162947360016600,10.4700166015625,0.03489460051059723,0.005368932615965605,0.026580477133393288
1759162947370074600,10.48007470703125,0.030459905043244362,0.04435627907514572,0.03110918402671814
1759162947380131800,10.4901318359375,0.017045563086867332,0.09112458676099777,0.038719698786735535
1759162947390188800,10.500188720703125,0.009986055083572865,0.13935203850269318,0.05284430459141731
1759162947400246500,10.51024658203125,0.004231496714055538,0.2134622186422348,0.08931789547204971
1759162947410303500,10.520303466796875,0.013159744441509247,0.33469358086586,0.14598169922828674
1759162947420360400,10.5303603515625,0.042702723294496536,0.42972633242607117,0.16673891246318817
1759162947430418700,10.540418701171875,0.0770159512758255,0.3886300325393677,0.10714376717805862
1759162947440475600,10.5504755859375,0.07061345130205154,0.253518283367157,0.021695708855986595
1759162947450532600,10.56053271484375,0.045282259583473206,0.10590619593858719,-0.03750289976596832
1759162947460590600,10.570590576171876,0.03970693424344063,-0.035711657255887985,-0.07246727496385574
1759162947470647600,10.5806474609375,0.04489663615822792,-0.1422514170408249,-0.08767099678516388
1759162947480704500,10.59070458984375,0.03173316270112991,-0.2010662704706192,-0.07668492197990417
1759162947490762800,10.6007626953125,0.0024117587599903345,-0.21091410517692566,-0.04085848480463028
1759162947500819700,10.61081982421875,-0.012326174415647984,-0.16111591458320618,0.01830284111201763
1759162947510876700,10.620876708984374,-0.01014185044914484,-0.07961919158697128,0.0742795541882515
1759162947520933600,10.63093359375,-0.004083957523107529,0.0070882695727050304,0.11197127401828766
1759162947530991600,10.64099169921875,-0.00971601065248251,0.08083013445138931,0.12432354688644409
