seconds_elapsed,acc_z,acc_y,acc_x,grav_z,grav_y,grav_x,gyro_z,gyro_y,gyro_x
8.08,-5.190645694732666,2.105499267578125,0.4440274238586426,-7.257108688354492,-6.452172517776489,-1.366992175579071,-0.30787608027458185,1.3394747972488403,0.9481392204761505
8.09,-2.600106716156006,2.0570342540740967,-0.8291141390800476,-7.215222597122192,-6.5222203731536865,-1.2514471411705017,-0.19761490449309346,1.5196800231933594,0.7691557109355927
8.1,2.484494209289551,1.9436559677124023,-2.357722222805023,-7.186855792999268,-6.575239181518555,-1.1318267583847046,0.007941249758005156,1.258229672908783,0.8647561073303223
8.11,5.170008659362793,1.1736717224121094,-2.775154709815979,-7.1452248096466064,-6.634995460510254,-1.0435970425605774,0.19517144560813904,0.714865043759346,1.364138424396515
8.12,2.3996360301971436,-0.6686105728149414,-1.9761987924575808,-7.061296224594116,-6.729771852493286,-1.005779504776001,0.22907446324825284,0.5444336384534836,2.0076849460601807
8.13,-3.795125722885132,-3.0206096172332764,-0.898533433675766,-6.930000066757202,-6.8677427768707275,-0.9833091199398041,0.1502728499472141,0.9973902404308319,2.4056637287139893
8.14,-5.719290256500244,-4.827419996261597,-0.6202780306339264,-6.773953437805176,-7.028966188430786,-0.9287704527378082,0.13225232437252993,1.6100881099700928,2.453005790710449
8.15,-0.8690297603607178,-5.49600625038147,-1.4419516921043396,-6.615394353866577,-7.1899707317352295,-0.8337371051311493,0.2602285891771316,1.7973182797431946,2.531501889228821
8.16,3.1748706102371216,-5.339965105056763,-2.283786654472351,-6.445350170135498,-7.35319447517395,-0.7353017926216125,0.4086688458919525,1.4714216589927673,2.8149434328079224
8.17,2.6752275228500366,-5.0350751876831055,-2.059659242630005,-6.2461793422698975,-7.528797626495361,-0.6721248626708984,0.41233403980731964,1.0517572462558746,2.8928288221359253
8.18,1.2215547561645508,-4.704458713531494,-0.8193266093730927,-6.032852649688721,-7.70379114151001,-0.6387421488761902,0.2532036453485489,0.8645270466804504,2.3900866508483887
8.19,0.9061388969421386,-3.997412919998169,0.29570358991622925,-5.8527092933654785,-7.8446080684661865,-0.6069498062133789,0.13377948850393295,0.8382598459720612,1.8702402710914612
8.2,1.406400442123413,-2.7180328369140625,0.46609026193618774,-5.709978103637695,-7.9520263671875,-0.5690409541130066,0.14691308885812754,0.7881689071655273,1.7816648483276367
8.21,1.6740045547485352,-1.1183805465698242,0.037125229835510254,-5.571764945983887,-8.051711082458496,-0.536316305398941,0.19120082259178156,0.7035640478134155,1.8253417611122131
8.22,1.2245452404022217,0.2511105537414551,-0.5128210484981537,-5.427566289901733,-8.151078224182129,-0.5130943655967712,0.21838432550430295,0.6831000447273254,1.8400024771690369
8.23,0.6737022399902344,1.1110904216766357,-1.0270777344703674,-5.280146360397339,-8.248505115509033,-0.49443742632865906,0.23518311977386475,0.7597636580467224,1.7899115085601807
8.24,0.6350769996643066,1.306304931640625,-1.4202656149864197,-5.134979248046876,-8.340768814086914,-0.4759421050548553,0.2782491147518158,0.8733845949172974,1.736766278743744
8.25,0.9465941190719604,0.9968466758728027,-1.684004008769989,-4.992794990539551,-8.427550792694092,-0.460003525018692,0.33597588539123535,0.9711230397224426,1.756313979625702
8.26,1.0533418655395508,0.855170726776123,-1.8132526278495789,-4.848151445388794,-8.512126922607422,-0.4492679089307785,0.39614611864089966,1.0487029552459717,1.8540524244308472
8.27,1.2202486991882324,0.37139105796813965,-2.1272043585777283,-4.694235324859619,-8.598167419433594,-0.4441682994365692,0.4712825417518616,1.136056661605835,1.9731711745262146
8.28,1.6652768850326536,-0.39150381088256836,-2.5113210678100586,-4.528742074966431,-8.686411380767822,-0.4443209022283554,0.5555819571018219,1.2389874458312988,2.0562487840652466
8.29,1.9803894758224487,-0.9362988471984863,-2.5466660261154175,-4.354240417480469,-8.774882793426514,-0.44967731833457947,0.646906316280365,1.3028228878974915,2.070298671722412
8.3,2.082616686820984,-1.427900791168213,-2.277840256690979,-4.176346063613892,-8.860283374786377,-0.4623235017061233,0.7147123515605927,1.289078414440155,2.023262083530426
8.31,1.8947458267211914,-1.6941218376159668,-1.6815720200538633,-4.000446200370789,-8.940024375915527,-0.4827862679958343,0.7422012686729431,1.2276864647865295,1.9502636790275574
8.32,1.6110740900039673,-1.708282470703125,-0.8424520790576935,-3.829301953315735,-9.013252258300781,-0.5090748220682144,0.754723995923996,1.1763737797737122,1.8858174085617065
8.33,1.3857237100601196,-1.5500202178955078,0.03312444686889654,-3.6626094579696655,-9.080534934997559,-0.5394981205463409,0.7623598277568817,1.1592695116996765,1.8607718944549558
8.34,1.0621622800827026,-1.4534883499145508,0.8132936060428619,-3.497065305709839,-9.143548011779785,-0.5726763308048248,0.7654141485691071,1.1806498169898987,1.8797087073326109
8.35,1.0464836359024048,-1.384875774383545,1.5257124304771423,-3.3293548822402954,-9.20378065109253,-0.6063390076160431,0.7434229850769043,1.2307407855987549,1.9297996759414673
8.36,1.3337942957878113,-1.2462043762207031,2.099725127220154,-3.1569788455963135,-9.262246131896973,-0.636867880821228,0.6866125166416168,1.240820050239563,1.9973003268241882
8.37,1.088687002658844,-1.0751457214355469,2.442762851715088,-2.9777121543884277,-9.319580078125,-0.662673830986023,0.598953366279602,1.1782063841819763,2.0458641052246094
8.38,0.5651319026947021,-0.9094600677490234,2.599713444709778,-2.7929365634918213,-9.37513256072998,-0.6831550300121307,0.48838676512241364,1.1381946802139282,2.022651195526123
8.39,0.3328592777252197,-0.7535276412963867,2.7294363975524902,-2.6097450256347656,-9.426917552947998,-0.695562094449997,0.3781255781650543,1.15499347448349,1.8839848041534424
8.4,0.39118748903274536,-0.46391916275024414,2.8853650093078613,-2.4394270181655884,-9.472317218780518,-0.6982617080211639,0.26481007784605026,1.1522445678710938,1.6100117564201355
8.41,0.8186410665512085,-0.030935287475585938,2.86875581741333,-2.2946664094924927,-9.509060382843018,-0.6912292242050171,0.17989981174468994,1.0529789328575134,1.3794100880622864
8.42,1.2176809906959534,0.30077171325683594,2.562864065170288,-2.1705732345581055,-9.539098262786865,-0.678627222776413,0.1505782827734947,0.8083274364471436,1.3073279857635498
8.43,1.2165887951850891,0.47999048233032227,2.0744743943214417,-2.050968050956726,-9.566285610198975,-0.6678809225559235,0.14599679410457606,0.4607451260089874,1.2966378331184387
8.44,1.1512957215309143,0.579805850982666,1.7030006051063538,-1.929411232471466,-9.591880321502686,-0.6627200245857239,0.14294246584177012,0.08078693598508835,1.2773955464363098
8.45,1.2069129943847656,0.7472715377807617,1.4705883264541626,-1.8066604733467102,-9.61569356918335,-0.6637424230575562,0.1185078583657741,-0.29550606757402414,1.224250316619873
8.46,1.2910297513008118,0.9937925338745117,1.0625288486480713,-1.6860730051994324,-9.637159824371338,-0.6698797941207886,0.09193521738052365,-0.6461427211761475,1.158582329750061
8.47,1.3404273986816406,1.0438861846923828,0.5995739847421646,-1.5690736174583435,-9.656128883361816,-0.6809768378734589,0.10293079167604444,-0.9634872376918794,1.092303454875946
8.48,1.2236717343330383,0.865175724029541,0.3747624009847641,-1.4559093117713928,-9.672545909881592,-0.6991767287254333,0.1353066526353359,-1.2429580688476562,1.0214430689811707
8.49,0.8013122975826263,0.6444211006164551,0.33439770340919495,-1.3471903204917908,-9.686423301696777,-0.7246525883674622,0.1350012198090553,-1.4625641107559204,0.9469174742698669
8.5,0.15315094590187073,0.5292797088623047,0.27691641449928284,-1.2437098026275635,-9.698174476623535,-0.7521654665470123,0.0934623815119266,-1.5670220851898193,0.8827766180038452
8.51,-0.2549821734428405,0.48565101623535156,0.2957311868667602,-1.1456258296966553,-9.708415031433105,-0.7757686376571655,0.04581489320844405,-1.4958562850952148,0.8256607353687286
8.52,-0.2521575093269348,0.44919586181640625,0.5019466578960419,-1.0538795590400696,-9.71744966506958,-0.7928421497344971,-0.031764992512762553,-1.2463178038597107,0.7517460584640503
8.53,-0.0782680809497833,0.5399188995361328,0.625107616186142,-0.9715893864631653,-9.725573062896729,-0.798687219619751,-0.13775011524558065,-1.0123564004898071,0.6909649670124054
8.54,-0.1346016526222229,0.8146214485168457,0.43569114804267883,-0.8972992599010468,-9.733322143554688,-0.7912301123142242,-0.204945296049118,-0.8962920308113098,0.6705009639263153
8.55,-0.4703603684902191,1.0938782691955566,0.1345078349113464,-0.8260998427867889,-9.740837097167969,-0.7761538922786713,-0.2147191390395164,-0.7719809412956238,0.6646977365016937
8.56,-0.6930740475654602,1.2373132705688477,-0.023457258939743052,-0.7566151022911072,-9.747802734375,-0.7594466805458069,-0.2018909677863121,-0.5991060733795166,0.6643923223018646
8.57,-0.8234435021877289,1.3465771675109863,-0.0865850150585174,-0.6884948909282684,-9.754115581512451,-0.7430058717727661,-0.1957823112607002,-0.417679101228714,0.6619488596916199
8.58,-0.8243556618690491,1.4792256355285645,-0.13697478175163263,-0.6217421889305115,-9.759871482849121,-0.7261349260807037,-0.18692476302385325,-0.2594650089740753,0.6457609236240387
8.59,-0.6375243365764618,1.6184425354003906,-0.17536428570747375,-0.5571823418140411,-9.765013217926025,-0.7092932462692261,-0.16493361443281168,-0.1308778822422027,0.6164394021034241
8.6,-0.43410660326480865,1.777273178100586,-0.1764068305492401,-0.49604077637195587,-9.769417762756348,-0.6938855051994324,-0.12614367157220835,-0.011759158223867403,0.5819255113601685
8.61,-0.20254647731781006,2.0298726558685303,-0.0450114905834198,-0.43909958004951477,-9.773020267486572,-0.6816287338733673,-0.0879645943641662,0.10949759557843206,0.5431355535984039
8.62,0.04198473691940305,2.308053970336914,0.1889549195766449,-0.3867497891187668,-9.77586841583252,-0.672583669424057,-0.06994406878948209,0.19776762276887888,0.5046510398387909
8.63,0.1974740028381347,2.428868532180786,0.3250475078821182,-0.338731899857521,-9.778170108795166,-0.6650241613388062,-0.0461203260347247,0.20509800314903254,0.4783838391304016
8.64,0.1735974624752998,2.263091802597046,0.22052197158336637,-0.2933075428009033,-9.779987335205078,-0.659857988357544,0.012828170321881754,0.12538009136915204,0.4573089927434921
8.65,-0.010373495519161197,1.7949821949005127,-0.0419347584247589,-0.2493973821401596,-9.78114128112793,-0.6607634425163269,0.10690141655504701,-0.016646075993776308,0.41821362078189844
8.66,-0.3363096266984939,1.1045079231262207,-0.30439719557762146,-0.2083712443709373,-9.781394481658936,-0.6712400019168854,0.21960604935884476,-0.2032654024660587,0.36751180887222284
8.67,-0.8165896534919739,0.27172183990478516,-0.3328327536582946,-0.17101854085922236,-9.780593395233154,-0.6930826902389526,0.32620203495025635,-0.3978259861469269,0.3388011455535888
8.68,-1.3469611406326294,-0.5369243621826172,-0.02859964966773984,-0.13504969701170916,-9.77879285812378,-0.7255738973617554,0.415388360619545,-0.5377141237258911,0.3577379584312439
8.69,-1.8836548328399658,-1.3548521995544434,0.3908866047859192,-0.09634996205568305,-9.776090621948242,-0.7667762637138367,0.4889976382255554,-0.5844453275203705,0.413326695561409
8.7,-2.3515915870666504,-2.14369535446167,0.679175853729248,-0.054581195116042994,-9.77254581451416,-0.8144482374191284,0.5494733154773712,-0.530078336596489,0.4728860706090927
8.71,-2.6210848093032837,-2.8566856384277344,0.8039641082286835,-0.0125371175818145,-9.768239498138428,-0.8662133514881134,0.6013968586921692,-0.38896845281124115,0.510759711265564
8.72,-2.58732008934021,-3.588545799255371,0.8782203793525696,0.03270692238584155,-9.763019561767578,-0.9225131273269653,0.6447682678699493,-0.20082195103168485,0.5177846550941467
8.73,-2.5032209157943726,-3.9624228477478027,0.9438023865222931,0.08268296159803859,-9.756652355194092,-0.984503835439682,0.6661485433578491,-0.04046982154250145,0.5083162486553192
8.74,-1.9151495099067688,-4.798288345336914,1.2493602335453033,0.1326663084328174,-9.749330043792725,-1.0494443774223328,0.6301074922084808,-0.0236710272729397,0.499153271317482
8.75,-1.293683409690857,-5.830727577209473,1.6578768491744995,0.1815767586231231,-9.741758823394775,-1.1108017563819885,0.5097670406103134,-0.21120665967464444,0.4707480370998382
8.76,-1.2054945826530457,-6.182225704193115,1.7513413429260254,0.22985738515853876,-9.735026359558105,-1.1599735021591187,0.39064833521842957,-0.4219551682472229,0.3485749810934067
8.77,-0.9894322156906128,-6.339707851409912,1.4842310547828674,0.26877748966217035,-9.729575634002686,-1.1969268321990967,0.31978796422481537,-0.5102252066135406,0.08743008598685265
8.78,-0.7024533152580261,-6.172617435455322,0.8291836977005005,0.28346799314022064,-9.725480079650879,-1.2266212105751038,0.24434609711170194,-0.5090034753084183,-0.2735912688076496
8.79,-0.5875763297080994,-5.692473411560059,-0.08099567890167242,0.2631619945168495,-9.723192691802979,-1.248983383178711,0.15699236467480654,-0.4381430894136429,-0.632169172167778
8.8,-0.7434980869293213,-4.811783790588379,-1.0495966076850891,0.20719694346189493,-9.72266674041748,-1.26320219039917,0.0803287792950868,-0.32268956303596497,-0.8609382212162018
8.81,-0.9284367561340332,-3.433375358581543,-2.015601396560669,0.12757629156112665,-9.723062515258789,-1.2704403400421143,0.04520402848720545,-0.18982637673616404,-0.9211084544658662
8.82,-0.9921365082263947,-1.9703168869018555,-2.7500048875808716,0.04044131853152065,-9.72326374053955,-1.2746481895446777,0.054367007687687804,-0.1006400473415851,-0.8823184967041016
8.83,-1.100378543138504,-1.0181217193603516,-3.108646512031555,-0.04404986358713355,-9.722566604614258,-1.2799252867698667,0.0919352211058139,-0.1119410581886768,-0.8248971402645111
8.84,-1.6165882349014282,-0.6117715835571289,-3.2779760360717773,-0.1227992810308933,-9.720705032348633,-1.2889635562896729,0.14630222693085665,-0.2295326218008995,-0.8245916962623596
8.85,-2.534217119216919,-0.6042356491088867,-3.2669456005096436,-0.19996114075183866,-9.717466831207275,-1.303585171699524,0.22266037762165064,-0.37950003147125244,-0.9256899356842041
8.86,-3.521891474723816,-1.0463857650756836,-3.0408692359924316,-0.28488925099372864,-9.71225881576538,-1.32615464925766,0.3561344295740127,-0.4066835343837738,-1.1572079062461853
8.87,-4.484180927276611,-1.7710504531860352,-2.5500569343566895,-0.39176060259342194,-9.703460693359375,-1.3620687127113342,0.47036623954772944,-0.243277084082365,-1.4461471438407898
8.88,-5.233308792114258,-2.375688076019287,-1.8126828074455261,-0.5286369323730469,-9.69019079208374,-1.4087156057357788,0.48838676512241364,0.07651088014245035,-1.7353917956352234
8.89,-5.0174970626831055,-2.653230667114258,-0.8801862001419068,-0.6977616250514984,-9.67241907119751,-1.4553576111793518,0.4437935948371887,0.49067750573158264,-2.037159204483032
8.9,-3.441397786140442,-2.549314498901367,0.1844560205936432,-0.901833713054657,-9.649442672729492,-1.494084358215332,0.3494149148464203,0.845590204000473,-2.2714260816574097
8.91,-1.4451103210449219,-2.156403064727783,1.0353628098964691,-1.1334449648857117,-9.62097454071045,-1.5189915299415588,0.20799960941076276,1.0792461931705475,-2.381076455116272
8.92,0.4543982744216919,-1.8016376495361328,1.758736491203308,-1.3785601258277893,-9.587879180908203,-1.5253018140792847,0.05009094718843701,1.2878566980361938,-2.420477271080017
8.93,1.5100069046020508,-1.9537553787231445,2.617909550666809,-1.62971693277359,-9.55068302154541,-1.5105913281440735,-0.1404990097507834,1.469894528388977,-2.4724007844924927
8.94,1.7818756103515625,-1.9377431869506836,3.281306743621826,-1.8872204422950747,-9.509234428405762,-1.4712903499603271,-0.41630466282367706,1.6836973428726196,-2.547231674194336
8.95,2.688040256500244,-1.4386601448059082,3.333338499069214,-2.1529362201690674,-9.463636875152588,-1.3976264595985413,-0.7168503701686859,1.963779091835022,-2.565557599067688
8.96,3.53348708152771,-1.2615199089050293,2.5214985013008118,-2.4213805198669434,-9.414525032043457,-1.2848933339118958,-0.9159924387931824,2.0053179264068604,-2.480647325515747
8.97,3.266528367996216,-1.2202210426330566,1.2843711972236633,-2.678751945495606,-9.362450122833252,-1.147901713848114,-0.9379835724830627,1.6229162216186523,-2.385963201522827
8.98,2.172218382358551,-1.0661015510559082,0.15214499831199646,-2.919209361076355,-9.305879592895508,-1.0152547061443329,-0.8387179672718048,0.8794932216405869,-2.357558012008667
8.99,1.1509905457496643,-0.8601460456848145,-0.8352822363376617,-3.1465576887130737,-9.242486953735352,-0.911287933588028,-0.7877107262611389,0.229532616212964,-2.394820809364319
9.0,1.1137782335281372,-0.5650267601013184,-1.6883881092071533,-3.369116187095642,-9.17129373550415,-0.8315092623233795,-0.8301658630371094,-0.06856962107121944,-2.4595725536346436
9.01,1.9364182949066162,0.08733510971069341,-2.5326178073883057,-3.5932058095932007,-9.0922269821167,-0.7582124173641205,-0.8726209998130798,-0.2289217486977577,-2.4690409898757935
9.02,2.6894373893737793,0.9341742992401123,-3.1496996879577637,-3.813515067100525,-9.007721424102783,-0.6882055997848511,-0.8640688955783844,-0.3049744814634323,-2.3822981119155884
9.03,3.1572091579437256,1.741624355316162,-3.4287725687026978,-4.020318865776062,-8.922134399414062,-0.6246108412742615,-0.8194757401943207,-0.36819903552532196,-2.2567652463912964
9.04,3.2711514234542847,2.7248144149780273,-3.654601216316223,-4.210875511169434,-8.837510585784912,-0.5711647272109985,-0.7519751191139221,-0.5331326574087143,-2.1804070472717285
9.05,4.389987468719482,3.041311740875244,-3.2340008020401,-4.393578767776489,-8.750585079193115,-0.5320785045623779,-0.6279694736003876,-0.8300131559371948,-2.2277491092681885
9.06,4.613657236099243,2.885526180267334,-2.648970127105713,-4.581335544586182,-8.654654502868652,-0.5161645114421844,-0.4938845634460449,-1.392620027065277,-2.3144919872283936
9.07,3.547175884246826,2.5152978897094727,-2.551764130592346,-4.773007154464722,-8.548985481262207,-0.5391501486301422,-0.36743544042110443,-1.942398726940155,-2.358474373817444
9.08,4.178044557571411,1.5897164344787598,-2.168682217597961,-4.962145566940308,-8.436235427856445,-0.6026060879230499,-0.2733621895313263,-2.2056816816329956,-2.42902934551239
9.09,4.455741882324219,0.5276825428009033,-1.2096664607524872,-5.151257514953613,-8.315122604370117,-0.6913296580314636,-0.3692680448293686,-2.599078893661499,-2.5673903226852417
9.1,2.3148205280303955,-0.46622133255004883,-0.06669846177101135,-5.3434858322143555,-8.183131217956543,-0.7976083755493164,-0.5977316498756409,-2.9026788473129272,-2.759812831878662
9.11,0.6894435882568359,-0.9573514461517334,0.4786522388458252,-5.542490482330322,-8.037963151931763,-0.907214343547821,-0.7907650768756866,-2.6696337461471558,-2.9626200199127197
9.12,0.015027999877929688,-1.1986238956451416,0.5818638801574707,-5.75288200378418,-7.878093957901001,-0.9948636591434479,-0.9248499870300293,-2.1021400094032288,-3.049668312072754
9.13,0.013831377029418945,-0.9460003376007081,0.40544748306274414,-5.968510150909424,-7.709338426589966,-1.0458964109420776,-0.9990701079368591,-1.584431767463684,-2.889010787010193
9.14,1.054985523223877,0.3799142837524413,0.08217895030975345,-6.170496702194214,-7.5460593700408936,-1.0661958456039429,-0.9996809959411621,-1.3724614977836609,-2.5353198051452637
9.15,1.2789926528930664,1.8923966884613037,-0.7215871214866638,-6.344225645065308,-7.399210214614868,-1.0776554346084595,-0.9230174124240875,-1.3107640743255615,-2.1510855555534363
9.16,1.4826040267944336,2.7403712272644043,-1.898748755455017,-6.487832307815552,-7.271398067474365,-1.0940033197402954,-0.7932085394859314,-1.1198686957359314,-1.8432095050811768
9.17,2.137404203414917,3.02952241897583,-2.5531569719314575,-6.608575820922852,-7.159520387649536,-1.1099715828895569,-0.6530149579048157,-0.836427241563797,-1.6278795003890991
9.18,2.6305253505706787,3.042125701904297,-2.7570594549179077,-6.715033292770386,-7.058398962020874,-1.119153082370758,-0.5232060849666595,-0.6400340497493744,-1.4937946200370789
9.19,2.5700769424438477,3.0152182579040527,-2.586511254310608,-6.812602281570435,-6.9632568359375,-1.1256983876228333,-0.3979787081480026,-0.5435173511505127,-1.4033865928649902
9.2,2.390484571456909,3.032427668571472,-2.12190842628479,-6.903554677963257,-6.871530055999756,-1.1354028582572937,-0.279776282608509,-0.47448958456516266,-1.3028992414474487
9.21,2.1830015182495117,3.074448347091675,-1.7058648467063904,-6.987116813659668,-6.784263849258423,-1.1492206454277039,-0.15638149902224535,-0.4121813178062439,-1.1278863549232483
9.22,2.067455530166626,3.0521554946899414,-1.5067453980445862,-7.058468341827393,-6.706904411315918,-1.1675779223442078,-0.06139195710420606,-0.3199406713247299,-0.9143889546394348
9.23,2.3320071697235107,2.808534264564514,-1.4139739871025085,-7.115771770477295,-6.642848253250122,-1.1861290335655212,-0.009773843921721002,-0.2066251784563064,-0.7195229232311249
9.24,2.7292730808258057,2.5514111518859863,-1.3867212533950806,-7.160940408706665,-6.591626405715942,-1.2002136707305908,0.027488936670124503,-0.13454307243227953,-0.5212971419095993
9.25,2.9223339557647705,2.439462423324585,-1.3992161750793457,-7.193589925765991,-6.553897857666016,-1.2116608619689941,0.04642575979232785,-0.10002918168902394,-0.3258202522993088
9.26,2.63120436668396,2.5052192211151123,-1.454811930656433,-7.2137064933776855,-6.529872179031372,-1.2219055891036987,0.04520402848720545,-0.0719293802976608,-0.1254564486443996
9.27,2.127202033996582,2.6979225873947144,-1.4598363637924194,-7.221015691757202,-6.520265579223633,-1.2300492525100708,0.0320704253390431,-0.003207040950655951,0.08987354859709744
9.28,1.674197514851888,2.5394574801127114,-1.3462968269983928,-7.208294868469238,-6.534581979115804,-1.2282681067784627,0.01791871436095483,0.1281289880474408,0.36771542827288306
9.29,1.4304901758829753,2.299403746922811,-1.2779194911321003,-7.1952290534973145,-6.549909750620524,-1.2232232491175334,0.009570222425584966,0.20631974066297212,0.5340744008620579
9.3,0.6578512191772461,2.0628769397735596,-0.8162627816200256,-7.160802364349365,-6.590312242507935,-1.2080347537994385,0.0152716315933503,0.27198775112628937,0.8226064145565033
9.31,-0.44801759719848633,1.9298267364501953,-0.0828772485256195,-7.109579563140869,-6.648798227310181,-1.1896409392356873,0.0387899428606033,0.27320948243141174,1.0556515157222748
9.32,-1.6574518680572512,1.759671688079834,0.33253988623619074,-7.042179346084595,-6.723001480102539,-1.1729046702384949,0.1075122822076082,0.385303258895874,1.27098149061203
9.33,-3.040287733078003,1.666454792022705,0.1668577194213867,-6.960592031478882,-6.810696363449097,-1.153268814086914,0.22510384768247604,0.6385069042444229,1.3436744213104248
9.34,-4.249229431152344,1.2253546714782715,-0.7356733083724976,-6.875728130340576,-6.901108980178833,-1.1246213912963867,0.31551189720630646,0.950353592634201,1.1533899307250977
9.35,-1.922715663909912,0.7254800796508789,-2.635520279407501,-6.808040142059326,-6.9746458530426025,-1.0828245878219604,0.3787364512681961,1.0936014652252197,0.8940776586532593
9.36,2.8277950286865234,0.16433024406433105,-4.498533248901367,-6.76042103767395,-7.027608871459961,-1.0383574962615967,0.5192354619503021,0.7325801253318787,0.9460011720657349
9.37,3.6384944915771484,-1.1299533843994143,-4.316509962081909,-6.703072786331177,-7.083654880523682,-1.028694987297058,0.6768386960029602,0.14431691542267802,1.3769665956497192
9.38,0.13158011436462402,-2.796751022338867,-1.7616335749626162,-6.606848478317261,-7.167018413543701,-1.0707070231437683,0.6401867866516113,0.1687515266239643,1.879097819328308
9.39,-2.2941153049468994,-3.548428773880005,-0.0020669698715209996,-6.473750829696655,-7.280844449996948,-1.113631010055542,0.43737952411174774,0.8553640693426132,2.2138519287109375
9.4,-1.911691665649414,-4.205613374710083,0.1927380263805389,-6.321070194244385,-7.416140794754028,-1.096549153327942,0.30451633036136627,1.5138767957687378,2.3488532304763794
9.41,-1.5365099906921387,-4.854750156402588,0.3331190943717956,-6.161147594451904,-7.559484958648682,-1.0250433683395386,0.3197879493236542,1.6595681309700012,2.44964599609375
9.42,1.619786024093628,-4.358365535736084,-1.3893804252147675,-5.990550756454468,-7.7051191329956055,-0.948557436466217,0.33719760179519653,1.3019065260887146,2.5849525928497314
9.43,3.310323715209961,-3.5770580768585205,-2.239829897880554,-5.801490545272827,-7.854357481002808,-0.8977712988853455,0.26450464129447937,0.8965974450111389,2.4911848306655884
9.44,1.4234638214111328,-2.9319069385528564,-0.09268331527709961,-5.612119674682617,-7.9943320751190186,-0.8673914968967438,0.1634064503014087,0.7417431175708771,2.048612952232361
9.45,1.1345500946044922,-2.3995442390441895,1.731303095817566,-5.453690052032471,-8.106512069702148,-0.8394629657268524,0.1423316039144992,0.7133378982543945,1.7236326336860657
9.46,1.2022373676300049,-1.7272653579711914,1.8553191423416138,-5.3190672397613525,-8.19819688796997,-0.812644362449646,0.1334740594029426,0.7252497673034668,1.7242435216903687
9.47,1.168832778930664,-0.9710345268249512,0.7604303658008575,-5.182711839675903,-8.287642478942871,-0.7855695188045502,0.10140363126993175,0.7615962326526642,1.8057940602302551
9.48,1.1714340448379517,-0.6545119285583496,-0.416861891746521,-5.038069725036621,-8.379110336303711,-0.7550998330116272,0.13041973114013666,0.7710646390914917,1.851914405822754
9.49,1.3667709827423096,-0.8315391540527344,-1.102333277463913,-4.887444496154785,-8.470233917236328,-0.7280338704586029,0.18845193088054651,0.7698429226875305,1.833588421344757
9.5,1.4307663440704346,-1.0626068115234375,-1.3321255445480347,-4.735961675643921,-8.557594776153564,-0.707734227180481,0.2309070602059364,0.769537478685379,1.7999908328056335
9.51,1.0765986442565918,-1.0431747436523438,-1.243968427181244,-4.585301160812378,-8.640473365783691,-0.6929407119750977,0.27550021559000015,0.7707591950893402,1.7615063190460205
9.52,0.5936967134475708,-0.9410910606384276,-1.1287293434143066,-4.436390399932861,-8.718615055084229,-0.6836813390254974,0.3381139039993286,0.8101600110530853,1.7120261788368225
9.53,0.328488826751709,-0.8574686050415039,-1.1662036180496216,-4.290892601013184,-8.791463375091553,-0.6797259449958801,0.41080687940120697,0.9301950633525848,1.6371951699256897
9.54,0.15836405754089355,-0.7345762252807617,-1.3492454290390015,-4.151892423629761,-8.858092308044434,-0.6786434650421143,0.4642575979232788,1.1299480199813843,1.5235742330551147
9.55,0.2539042234420776,-0.7459101676940918,-1.737539291381836,-4.023574709892273,-8.91738748550415,-0.6758160591125488,0.46242499351501465,1.4106405973434448,1.3852132558822632
9.56,0.7831094264984131,-0.7454981803894043,-1.8120431900024414,-3.908739686012268,-8.969274520874023,-0.6635613441467285,0.45845435559749603,1.5804611444473267,1.3510048389434814
9.57,1.4172577857971191,-0.3804440498352051,-1.2207744121551514,-3.797094225883484,-9.018293857574463,-0.6467028558254242,0.5699372589588165,1.5880969166755676,1.3177127242088318
9.58,1.7730390429496765,-0.5692796707153321,-0.566037118434906,-3.687203288078308,-9.064090251922607,-0.6430347561836243,0.7730499505996704,1.5682438015937805,1.1356748938560486
9.59,1.9883034825325012,-1.31304931640625,0.053003877401351984,-3.592418670654297,-9.100830554962158,-0.6611311137676239,0.9373727142810822,1.4097242951393127,0.9759336113929749
9.6,2.2725038528442383,-1.4072885513305664,0.8416308462619781,-3.5103061199188232,-9.129892349243164,-0.700372964143753,1.0060950815677643,1.0285443663597107,0.9166796505451202
9.61,2.429428458213806,-0.725576400756836,1.5334112644195557,-3.430204749107361,-9.155592918395996,-0.7588870823383331,0.979827880859375,0.5062545835971832,0.9111818671226501
9.62,2.320299506187439,0.17459678649902344,1.8841566443443298,-3.3450177907943726,-9.18068552017212,-0.8319050371646881,0.8976664841175079,-0.006261371076106997,0.8925504982471466
9.63,1.9305833578109741,0.9332616329193115,1.8997462391853333,-3.254576802253723,-9.205527782440186,-0.9121380150318146,0.7806857824325562,-0.3816380724310875,0.8113054037094116
9.64,1.313511610031128,1.1576321125030518,1.5255488157272339,-3.1678208112716675,-9.227588176727295,-0.9916417896747587,0.627358615398407,-0.6018549799919128,0.6857725977897644
9.65,0.5821396112442017,0.7538490295410156,0.9832600355148315,-3.0924601554870605,-9.245184421539307,-1.0634657740592957,0.4535674452781677,-0.740826815366745,0.6680575013160706
9.66,-0.041410088539123535,0.3522658348083496,0.7054288983345032,-3.0183796882629395,-9.26258659362793,-1.1232171058654785,0.29993482679128647,-0.8416195809841156,0.8928558826446533
9.67,-0.42291998863220215,0.1410145759582519,0.6035043895244598,-2.922976851463318,-9.287164211273193,-1.1709302067756653,0.137139244005084,-0.8205447196960449,1.2660945653915405
9.68,-0.5494763851165771,-0.06163358688354495,0.4547540247440338,-2.794026255607605,-9.322739124298096,-1.2017449736595154,-0.006719518452882801,-0.6598871648311615,1.527544915676117
9.69,-0.49035072326660156,-0.3474254608154297,0.30237066745758057,-2.643659234046936,-9.36495304107666,-1.2133644223213196,-0.08002334646880624,-0.4482223689556122,1.6167312264442444
9.7,-0.36773931980133057,-0.2928071022033691,0.2585327923297882,-2.4885432720184326,-9.407600402832031,-1.2114250659942627,-0.11789699271321294,-0.22586742788553235,1.6066519618034363
9.71,-0.3315325975418091,0.3469910621643067,0.18962422013282776,-2.338002324104309,-9.447650909423828,-1.1999773383140564,-0.11209377273917195,-0.011759158223867403,1.4853951930999756
9.72,-0.2545039653778076,0.9454402923583985,-0.0122777223587036,-2.201946973800659,-9.48226547241211,-1.1848231554031372,-0.06566801294684405,0.19226982817053795,1.2902237176895142
9.73,-0.007213771343231201,1.1576247215270996,-0.11092388629913325,-2.0865155458450317,-9.510096549987793,-1.1711711287498474,0.0015271622687577993,0.33826662600040436,1.056262344121933
9.74,0.40908086299896235,0.9583144187927246,0.12334784865379333,-1.9940423965454104,-9.531053066253662,-1.1624313592910767,0.06505714915692799,0.40485094487667084,0.8442921042442322
9.75,0.8630494475364686,0.9952020645141602,0.6003274321556091,-1.9212866425514223,-9.546392917633057,-1.1593735218048096,0.09743300825357434,0.3978259861469269,0.7731263041496277
9.76,0.90458881855011,1.3316359519958496,0.7841669619083405,-1.8538898229599,-9.559609413146973,-1.1600566506385803,0.05864306353032585,0.3361285924911499,0.7514405846595764
9.77,0.5022270679473877,1.215287685394287,0.5027814507484436,-1.7867162823677063,-9.572547912597656,-1.1587927341461182,-0.0109955742955208,0.25732698291540146,0.6558401882648468
9.78,0.07764613628387451,1.3011579513549807,0.31721988320350647,-1.72725111246109,-9.584197998046875,-1.1527962684631348,-0.08155051060020921,0.16478089988231653,0.6998224854469299
9.79,-0.25798922777175903,1.3330631256103516,0.15559592843055725,-1.6621605157852173,-9.596949577331543,-1.1420069932937622,-0.17776178568601603,0.10399980843067165,0.8568148612976074
9.8,-0.5521887540817261,0.8581366539001465,-0.11456525325775144,-1.5810449123382568,-9.612834453582764,-1.1232370138168335,-0.275805652141571,0.0923933684825897,0.933173030614853
9.81,-0.7724170088768005,0.5019960403442383,-0.12221378087997435,-1.492497742176056,-9.630189418792725,-1.0952377915382385,-0.3423899710178375,0.09361509606242174,0.9368382096290588
9.82,-0.8272735476493835,0.6113028526306152,0.1378476619720459,-1.4041224122047424,-9.647319316864014,-1.0608124136924744,-0.3591887652873993,0.09880745410919184,0.8653669655323029
9.83,-0.7035200595855713,1.1114840507507324,0.49081331491470337,-1.3231716752052307,-9.66267442703247,-1.024720311164856,-0.3194825202226639,0.1131627894937992,0.7315874695777893
9.84,-0.466508686542511,1.7871880531311035,0.7241460680961609,-1.254922330379486,-9.675184726715088,-0.9922966659069061,-0.22602014243602747,0.14462234824895856,0.5733733773231506
9.85,-0.1657587885856628,2.0729470252990723,0.6944751739501953,-1.2013304233551025,-9.684413433074951,-0.9686112701892852,-0.09285151772201054,0.18066339939832682,0.4224896728992462
9.86,0.0656090378761292,1.8825395107269287,0.397236168384552,-1.162153422832489,-9.690330505371094,-0.9574793875217438,0.032681291922926896,0.1562287881970405,0.30703614652156824
9.87,0.2145063877105713,1.678656816482544,0.05383291840553284,-1.133879840373993,-9.693546295166016,-0.9588411450386047,0.1035416610538959,0.07040221896022555,0.2777146100997925
9.88,0.3522486984729767,1.2952990531921387,-0.164375752210617,-1.1076193451881409,-9.69565486907959,-0.9680816233158112,0.1246165111660957,-0.003512474708259102,0.32444579899311066
9.89,0.40455085039138794,0.4883842468261719,-0.28873044252395624,-1.0761244297027588,-9.697980403900146,-0.980196475982666,0.1252273768186569,-0.0270307874307036,0.3934735804796219
9.9,0.3613309860229492,-0.20900392532348627,-0.23679590225219727,-1.0376929640769958,-9.700896263122559,-0.992626667022705,0.10781771689653394,0.013286319561302651,0.4844924956560135
9.91,0.2128486633300781,-0.159698486328125,-0.10914254188537595,-0.9909642040729525,-9.7047119140625,-1.0029641389846802,0.078801617026329,0.06032294221222395,0.5645158290863037
9.92,-0.06711071729660036,0.45301771163940424,-0.048175692558288546,-0.9372568726539612,-9.709300994873047,-1.0100614428520203,0.0824668072164058,0.0765108689665794,0.6161339581012726
9.93,-0.31577712297439575,0.9712457656860352,0.1148037016391754,-0.8789294958114624,-9.713972568511963,-1.0174177289009094,0.1325577609241008,0.1116356253623962,0.6427066028118134
9.94,-0.46010467410087585,0.829228401184082,0.2763933837413788,-0.818399041891098,-9.718001365661621,-1.029369831085205,0.19242255389690394,0.1666134968400001,0.6042220890522003
9.95,-0.5173843204975128,0.23579788208007812,0.24820828437805176,-0.76231649518013,-9.72072696685791,-1.0466745495796204,0.19333884865045545,0.2173153087496757,0.5177846550941467
9.96,-0.44655662775039673,-0.33230161666870117,-0.004220008850097656,-0.7158282995223999,-9.722447395324707,-1.0635939240455627,0.1157589647918939,0.2420553565025329,0.44631341099739075
9.97,-0.2872805595397949,-0.864466667175293,-0.40324610471725464,-0.6775827407836914,-9.724189281463623,-1.0727792382240295,0.04184426926076405,0.24938573688268656,0.4234059751033783
9.98,-0.14015200734138483,-1.1508574485778809,-0.6164335608482361,-0.6427519619464874,-9.72629976272583,-1.0750699639320374,0.0296269636601209,0.25977043807506556,0.4493677467107773
9.99,-0.12399202585220334,-0.9667549133300782,-0.5811618566513062,-0.6062394976615906,-9.728443145751953,-1.076822817325592,0.05283984355628485,0.25977043807506556,0.5034293085336685
10.0,-0.2521650791168213,-0.8055405616760254,-0.6531358957290649,-0.5642576813697815,-9.730443477630615,-1.0814632177352905,0.0778853185474872,0.22586742043495175,0.5675701797008514
10.01,-0.6101788878440857,-1.0849971771240234,-0.9124095439910889,-0.51509590446949,-9.732305526733398,-1.0891430974006653,0.0836885385215282,0.1122464872896671,0.6622543036937714
10.02,-1.1669792532920837,-1.6815962791442873,-1.073295533657074,-0.4550923854112625,-9.734256744384766,-1.0982454419136047,0.09224065393209455,0.027030786499381,0.7453319728374481
10.03,-1.6342992782592773,-2.2758889198303223,-1.022538185119629,-0.385209858417511,-9.736120223999023,-1.1083012819290161,0.12675454095005986,0.05543602071702475,0.76762855052948
10.04,-2.0140204429626465,-2.6948952674865723,-0.8004763126373291,-0.31194648146629333,-9.737296104431152,-1.1208705306053162,0.16707164794206614,0.10430524125695224,0.7770969569683075
10.05,-2.435671806335449,-2.9484381675720215,-0.5079609155654907,-0.23745442926883698,-9.737538814544678,-1.136855661869049,0.18264871090650553,0.1519527286291122,0.8036696016788483
10.06,-2.8006850481033325,-3.1692004203796387,-0.1361227035522461,-0.1609425507485866,-9.737043380737305,-1.1543520092964172,0.1734857335686683,0.26007588207721705,0.7993935346603394
10.07,-2.9772400856018066,-3.4659032821655273,0.1965131759643554,-0.08614099211990825,-9.736024379730225,-1.1709532737731934,0.16523905098438255,0.4460843652486801,0.7340309321880341
