time,seconds_elapsed,z,y,x
1759347990969484800,0.02148486328125,2.0783166786193847,-9.083301823425293,3.183390382385254
1759347990979542800,0.031542724609375,1.9397522575378416,-9.106495652008055,3.1118636077880857
1759347990989601000,0.04160107421875,1.709160710144043,-9.164854317474365,3.1004911499023438
1759347990999658800,0.05165869140625,1.5004162528991698,-9.188347421264648,3.1370027252197263
1759347991009716700,0.061716796875,1.3617021942138672,-9.152733671569823,3.1673791587829587
1759347991019775000,0.07177490234375,1.2714707191467285,-9.086144937896728,3.1931168266296384
1759347991029833000,0.0818330078125,1.2578536972045897,-9.037662354278565,3.189525524139404
1759347991039890700,0.091890625,1.3097779457092285,-9.03377177658081,3.1664813331604003
1759347991049948700,0.10194873046875,1.444152513885498,-9.04708952331543,3.1398458396911617
1759347991060007000,0.1120068359375,1.580771646118164,-9.121459412384032,3.1664813331604003
1759347991070065000,0.12206494140625,1.7021277427673338,-9.11682064666748,3.182642194366455
1759347991080122600,0.13212255859375,1.7504606887817382,-9.122207600402831,3.1970074043273926
1759347991090180900,0.142180908203125,1.7628806098937988,-9.127444916534424,3.1994016059875485
1759347991100238800,0.15223876953125,1.704073031616211,-9.117718472290038,3.190273712158203
1759347991110296800,0.162296875,1.6121955429077148,-9.113079706573485,3.1871313224792477
1759347991120354800,0.172354736328125,1.5514426757812498,-9.081356534576415,3.1733646629333494
1759347991130412800,0.182412841796875,1.5286977600097655,-9.029133010864257,3.174412126159668
1759347991140470800,0.192470703125,1.543062969970703,-9.038859455108643,3.2077813117980956
1759347991150529000,0.202529052734375,1.5682020874023437,-9.07851342010498,3.2296284019470214
1759347991160586800,0.212586669921875,1.6370353851318358,-9.111732968139648,3.2427965110778807
1759347991170644700,0.222644775390625,1.6831237670898436,-9.12924056777954,3.2799066368103027
1759347991180702700,0.23270263671875,1.7239748329162596,-9.14809490585327,3.315370748901367
1759347991190761000,0.242760986328125,1.7259201217651365,-9.120860861968994,3.3206080650329586
1759347991200818700,0.252818603515625,1.675941162109375,-9.071330815124512,3.303998291015625
1759347991210876700,0.262876708984375,1.6169839462280273,-9.065195673370361,3.258658097076416
1759347991220935000,0.272934814453125,1.5632640464782714,-9.041702569580078,3.2206501457214354
1759347991230993000,0.282992919921875,1.5803227333068848,-9.013421062469481,3.247884189605713
1759347991241050600,0.293050537109375,1.575683967590332,-9.004143531036377,3.3289877708435056
1759347991251108900,0.30310888671875,1.5586252807617187,-9.037512716674804,3.3994670822143553
1759347991261166800,0.313166748046875,1.5415665939331054,-9.127744191741943,3.4222119979858396
1759347991271224800,0.323224853515625,1.5263035583496092,-9.1799677154541,3.365648983764648
1759347991281282800,0.33328271484375,1.530942324066162,-9.150489107513428,3.2767642471313474
1759347991291340800,0.3433408203125,1.5466542724609373,-9.139864837646483,3.2824504760742186
1759347991301398800,0.353398681640625,1.5842133110046386,-9.14869345626831,3.2612019363403317
1759347991311456800,0.363456787109375,1.655440810394287,-9.153930772399901,3.304596841430664
1759347991321514800,0.3735146484375,1.6653168922424315,-9.160365189361572,3.3547254386901852
1759347991331572700,0.38357275390625,1.6409259628295898,-9.166799606323242,3.373430139160156
1759347991341630700,0.393630615234375,1.6213234367370604,-9.19358473739624,3.3827076705932617
1759347991351689000,0.40368896484375,1.6023194610595701,-9.229048849487304,3.349338484954834
1759347991361746700,0.41374658203125,1.5952864936828612,-9.242216958618164,3.2703298301696777
1759347991371804700,0.4238046875,1.6165350334167479,-9.245359348297118,3.2038907341003418
1759347991381863000,0.43386279296875,1.6268600280761718,-9.183708655548095,3.1714193740844725
1759347991391921000,0.4439208984375,1.6491560310363769,-9.08464856185913,3.1592987281799316
1759347991401978600,0.453978515625,1.6502034942626953,-8.96419029083252,3.130867583465576
1759347991412036900,0.464036865234375,1.638980673980713,-8.803629141998291,3.0557495063781737
1759347991422094800,0.4740947265625,1.619677423095703,-8.756942209625244,2.954594486236572
1759347991432152800,0.48415283203125,1.5779285316467284,-8.891616053009033,2.9227216766357422
1759347991442210800,0.4942109375,1.5456068092346191,-9.092280079650878,2.909403929901123
1759347991452268800,0.504268798828125,1.5102923347473143,-9.280973097991943,2.9050644393920897
1759347991462326800,0.514326904296875,1.481711552429199,-9.36013139038086,2.906560815429687
1759347991472384800,0.524384765625,1.4359224456787107,-9.299079248046874,2.956689412689209
1759347991482443500,0.534443603515625,1.4163199195861815,-9.172036922454833,2.9741970123291015
1759347991492501500,0.54450146484375,1.4001590583801269,-8.99531491241455,2.9779379524230953
1759347991502560300,0.554560302734375,1.3099275833129882,-8.853458464050293,2.89219560546875
1759347991512618500,0.564618408203125,1.209071838378906,-8.84881969833374,2.806453258514404
1759347991522676500,0.574676513671875,1.1350012245178223,-8.95700768585205,2.733729383087158
1759347991532734500,0.584734375,1.1080664558410644,-9.134178608703612,2.66878666305542
1759347991542792400,0.59479248046875,1.143979480743408,-9.348758932495116,2.661454420471191
1759347991552850400,0.604850341796875,1.205929448699951,-9.416095854187011,2.67492180480957
1759347991562908400,0.614908447265625,1.2955623733520507,-9.4358480178833,2.6746225296020505
1759347991572966700,0.624966552734375,1.3721768264770506,-9.423577734375,2.675819630432129
1759347991583024400,0.6350244140625,1.4401122985839843,-9.34127705230713,2.7838579803466796
1759347991593082400,0.645082275390625,1.4577695358276366,-9.274538681030274,2.7603648765563964
1759347991603140400,0.655140380859375,1.458218448638916,-9.285013313293456,2.8247090461730955
1759347991613198600,0.665198486328125,1.4657003288269042,-9.338583575439452,2.8645126487731933
1759347991623256300,0.67525634765625,1.4673463424682616,-9.469516478729247,2.8362311416625974
1759347991633314300,0.685314208984375,1.5065513946533202,-9.580697218322753,2.812738037872314
1759347991643372500,0.69537255859375,1.5875053382873534,-9.5247327545166,2.779817765045166
1759347991653430500,0.705430419921875,1.6609774017333983,-9.362675229644775,2.7588685005187985
1759347991663488500,0.715488525390625,1.7534534408569336,-9.197774590301513,2.703203311920166
1759347991673546500,0.72554638671875,1.7700632148742674,-9.064597122955321,2.5733178718566894
1759347991683605500,0.73560546875,1.772307778930664,-9.065046035766601,2.4615385818481443
1759347991693663200,0.745663330078125,1.6769886253356932,-9.07776523208618,2.3546973327636715
1759347991703721500,0.755721435546875,1.5390227546691893,-9.170839821624755,2.244713694000244
1759347991713779500,0.765779541015625,1.4047978240966796,-9.324517640686034,2.227655007171631
1759347991723837400,0.77583740234375,1.294065997314453,-9.508871168518066,2.235136887359619
1759347991733895400,0.7858955078125,1.2282254516601563,-9.560795417022705,2.2834698333740233
1759347991743953400,0.795953369140625,1.2164040809631347,-9.516353048706055,2.3478140029907224
1759347991754011400,0.806011474609375,1.2300211029052734,-9.490465743255614,2.390909632873535
1759347991764069600,0.816069580078125,1.3057377304077147,-9.470264666748045,2.410063246154785
1759347991774127400,0.82612744140625,1.437119546508789,-9.451559966278076,2.427271570587158
1759347991784185300,0.836185302734375,1.5409680435180664,-9.434950192260741,2.4410382301330564
1759347991794243600,0.84624365234375,1.5975310577392576,-9.406967960357665,2.4446295326232907
1759347991804301600,0.856301513671875,1.6391303115844726,-9.426420848846435,2.3906103576660156
1759347991814360300,0.8663603515625,1.6710031211853027,-9.490914656066893,2.3437737876892086
1759347991824418600,0.87641845703125,1.6986860778808592,-9.514407759857177,2.24082311630249
1759347991834476500,0.8864765625,1.64077632522583,-9.539097964477538,2.0766706649780273
1759347991844534300,0.8965341796875,1.5819687469482422,-9.57620809020996,1.9972130973815916
1759347991854592500,0.906592529296875,1.6015712730407714,-9.616909518432617,1.996913822174072
1759347991864650500,0.916650390625,1.563563321685791,-9.6656913772583,2.010381206512451
1759347991874708500,0.92670849609375,1.5126865364074706,-9.721955116271973,2.064101106262207
1759347991884766500,0.936766357421875,1.4570213478088379,-9.629927989959716,2.1068974609374997
1759347991894824400,0.946824462890625,1.4053963745117186,-9.549123683929443,2.085349645996094
1759347991904882400,0.95688232421875,1.340004741668701,-9.462184236145019,2.016217073059082
1759347991914940400,0.9669404296875,1.297806937408447,-9.402478832244872,1.9749170944213865
1759347991924999400,0.97699951171875,1.2527660186767577,-9.399336442565918,1.975964557647705
1759347991935057400,0.987057373046875,1.2228384979248046,-9.361927041625975,1.9958663589477539
1759347991945115600,0.99711572265625,1.2000935821533203,-9.328557855987547,2.0356699615478515
1759347991955173400,1.00717333984375,1.235408056640625,-9.339182125854492,2.062754367828369
1759347991965231400,1.0172314453125,1.2817957138061522,-9.290849179840087,2.0555717628479004
1759347991975289300,1.027289306640625,1.3189058395385742,-9.288305340576171,2.024297503662109
1759347991985347600,1.03734765625,1.3817536331176756,-9.356839363098144,2.0266917053222655
1759347991995405300,1.0474052734375,1.4872481437683105,-9.458892208862304,2.0675427711486813
1759347992005463300,1.05746337890625,1.643320164489746,-9.549123683929443,2.127697087860107
1759347992015521500,1.067521484375,1.8134581199645996,-9.592817864227294,2.1754314834594726
1759347992025580300,1.077580322265625,1.8318635452270506,-9.556755201721192,2.211494145965576
1759347992035638500,1.087638427734375,1.8896236602783203,-9.522637828063964,2.1871032165527344
1759347992045696500,1.097696533203125,1.9494787017822264,-9.48118821182251,2.1288941886901855
1759347992055754500,1.10775439453125,1.903091044616699,-9.419387881469726,2.048239520263672
1759347992065812200,1.117812255859375,1.7966987083435058,-9.39694224090576,1.9822493370056151
1759347992075870500,1.127870361328125,1.7669208251953124,-9.356240812683104,1.946635587310791
1759347992085928400,1.137928466796875,1.8426374526977538,-9.319878874969483,1.9387047943115234
1759347992095986400,1.147986328125,1.8884265594482421,-9.30207200012207,1.950376527404785
1759347992106044400,1.15804443359375,1.8975544532775879,-9.242366596221924,2.045695680999756
1759347992116103400,1.168103515625,1.7414824325561522,-9.113229344177245,2.1918916198730467
1759347992126161700,1.17816162109375,1.5752350547790526,-8.928875816345215,2.226158631134033
1759347992136219400,1.188219482421875,1.4041992736816404,-8.942792113494873,2.0501848091125487
1759347992146277400,1.19827734375,1.271021806335449,-9.000252953338622,1.8785504776000976
1759347992156335400,1.20833544921875,1.34703770904541,-9.139415924835205,1.7188871543884277
1759347992166393600,1.2183935546875,1.59618431930542,-9.284564400482177,1.4377180969238281
1759347992176451300,1.228451416015625,1.7702128524780272,-9.413851290130614,1.1558008514404297
1759347992186509300,1.23850927734375,1.9330185653686522,-9.498396536254882,0.7990648040771484
1759347992196568600,1.248568603515625,2.073677912902832,-9.630676177978515,0.534355883026123
1759347992206626300,1.258626220703125,1.9053356086730955,-9.594463877868652,0.5333084197998047
1759347992216684500,1.2686845703125,1.6518495079040527,-9.502586389160156,0.5419874008178711
1759347992226742500,1.278742431640625,1.495178936767578,-9.57635772781372,0.6364087287902832
1759347992236800500,1.288800537109375,1.5011644409179687,-9.648183777618408,0.7516296836853027
1759347992246858200,1.298858154296875,1.918503717803955,-9.61526350479126,0.9995791931152344
1759347992256916500,1.30891650390625,2.5342624572753905,-9.62109937133789,1.2828431770324706
1759347992266974500,1.318974365234375,3.1194951255798338,-9.643694649505616,1.4853028549194336
1759347992277033500,1.329033447265625,3.4005145454406738,-9.497049797821044,1.703324843597412
1759347992287091500,1.339091552734375,3.2242414482116697,-9.275586144256591,1.740434969329834
1759347992297149400,1.3491494140625,2.6560674667358395,-9.168894532775878,1.4890437950134277
1759347992307207400,1.35920751953125,2.2649147705078123,-9.096170657348631,1.2152069801330565
1759347992317265400,1.369265380859375,1.9156606033325194,-9.037363079071044,0.9367313995361327
1759347992327323400,1.379323486328125,2.354398057556152,-9.080159433746337,0.8846575134277344
1759347992337381400,1.38938134765625,3.1649849571228024,-9.039308367919922,0.9549871871948241
1759347992347440400,1.3994404296875,3.744381758880615,-9.05921016921997,0.9585784896850585
1759347992357498400,1.409498291015625,3.814561795043945,-9.160065914154051,0.8556278182983398
1759347992367556600,1.419556640625,3.7825393478393554,-9.27648396987915,0.7372644737243652
1759347992377614600,1.429614501953125,3.569605037689209,-9.340977777099608,0.8125321884155273
1759347992387672300,1.43967236328125,3.062034285736084,-9.228450299072264,0.7604583023071289
1759347992397730300,1.449730224609375,2.4392425788879395,-8.974814560699462,0.38681320571899414
1759347992407789600,1.45978955078125,2.6355671150207516,-8.674042977142333,0.1580173095703125
1759347992417847300,1.469847412109375,3.3066917678833008,-8.437465925598143,0.08559270935058594
1759347992427905500,1.479905517578125,3.6267666023254392,-8.505700672912598,0.10848726272583008
1759347992437963500,1.489963623046875,3.642927463531494,-8.783577703094481,0.14021043472290037
1759347992448021500,1.500021484375,3.473836971282959,-9.117269559478759,0.17043723068237304
1759347992458079500,1.51007958984375,3.366247534179687,-9.382577030944823,0.2424129180908203
1759347992468137500,1.520137451171875,3.314921836090088,-9.4496146774292,0.25318682556152344
1759347992478196500,1.530196533203125,2.9899089607238767,-9.343371978759764,0.0909796630859375
1759347992488254000,1.54025390625,3.0910639808654783,-9.221716606903076,-0.06943184814453125
1759347992498312000,1.55031201171875,3.24324542388916,-9.090035515594481,-0.18644845428466797
1759347992508370000,1.560369873046875,3.6632781776428223,-9.081206896972656,-0.18420389022827147
1759347992518428000,1.570427978515625,3.7749078300476073,-9.150339469909667,-0.3037643356323242
1759347992528486000,1.58048583984375,3.8687306076049803,-9.343222341156006,-0.28924948806762696
1759347992538545000,1.590544921875,3.9076363845825193,-9.524583116912842,-0.22999299697875975
1759347992548603100,1.60060302734375,3.8353614219665526,-9.54478419342041,-0.21173720932006834
1759347992558660900,1.610660888671875,3.88818349609375,-9.381080654907226,-0.2784755805969238
1759347992568718800,1.62071875,3.901351605224609,-9.14824454345703,-0.3624222763061523
1759347992578777000,1.630777099609375,3.806780639648437,-8.900893584442137,-0.42586862030029293
1759347992588835000,1.6408349609375,3.40949280166626,-8.779687125396729,-0.38801030654907226
1759347992598893800,1.650893798828125,3.379116368103027,-8.806472256469727,-0.4101566719055176
1759347992608952000,1.6609521484375,3.4816181266784665,-8.99531491241455,-0.5969044013977051
1759347992619010000,1.671010009765625,3.8284780921936035,-9.233238702392578,-0.7942764007568359
1759347992629067800,1.68106787109375,4.020912050628662,-9.374496600341796,-0.9054571403503417
1759347992639126000,1.6911259765625,4.008941042327881,-9.447968663787842,-1.159392153930664
1759347992649184000,1.70118408203125,4.070292459869385,-9.368960009002684,-1.1890203994750976
1759347992659242800,1.71124267578125,4.166359801483154,-9.071779727935791,-1.1378443389892579
1759347992669301000,1.721301025390625,4.238185851287842,-8.750058879852295,-1.0476128639221192
1759347992679359000,1.73135888671875,4.210652532196045,-8.540266959381103,-0.9677063835144042
1759347992689417000,1.7414169921875,4.100070343017578,-8.372373567962645,-1.0000281059265137
1759347992699475000,1.751474853515625,4.045901530456542,-8.443601067352294,-1.0603320602416992
1759347992709534000,1.761533935546875,3.9782653335571285,-8.507047411346434,-1.1875240234375
1759347992719592000,1.771592041015625,4.071938473510742,-8.531139065551757,-1.2051812606811523
1759347992729650000,1.78164990234375,4.202123188781738,-8.615684311676025,-1.2096703887939453
1759347992739708000,1.7917080078125,4.338891958618164,-8.685714710235596,-1.3977648567199705
1759347992749766000,1.801765869140625,4.424783943176269,-8.483255032348632,-1.745522647857666
1759347992759824100,1.81182421875,4.670788163757324,-8.246079430389404,-2.0171148986816405
1759347992769883000,1.8218828125,4.679467144775391,-8.119186742401123,-2.139368820953369
1759347992779940900,1.83194091796875,4.680963520812988,-8.020425923919678,-2.2372318138122558
1759347992789999000,1.8419990234375,4.950610482788085,-8.085069368743897,-2.173785469818115
1759347992800056800,1.852056884765625,4.946420629882812,-8.1724577293396,-2.2117934211730956
1759347992810114800,1.86211474609375,4.684255548095702,-8.041225550842285,-2.1911434318542478
1759347992820174000,1.872174072265625,4.594772261047363,-7.877372374725342,-2.126499987030029
1759347992830231800,1.882231689453125,4.463091169738769,-7.763797433471679,-2.205059729003906
1759347992840290000,1.8922900390625,4.597465737915039,-7.774870616149902,-2.4365491020202636
1759347992850348000,1.90234814453125,4.758924712371826,-7.72534056930542,-2.6273370468139645
1759347992860406000,1.912406005859375,4.794239186859131,-7.83951406097412,-2.6529250770568846
1759347992870465000,1.922465087890625,4.720916761016845,-7.940968356323242,-2.793584424591064
1759347992880523000,1.93252294921875,4.913949269866943,-7.957428492736816,-2.7262475028991697
1759347992890581000,1.9425810546875,4.911555068206787,-7.834276744842529,-2.6879402763366698
1759347992900639000,1.952638916015625,4.905569564056396,-7.5984478813171386,-2.6550200035095215
1759347992910697000,1.962697021484375,5.090372004699707,-7.468113528442382,-2.628534147644043
1759347992920756000,1.972755859375,5.137807125091553,-7.261164722442627,-2.807949634552002
1759347992930814000,1.98281396484375,5.282955600738525,-7.187692658996582,-2.935440872955322
1759347992940872000,1.992871826171875,5.373785626220703,-7.296329559326171,-3.1194951255798338
1759347992950930000,2.002929931640625,5.4887073059082025,-7.447463539123535,-3.220350870513916
1759347992960988200,2.01298828125,5.600935508728027,-7.584232308959961,-3.1886276985168456
1759347992971047000,2.023046875,5.455038845062256,-7.702296378326416,-3.1766566902160642
1759347992981105000,2.03310498046875,5.362113893127441,-7.7890861885070795,-2.953995935821533
1759347992991163100,2.0431630859375,5.310937832641601,-7.7799582946777335,-2.925714428710937
1759347993001220900,2.053220947265625,5.200206005859375,-7.652167781066894,-2.966266219329834
1759347993011280100,2.063280029296875,5.627720639801025,-7.68059892578125,-3.09630129699707
1759347993021338000,2.073338134765625,5.8469397293090815,-7.89113903427124,-3.277063522338867
1759347993031395800,2.083395751953125,5.925649108886718,-8.125321884155273,-3.3361703758239742
1759347993041454000,2.0934541015625,5.961861408996581,-8.136245429229735,-3.3201591522216796
1759347993051512000,2.103511962890625,5.685331117248535,-8.118288916778564,-3.2517747673034667
1759347993061570800,2.11357080078125,5.810428153991699,-7.84624775314331,-3.2926258331298826
1759347993071629000,2.123629150390625,5.814019456481933,-7.604732660675048,-3.24324542388916
1759347993081687000,2.13368701171875,5.604975724029541,-7.3657614074707025,-3.039439007568359
1759347993091745000,2.1437451171875,5.641038386535644,-7.1586629638671875,-3.2044892845153807
1759347993101803000,2.153802978515625,5.871629933929443,-7.011269924163818,-3.337068201446533
1759347993111862000,2.163862060546875,6.114791040039062,-7.033117014312744,-3.0252234352111813
1759347993121919700,2.173919677734375,6.080673666381836,-7.1680901329040525,-3.058742258453369
1759347993131978000,2.18397802734375,6.240636264801025,-7.33523533630371,-3.2612019363403317
1759347993142036000,2.194035888671875,6.411223133087158,-7.269843703460693,-3.4401685104370117
1759347993152095000,2.204094970703125,6.147561675262451,-7.302614338684082,-3.470544944000244
1759347993162153000,2.214153076171875,6.025008477783203,-7.272836455535888,-3.865139305114746
1759347993172211000,2.2242109375,6.1179334297180175,-7.240664370727538,-3.81156904296875
1759347993182269000,2.23426904296875,6.069301208496094,-7.1422028274536125,-3.8982092155456542
1759347993192328000,2.244327880859375,5.987299801635742,-7.002291667938232,-3.534889113616943
1759347993202386000,2.254385986328125,6.196343534088134,-6.820631616973877,-4.37944374923706
1759347993212444200,2.264444091796875,6.728454853057861,-6.408230381011962,-4.434061474609375
1759347993222502000,2.274501953125,6.72276862411499,-6.29480507736206,-3.9763200447082516
1759347993232559900,2.284559814453125,6.641665042877197,-6.266373932647705,-4.031835595703125
1759347993242619100,2.294619140625,6.660369743347167,-6.178387021636962,-4.036474361419677
1759347993252676900,2.3046767578125,6.709301239776611,-6.141426533508301,-4.080467816925049
1759347993262734800,2.31473486328125,6.719027684020996,-6.037428398895264,-4.1241619972229
1759347993272793000,2.32479296875,6.551433567810058,-5.865794067382812,-3.9731776550292968
1759347993282851800,2.334851806640625,6.593332096862793,-5.72618218307495,-4.075978688812255
1759347993292909800,2.344909912109375,6.710797615814209,-5.724685807037353,-4.022857339477539
1759347993302968000,2.354968017578125,6.918344972229003,-5.5906105140686035,-4.258686203002929
1759347993313026000,2.365026123046875,7.0555626548767085,-5.514145698547363,-4.267514821624756
1759347993323085000,2.3750849609375,7.159710427093505,-5.514893886566162,-4.051587759399414
1759347993333143000,2.38514306640625,7.111527118682861,-5.581183345031738,-4.036324723815918
1759347993343201000,2.395200927734375,7.016058327484131,-5.721842692565918,-4.1748891448974605
1759347993353258800,2.4052587890625,6.966079367828368,-5.770774188995361,-4.308814800262451
1759347993363318000,2.415318115234375,7.041047807312012,-5.640888748931885,-4.326172762298584
1759347993373376000,2.4253759765625,7.152078909301758,-5.5440732192993165,-4.142866697692871
1759347993383434000,2.43543408203125,7.082198148345947,-5.604227536010741,-3.9790135215759275
1759347993393492000,2.445491943359375,7.06708475036621,-5.587917037200928,-4.027795380401611
1759347993403551000,2.455551025390625,7.020996368408203,-5.587019211578369,-4.116829754638672
1759347993413609000,2.46560888671875,6.9621887901306145,-5.552004012298584,-3.9996635108947753
1759347993423667000,2.4756669921875,7.0178539787292475,-5.529558371734619,-3.9764696823120116
1759347993433725000,2.485724853515625,7.021445281219482,-5.477035572814941,-3.9811084480285643
1759347993443784000,2.495783935546875,6.969820307922363,-5.459976885986328,-4.005349739837646
1759347993453842000,2.505842041015625,6.9898717468261715,-5.4418707359313965,-3.882197991943359
1759347993463900000,2.51589990234375,7.084891625213623,-5.259462496948242,-3.7817911598205565
1759347993473958000,2.5259580078125,7.223605683898925,-5.249885690307617,-3.8543653976440426
1759347993484017400,2.536017333984375,7.298274848175049,-5.1876364471435545,-3.843741127777099
1759347993494075400,2.546075439453125,7.388356685638428,-5.242104534912109,-3.847033155059814
1759347993504133000,2.556133056640625,7.426663912200928,-5.212775564575195,-3.7370495162963864
1759347993514191400,2.56619140625,7.378181328582763,-5.266794739532471,-3.7069723579406735
1759347993524250400,2.57625048828125,7.32939946975708,-5.347599045562744,-3.5755905418395995
1759347993534308000,2.58630810546875,7.452401580047607,-5.440673635101318,-3.4763808105468748
1759347993544366300,2.596366455078125,7.510610607910156,-5.501875415039062,-3.675249185943603
1759347993554424300,2.60642431640625,7.559392466735839,-5.532850399017334,-3.6246716758728024
1759347993564483300,2.6164833984375,7.509712782287597,-5.483619627380371,-3.535487664031982
1759347993574541300,2.626541259765625,7.45659143295288,-5.529857646942139,-3.592948503875732
1759347993584599300,2.636599365234375,7.38656103439331,-5.553350750732421,-3.727323072052002
1759347993594658300,2.646658203125,7.433397604370117,-5.604526811218261,-3.940407019805908
1759347993604716300,2.65671630859375,7.535300812530517,-5.535693513488769,-3.9553707801818847
1759347993614774300,2.666774169921875,7.612663453674316,-5.459827248382568,-3.605817337799072
1759347993624832500,2.67683251953125,7.676857985687255,-5.440972910308838,-3.5269583206176756
1759347993634891300,2.686891357421875,7.566275796508789,-5.321861377716064,-3.73495458984375
1759347993644949200,2.69694921875,7.451653392028808,-5.103689751434326,-3.4753333473205563
1759347993655007500,2.707007568359375,7.312490420532226,-5.026177472686768,-3.655497022247314
1759347993665065200,2.717065185546875,7.246500237274169,-4.953303959655761,-3.697245913696289
1759347993675124500,2.72712451171875,7.268048052215576,-4.8032174430847165,-3.4974797126770016
1759347993685182200,2.73718212890625,7.241262921142578,-4.921431150054931,-3.4406174232482907
1759347993695240200,2.747240234375,7.308150930023193,-5.019443780517578,-3.4452561889648434
1759347993705298200,2.757298095703125,7.540538128662109,-5.0754082443237305,-3.43478155670166
1759347993715357200,2.767357177734375,7.501931626892089,-5.067627088928222,-3.6424785507202144
1759347993725415200,2.777415283203125,7.359925540924072,-5.092317293548584,-3.7304654617309567
1759347993735473400,2.787473388671875,7.235127779388427,-5.118503874206542,-3.819649473571777
1759347993745532200,2.7975322265625,7.22061293182373,-5.205144046783447,-3.681982878112793
1759347993755590100,2.807590087890625,7.262511460876464,-5.18389550704956,-3.56885684967041
1759347993765648400,2.8176484375,7.34810417022705,-5.11386510848999,-3.5422213562011717
1759347993775706400,2.827706298828125,7.46960990447998,-4.983830030822753,-3.519775715637207
1759347993785765400,2.837765380859375,7.554155150604248,-4.913051444244385,-3.5619735198974607
1759347993795823400,2.8478232421875,7.624185549163818,-4.885667762756348,-3.656095572662353
1759347993805881300,2.85788134765625,7.693767034912109,-4.859331544494629,-3.788375214385986
1759347993815940400,2.8679404296875,7.6856866043090815,-4.866813424682617,-3.873219735717773
1759347993825998300,2.877998291015625,7.647529015350341,-4.902726449584961,-3.9522283905029294
1759347993836056300,2.888056396484375,7.574206589508056,-4.957643450164794,-4.025401178741455
1759347993846114300,2.8981142578125,7.498639599609374,-4.989067346954346,-3.998017497253418
1759347993856173300,2.90817333984375,7.478139247894287,-4.961683665466309,-3.949834188842773
1759347993866231300,2.918231201171875,7.473500482177734,-4.918588035583496,-3.9190088424682616
1759347993876289300,2.928289306640625,7.487566416931152,-4.828506198120117,-3.9255928970336913
1759347993886348300,2.938348388671875,7.5165961120605465,-4.713584518432617,-3.953275853729248
1759347993896406500,2.948406494140625,7.551461673736572,-4.623801956176758,-3.9610570091247554
1759347993906464300,2.95846435546875,7.601141358184814,-4.618415002441406,-3.9731776550292968
1759347993916522200,2.968522216796875,7.602039183807372,-4.605396530914306,-3.9707834533691404
1759347993926581500,2.97858154296875,7.518691038513183,-4.566640391540527,-3.9911341674804683
1759347993936639200,2.98863916015625,7.493252645874023,-4.630685285949707,-3.9553707801818847
1759347993946697200,2.998697265625,7.4794859863281244,-4.589385307312011,-3.9643490364074703
1759347993956756500,3.008756591796875,7.485621128082275,-4.563198726654052,-3.8928222618103026
1759347993966814200,3.018814208984375,7.4506059288024895,-4.529380628204345,-3.7954081817626952
1759347993976872200,3.0288720703125,7.448959915161132,-4.559158511352539,-3.8961142890930174
1759347993986930400,3.038930419921875,7.416338917541504,-4.488828837585449,-4.061613478851318
1759347993996989200,3.0489892578125,7.492055545043945,-4.534169031524658,-4.138527207183838
1759347994007047200,3.059047119140625,7.5142019104003905,-4.5973161003112795,-4.197484423065185
1759347994017105400,3.06910546875,7.518990313720702,-4.6903906898498535,-4.222773178100586
1759347994027164200,3.0791640625,7.565527608489989,-4.800224691009521,-4.201674275970459
1759347994037222400,3.089222412109375,7.579743180847167,-4.876090956115722,-4.089146797943115
1759347994047280400,3.0992802734375,7.5804913688659665,-4.885817400360107,-3.9802106224060054
1759347994057338000,3.109338134765625,7.595904042053222,-4.849904375457763,-3.867084593963623
1759347994067397400,3.1193974609375,7.662343138122558,-4.717026183319091,-3.6912604095458983
1759347994077455400,3.129455322265625,7.765144171905517,-4.577264661407471,-3.5386300537109374
1759347994087513000,3.13951318359375,7.831732905578613,-4.4397477035522455,-3.461566687774658
1759347994097572400,3.149572265625,7.911938661193847,-4.335450293731689,-3.4406174232482907
1759347994107630300,3.15963037109375,7.961019795227051,-4.281730393981934,-3.497928625488281
1759347994117688000,3.16968798828125,7.941866181945801,-4.263773881530762,-3.644124564361572
1759347994127747300,3.179747314453125,7.914332862854003,-4.3171945060729975,-3.678541213226318
1759347994137805300,3.189805419921875,7.848193041992187,-4.358195209503173,-3.7247792327880855
1759347994147863300,3.19986328125,7.825448126220703,-4.375553171539306,-3.5872622749328613
1759347994157921300,3.20992138671875,7.816918782806396,-4.409820182800293,-3.499125726318359
1759347994167980300,3.219980224609375,7.765144171905517,-4.448426684570312,-3.3912370140075683
1759347994178038300,3.230038330078125,7.736413751983642,-4.487182823944091,-3.3529297874450683
1759347994188096300,3.24009619140625,7.771129676055907,-4.525639688110351,-3.2884359802246093
1759347994198155500,3.250155517578125,7.7979148071289055,-4.472368701171875,-3.334075449371338
1759347994208213200,3.260213134765625,7.805546324920654,-4.459200592041015,-3.4229601860046386
1759347994218271200,3.270271240234375,7.818115883636474,-4.397100986480712,-3.501968840789795
1759347994228330500,3.28033056640625,7.848641954803466,-4.37974302444458,-3.5187282524108885
1759347994238388200,3.29038818359375,7.862258976745605,-4.425232855987549,-3.485209429168701
1759347994248446200,3.3004462890625,7.910891197967529,-4.531625192260742,-3.4084453384399414
1759347994258504400,3.31050439453125,7.9378259666442865,-4.6624084579467775,-3.4542344451904294
1759347994268563200,3.320563232421875,7.903110042572021,-4.746804066467285,-3.614197043609619
1759347994278621200,3.33062109375,7.882011140441894,-4.7761330368041985,-3.6550481094360348
1759347994288679400,3.340679443359375,7.869291944122314,-4.7487493553161615,-3.638288697814941
1759347994298738200,3.35073828125,7.872583971405029,-4.687697212982178,-3.5978865447998043
1759347994308796400,3.36079638671875,7.876324911499023,-4.760720363616943,-3.4554315460205074
1759347994318854400,3.3708544921875,7.849839055633544,-4.857984806060791,-3.4898481948852536
1759347994328913200,3.3809130859375,7.856722385406494,-4.929960493469238,-3.5700539505004882
1759347994338971400,3.390971435546875,7.887996644592285,-5.035455004119873,-3.4899978324890135
1759347994349029400,3.401029296875,7.857620211029052,-4.904073188018798,-3.794360718536377
1759347994359088000,3.411088134765625,7.855076371765136,-4.785410568237304,-3.68362889175415
1759347994369146400,3.421146484375,7.781903583526611,-4.715679444885254,-3.594893792724609
1759347994379204400,3.431204345703125,7.68044928817749,-4.5988124763488765,-3.630806817626953
1759347994389262000,3.441261962890625,7.683142765045165,-4.469226311492919,-3.544615557861328
1759347994399321300,3.4513212890625,7.710077533721924,-4.346822751617432,-3.3927333900451657
1759347994409379300,3.46137939453125,7.671620669555663,-4.30297893371582,-3.366995722198486
1759347994419437300,3.471437255859375,7.695413048553466,-4.32886623916626,-3.3426047927856444
1759347994429496300,3.481496337890625,7.7681369239807125,-4.413112210083008,-3.3295863212585446
1759347994439554300,3.49155419921875,7.865700641632079,-4.544344388580322,-3.3738790519714352
1759347994449612300,3.5016123046875,7.961767983245849,-4.657620054626465,-3.446902202606201
1759347994459671300,3.51167138671875,8.027309253692627,-4.684854098510742,-3.5179800643920895
1759347994469729300,3.521729248046875,8.015338245391845,-4.688146125793457,-3.6062662506103513
1759347994479787300,3.531787353515625,8.013692231750488,-4.650138174438476,-3.643077101135254
1759347994489846000,3.541845947265625,7.967903124999999,-4.571877707672119,-3.6433763763427733
1759347994499904000,3.551904052734375,7.921365830230712,-4.496161080169678,-3.661482526397705
1759347994509961700,3.561961669921875,7.8176669708251945,-4.426878869628906,-3.6553473846435547
1759347994520021000,3.57202099609375,7.7976155319213865,-4.384531427764892,-3.628861528778076
1759347994530079000,3.582078857421875,7.773374240112304,-4.446032482910156,-3.5673604736328124
1759347994540137000,3.592136962890625,7.773224602508544,-4.508431363677978,-3.4974797126770016
1759347994550196000,3.602196044921875,7.818265521240234,-4.505139336395263,-3.453336619567871
1759347994560254000,3.61225390625,7.82036044769287,-4.51995345916748,-3.3870471611022945
1759347994570312000,3.62231201171875,7.776666267395019,-4.564545465087891,-3.399766357421875
1759347994580370000,3.632369873046875,7.770231850433349,-4.600159214782715,-3.423858011627197
1759347994590429200,3.64242919921875,7.799261545562744,-4.627243621063232,-3.4729391456604004
1759347994600487000,3.65248681640625,7.849090867614746,-4.649689261627197,-3.4980782630920406
1759347994610545000,3.662544921875,7.860612963104248,-4.651484912872315,-3.534739476013183
1759347994620604200,3.672604248046875,7.854627458953857,-4.684854098510742,-3.5613749694824217
1759347994630662000,3.682661865234375,7.870638682556152,-4.706401913452148,-3.5761890922546384
1759347994640720000,3.692719970703125,7.87168614578247,-4.733935232543945,-3.5878608253479003
1759347994650779100,3.702779052734375,7.87782128753662,-4.685003736114502,-3.628711891174316
1759347994660836900,3.7128369140625,7.886350630950927,-4.581155239105224,-3.6825814285278318
1759347994670894800,3.722894775390625,7.8624086143493646,-4.490624488830566,-3.733009300994873
1759347994680953900,3.732953857421875,7.816020957183837,-4.496161080169678,-3.781491884613037
1759347994691011800,3.74301171875,7.810634003448486,-4.574571184539795,-3.7210382926940917
1759347994701070000,3.753070068359375,7.8362220336914055,-4.64774397277832,-3.6632781776428223
1759347994711128800,3.76312890625,7.834875295257568,-4.681711708831787,-3.6783915756225585
1759347994721186800,3.773186767578125,7.8535799957275385,-4.698171845245361,-3.6667198425292966
1759347994731245000,3.7832451171875,7.851634706878662,-4.663455921173095,-3.671657883453369
1759347994741303800,3.7933037109375,7.867346655273437,-4.666448673248291,-3.6414310874938964
1759347994751361800,3.80336181640625,7.879766576385498,-4.656123678588867,-3.555389465332031
1759347994761420000,3.813419921875,7.85268217010498,-4.64130955581665,-3.506757244110107
1759347994771478800,3.823478759765625,7.8356234832763665,-4.621108479309082,-3.4835634155273434
1759347994781537000,3.833537109375,7.816020957183837,-4.562600176239013,-3.46036958694458
1759347994791595000,3.843594970703125,7.809885815429687,-4.50079984588623,-3.4715924072265625
1759347994801653800,3.85365380859375,7.810634003448486,-4.4291234336853025,-3.469647118377685
1759347994811712000,3.8637119140625,7.800159371185302,-4.420444452667236,-3.514538399505615
1759347994821770000,3.87377001953125,7.808239801788329,-4.450970523834228,-3.595641980743408
1759347994831829000,3.8838291015625,7.845200289916992,-4.463390444946289,-3.630806817626953
1759347994841887000,3.893886962890625,7.8621093391418455,-4.5319244674682615,-3.705475981903076
1759347994851945000,3.903945068359375,7.8715365081787105,-4.5878889312744136,-3.7569513175964353
1759347994862003000,3.9140029296875,7.9086466339111325,-4.6149733375549316,-3.805583538818359
1759347994872062000,3.92406201171875,7.935132489776611,-4.630236373138428,-3.810222304534912
1759347994882120000,3.934119873046875,7.907000620269775,-4.5596074241638185,-3.7762545684814453
1759347994892178200,3.94417822265625,7.883657154083251,-4.46937594909668,-3.716998077392578
1759347994902237000,3.95423681640625,7.828740153503418,-4.4005426513671875,-3.666420567321777
1759347994912295000,3.964294921875,7.794922055053711,-4.356998108673095,-3.584119885253906
1759347994922354000,3.97435400390625,7.773074964904785,-4.334103555297851,-3.5098996337890624
1759347994932412000,3.984411865234375,7.739705779266357,-4.351910430145264,-3.4798224754333495
1759347994942470100,3.99447021484375,7.764395983886718,-4.383483964538574,-3.4688989303588866
1759347994952528000,4.00452783203125,7.793724954223633,-4.444236831665039,-3.5303999855041504
1759347994962587000,4.0145869140625,7.863755352783203,-4.483292246246338,-3.582024958801269
1759347994972645000,4.02464501953125,7.942315094757079,-4.528033889770508,-3.6605847007751464
1759347994982702800,4.034702880859375,7.9928926048278806,-4.57756393661499,-3.6815339653015133
1759347994992761900,4.044761962890625,7.972092977905273,-4.625747245025634,-3.657442311096191
1759347995002820000,4.054820068359375,7.911789023590088,-4.634575863647461,-3.6201825477600096
1759347995012877800,4.0648779296875,7.832481093597412,-4.600757765197754,-3.615543782043457
1759347995022937000,4.07493701171875,7.791630027770996,-4.539705622863769,-3.6170401580810543
1759347995032995000,4.0849951171875,7.7866919868469235,-4.489128112792969,-3.6195839973449706
1759347995043052800,4.095052734375,7.804798136901855,-4.459948780059814,-3.6076129890441893
1759347995053112000,4.105112060546875,7.855525284576416,-4.450072698211669,-3.5887586509704588
1759347995063170000,4.115170166015625,7.905803519439697,-4.4835915214538575,-3.592349953460693
1759347995073227800,4.125227783203125,7.943362557983398,-4.525490050506591,-3.6264673271179197
1759347995083287000,4.135287109375,7.9560817543029785,-4.535515769958496,-3.637091596984863
1759347995093345000,4.145344970703125,7.922712568664551,-4.53282229309082,-3.6668694801330566
1759347995103402800,4.15540283203125,7.892336135101318,-4.497956731414795,-3.6947020744323726
1759347995113462000,4.1654619140625,7.865999916839599,-4.466981747436523,-3.6906618591308593
1759347995123520000,4.17552001953125,7.861211513519287,-4.426429956817627,-3.6553473846435547
1759347995133578000,4.185577880859375,7.839364423370361,-4.416404237365723,-3.6451720275878903
1759347995143637000,4.195636962890625,7.829937254333496,-4.421940828704834,-3.6394857986450195
1759347995153695000,4.205695068359375,7.8258970390319815,-4.433014011383056,-3.6510078941345214
1759347995163754000,4.21575390625,7.830535804748535,-4.442890093231201,-3.65804086151123
1759347995173812000,4.22581201171875,7.819013709259033,-4.489128112792969,-3.6764462867736816
1759347995183870000,4.235869873046875,7.808239801788329,-4.528931715393066,-3.713706050109863
1759347995193929000,4.245928955078125,7.802403935241699,-4.590881683349609,-3.7491701622009277
1759347995203987000,4.255987060546875,7.823652474975585,-4.619911378479004,-3.772663265991211
1759347995214045000,4.266044921875,7.832930006408691,-4.601954866027832,-3.735403502655029
1759347995224104000,4.27610400390625,7.86540136642456,-4.556165759277343,-3.6776433876037595
1759347995234162000,4.286161865234375,7.866299192047118,-4.535066857147217,-3.6742017227172847
1759347995244220000,4.296219970703125,7.8553756469726554,-4.507832813262939,-3.6692636817932125
1759347995254279000,4.30627880859375,7.848492317199707,-4.492569777679443,-3.6680665809631345
1759347995264337200,4.316337158203125,7.810783641052246,-4.470124137115478,-3.693804248809814
1759347995274395000,4.326394775390625,7.8067434257507315,-4.4373535018920895,-3.689614395904541
1759347995284454000,4.336453857421875,7.815123131561279,-4.4391491531372065,-3.67734411239624
1759347995294512000,4.34651220703125,7.823951750183105,-4.442291542816162,-3.695899175262451
1759347995304569900,4.35656982421875,7.860762600708007,-4.448725959777832,-3.6801872268676754
1759347995314629000,4.366629150390625,7.895777799987792,-4.470722687530517,-3.676745561981201
1759347995324687000,4.37668701171875,7.881711865234375,-4.478653480529785,-3.669712594604492
1759347995334744800,4.386744873046875,7.891737584686279,-4.484040434265136,-3.648613692474365
1759347995344804000,4.39680419921875,7.8624086143493646,-4.4571056655883785,-3.6646249160766597
1759347995354862000,4.406862060546875,7.854926734161377,-4.464138632965088,-3.6544495590209958
1759347995364919800,4.416919921875,7.851933982086181,-4.440346253967285,-3.6547488342285153
1759347995374979000,4.42697900390625,7.849988693237305,-4.428225608062744,-3.630058629608154
1759347995385037000,4.437037109375,7.861061875915527,-4.424933580780029,-3.604769874572754
1759347995395094800,4.4470947265625,7.8782702003479,-4.418349526214599,-3.5621231575012207
1759347995405154000,4.457154052734375,7.876474549102783,-4.425831406402588,-3.571251051330566
1759347995415212000,4.4672119140625,7.877671649932861,-4.434510387420654,-3.586214811706543
1759347995425270000,4.47727001953125,7.894879974365234,-4.481496595001221,-3.63275210647583
1759347995435329000,4.4873291015625,7.902511492156982,-4.560056336975097,-3.6686651313781735
1759347995445387000,4.497386962890625,7.9004165657043455,-4.585045816802978,-3.6809354148864744
1759347995455445000,4.507445068359375,7.8827593284606925,-4.579958138275146,-3.685723818206787
1759347995465504000,4.51750390625,7.848791592407226,-4.553771557617187,-3.7216368431091307
1759347995475562000,4.52756201171875,7.810933278656005,-4.48134695739746,-3.7357027778625485
1759347995485620000,4.537619873046875,7.796268793487548,-4.423437204742432,-3.7597944320678707
1759347995495679000,4.547678955078125,7.808239801788329,-4.399195912933349,-3.7639842849731444
1759347995505736700,4.55773681640625,7.804049948883057,-4.424035755157471,-3.790919053649902
1759347995515795000,4.567794921875,7.833229281616211,-4.4844893470764156,-3.791667241668701
1759347995525854000,4.57785400390625,8.069955970764159,-4.555118296051025,-3.780145146179199
1759347995535912000,4.587911865234375,8.042273014068604,-4.637418978118896,-3.7933132553100584
1759347995545970000,4.597969970703125,7.803750673675537,-4.591330596160889,-3.808725928497314
1759347995556029000,4.60802880859375,7.655459808349609,-4.44962378540039,-3.7256770584106444
1759347995566087000,4.6180869140625,7.687781530761718,-4.318541244506836,-3.6625299896240233
1759347995576145000,4.628144775390625,7.857919486236572,-4.314501029205322,-3.6207810981750486
1759347995586204000,4.638203857421875,7.960720520019531,-4.349965141296386,-3.644274201965332
1759347995596262000,4.648261962890625,7.9104422851562495,-4.377348822784423,-3.6788404884338375
1759347995606321000,4.65832080078125,7.755717002868652,-4.36029013595581,-3.694552436828613
1759347995616379100,4.668379150390625,7.458985634613037,-4.384531427764892,-3.8913258857727047
1759347995626436900,4.678436767578125,7.660248211669922,-4.438999515533447,-3.6329017440795894
1759347995636496000,4.688495849609375,8.112752325439452,-4.480748406982421,-3.6739024475097652
