time,seconds_elapsed,z,y,x
1759485866767435800,0.025435791015625,0.0121158235989511,0.011810264781117439,-0.1464793589245528
1759485866777493000,0.035492919921875,0.005383446604013443,0.06770575500428676,-0.06494980735965072
1759485866787550000,0.045550048828125,0.00041910219490528107,0.08776596173644065,-0.13010149396695195
1759485866797607000,0.05560693359375,-0.05305179122984409,0.12877718656063078,-0.1838557343777269
1759485866807663900,0.065663818359375,-0.1221377485461533,0.10120470450222492,-0.19137772738039494
1759485866817720800,0.075720947265625,-0.15185352624356746,0.061436173215508455,-0.20373086686655878
1759485866827777800,0.08577783203125,-0.15885142230689525,0.015974983245134352,-0.2234901178907603
1759485866837835800,0.095835693359375,-0.17722937504053116,-0.02547521751821041,-0.18872604382783173
1759485866847893000,0.10589306640625,-0.14874620787799359,0.03203063051104545,-0.134310270768404
1759485866857950000,0.115949951171875,-0.01215045652091503,0.06692950993478297,-0.09702274264246225
1759485866868007000,0.1260068359375,0.04066460334360599,0.05535714556276798,-0.11488090928569436
1759485866878063900,0.13606396484375,0.08317278872728347,0.025371172621846197,-0.1345971248857677
1759485866888120800,0.146120849609375,0.09388473687767981,0.03128653414547443,-0.15898915027715266
1759485866898177800,0.156177734375,0.05696224267184734,0.05402852730751037,-0.1322290805801749
1759485866908234800,0.16623486328125,0.11056626095697283,-0.0780348413169384,-0.05829882503785193
1759485866918293000,0.17629296875,0.09723726217597722,-0.07238777534067631,-0.04589695103913545
1759485866928350000,0.186349853515625,0.04727583817690611,-0.05693535466492176,-0.036076033444330094
1759485866938407000,0.196406982421875,-0.021368951243162154,-0.07232289341092109,-0.08531922617144883
1759485866948463900,0.2064638671875,-0.021811434313654898,-0.06497545325756073,-0.11544278095215559
1759485866958520800,0.216520751953125,-0.04280161537230014,-0.0056575873702764505,0.003131283763051033
1759485866968577800,0.226577880859375,-0.09672989717572927,0.11012450853884219,0.09545030569396913
1759485866978634800,0.236634765625,-0.03689809041693806,0.12830781548321246,0.08501892805062233
1759485866988693000,0.24669287109375,0.02863485059291124,0.06676935093700885,0.056238969898596405
1759485866998750000,0.25675,0.11682605200409889,-0.013342881175875662,0.030822423765063285
1759485867008807000,0.266806884765625,0.1453534966997802,-0.12585866876542567,0.04868548577912152
1759485867018863900,0.27686376953125,0.16482465149760245,-0.21824293795228003,0.12813508926481007
1759485867028920800,0.2869208984375,0.16853563484475015,-0.16369184807538986,0.201867776408419
1759485867038977800,0.296977783203125,0.1461351485967636,-0.08835749788880348,0.2691279796022922
1759485867049034800,0.30703466796875,0.13912439305186272,-0.06305763693749904,0.3521376136571169
1759485867059093000,0.317093017578125,0.04228723610937595,-0.054120881766080854,0.4165376051142812
1759485867069150000,0.32714990234375,-0.025082418808341025,-0.1133832180738449,0.45034825090989467
1759485867079207000,0.33720703125,-0.0597480739980936,-0.005880290210247039,0.36116065887250004
1759485867089263900,0.347263916015625,-0.12865224500671027,0.05284370143711566,0.036998116725310684
1759485867099320800,0.35732080078125,-0.10844839202016592,0.2797995226770639,-0.02756137614250183
1759485867109377800,0.367377685546875,-0.0721960521608591,0.38464755211770535,0.08963416676111519
1759485867119435800,0.377435791015625,0.15292144773602484,0.4237228404432535,0.09739924780465661
1759485867129493000,0.387492919921875,0.3983423154711723,0.4344108231961727,-0.02864171872511506
1759485867139550000,0.397550048828125,0.5914904135249555,0.4275602266490459,-0.22735358838588
1759485867149607000,0.40760693359375,0.6541073209576308,0.5240823262929916,-0.3995169122084975
1759485867159663900,0.417663818359375,0.7755937659882008,0.5696762027323246,-0.33560996496528384
1759485867169720800,0.427720947265625,0.8594948689900338,0.41751930962800976,-0.3215915226154029
1759485867179777800,0.43777783203125,0.7202579554744064,0.343338221129775,-0.4366980573505163
1759485867189835800,0.447835693359375,0.6449111841976642,0.2385521510094404,-0.13591580626890062
1759485867199893000,0.45789306640625,0.5814939201675355,0.5246195019096136,0.0643514761403203
1759485867209950000,0.467949951171875,0.4113279076419771,0.4285954149156809,0.019083178393542767
1759485867220007200,0.478007080078125,0.12015417351350187,0.3550292434453964,-0.05783084219992161
1759485867230064000,0.488064208984375,0.04771437572464347,0.4587701884269714,-0.08910239797197282
1759485867240122000,0.4981220703125,0.15086904525086284,0.38050212287604807,-0.22742826105728745
1759485867250179300,0.508179443359375,0.34024361611530185,0.3163748108804226,-0.4927560446590185
1759485867260236300,0.518236328125,0.5906223985187709,0.31960780145227907,-0.5226265745267271
1759485867270293200,0.528293212890625,0.7540026964269578,0.22905250125825405,-0.4451232828032225
1759485867280350200,0.53835009765625,0.778034729399532,0.21675006904602048,-0.32444976159073413
1759485867290407200,0.5484072265625,0.7499993060044944,0.0737730922192335,-0.12379567182101309
1759485867300465200,0.558465087890625,0.5918523787051438,-0.08511690853238105,0.17867884319648145
1759485867310522000,0.568522216796875,0.30704978704378005,-0.39836628086864945,0.11534523886181414
1759485867320579300,0.578579345703125,0.20285525307580826,-0.253879484000802,0.1691204489953816
1759485867330636300,0.58863623046875,0.18434461387321352,-0.137773562964797,0.24837219182141124
1759485867340693200,0.598693359375,0.13970248520076273,-0.11328268030881881,0.2479607614763081
1759485867350750200,0.608750244140625,0.21239771905541419,-0.17622984260916708,0.1891288890076801
1759485867360808200,0.61880810546875,0.38946240505352614,-0.24912147581875324,0.2154283554555848
1759485867370865200,0.628865234375,0.39243623323254284,-0.06480711095333098,0.35009127558656034
1759485867380922000,0.638922119140625,0.3657164955459535,0.1334258891493082,0.3574598315931856
1759485867390979300,0.648979248046875,0.34314810538515444,0.3634270694345236,0.5037141861228273
1759485867401036300,0.659036376953125,0.4249993631850928,0.7305436410367488,0.45386926464289423
1759485867411094300,0.66909423828125,0.4226525077980011,-0.06085866558849811,0.3942828840125352
1759485867421151200,0.679151123046875,0.5161982219796627,-0.06937398047745227,0.5579134668873623
1759485867431208200,0.689208251953125,0.5935801523458212,0.18473522062599657,0.5918265136115253
1759485867441265200,0.69926513671875,0.6343903016399591,0.607596475803852,0.4699373695315793
1759485867451322000,0.709322021484375,0.5411649054538459,0.11596154412925243,0.3097877241076901
1759485867461380400,0.71938037109375,0.47159226059913634,-0.15422083989679813,0.3410561015419662
1759485867471437300,0.729437255859375,0.6032850423455238,0.015457681372761725,0.26311072860676793
1759485867481494300,0.739494384765625,0.7009031205326318,0.1690659423291683,0.14271255373694003
1759485867491551200,0.74955126953125,0.7611859589945524,0.33718495919704433,-0.027919286202080545
1759485867501608200,0.759608154296875,0.6205529880106448,0.08853986871838569,-0.07260119889564812
1759485867511666200,0.769666259765625,0.633161636627838,0.14017711697518825,-0.1407749367378652
1759485867521723400,0.779723388671875,0.7459796950995922,0.46688452129960056,-0.19946520877871662
1759485867531780400,0.7897802734375,0.7569985903073102,0.29560967074930666,-0.3946482101935893
1759485867541837300,0.79983740234375,0.8490952016592025,0.3677753277719021,-0.407151717935875
1759485867551894300,0.809894287109375,0.9122130443513393,0.2830336822926998,-0.6053111413456499
1759485867561952000,0.819951904296875,0.9430115027189254,0.2984112841665745,-0.7782757716137916
1759485867572009000,0.830009033203125,0.7851964377224445,0.26352351065874097,-0.7957654702708125
1759485867582066200,0.840066162109375,0.5793284126967191,0.05915712236762046,-0.8393662731967866
1759485867592123400,0.850123291015625,0.6024678807437419,0.4437216723769903,-0.692241675171256
1759485867602181000,0.86018115234375,0.5578536629915237,0.28318098180890083,-0.822672766418755
1759485867612238000,0.870238037109375,0.08323010840509086,-0.5535673639744519,-1.3470302563913166
1759485867622295000,0.880294921875,-0.015990728803537784,-0.350194078373909,-1.2437059293866157
1759485867632352000,0.89035205078125,-0.0436549990649335,-0.10920213299691676,-1.0825759676884859
1759485867642409000,0.900408935546875,0.004314374334085732,-0.15886369726657867,-1.0998277659364044
1759485867652467200,0.91046728515625,-0.014544073659181594,-0.02901566660404205,-0.9794463595382868
1759485867662524200,0.920524169921875,-0.041245033580064774,0.0332440979540348,-0.8410942660331726
1759485867672581000,0.9305810546875,-0.007874103509122505,-0.031467151409387585,-0.8005829535551369
1759485867682638000,0.94063818359375,0.02226268064591568,-0.06816226660013198,-0.7412276782669126
1759485867692696000,0.950696044921875,0.09840952082574367,-0.01925415104627609,-0.7822169835202395
1759485867702753000,0.9607529296875,0.20359832652807233,0.06064531509876251,-0.7367106392338871
1759485867712810200,0.970810302734375,0.25255554192066193,0.20536475167870522,-0.6865420752901583
1759485867722867200,0.9808671875,0.13491116840415635,0.25645254935920236,-0.6818662654988468
1759485867732925200,0.99092529296875,-0.028707039046287536,0.24593641604185104,-0.593471248611249
1759485867742982100,1.000982177734375,-0.09288288462506607,0.20655659181177616,-0.3805334313297644
1759485867753039000,1.0110390625,-0.12747253370285033,0.2810118210762739,-0.046005608178535475
1759485867763096000,1.021095947265625,-0.12669044341444968,0.18689853613972662,0.1465665257513523
1759485867773153000,1.031153076171875,-0.037373197115398944,0.20092121627330778,0.2158560610820539
1759485867783211300,1.041211181640625,-0.06887653408301994,0.2913806548774242,0.14913810240556485
1759485867793268200,1.051268310546875,-0.06902618995308876,0.3722527654469013,0.04286128683739807
1759485867803325200,1.0613251953125,-0.22656302253007887,0.40479309904575345,-0.22136866875737904
1759485867813382100,1.071382080078125,-0.39465518792364745,0.4940460844695568,-0.36239294061381366
1759485867823440100,1.081440185546875,-0.6064087273240089,0.4969242702543735,-0.5484358097722754
1759485867833497300,1.091497314453125,-0.8260042489290237,0.4721422956973314,-0.7100342292323708
1759485867843554300,1.10155419921875,-0.941250776656717,0.40115503480434417,-0.8422792380340397
1759485867853611300,1.111611328125,-1.0489525150280445,0.3446218311995268,-0.8939405247535556
1759485867863669200,1.121669189453125,-1.0477391206502913,0.2620470083653927,-0.9856291398264467
1759485867873726200,1.131726318359375,-0.9019885143917054,0.09237725492417811,-1.056577603079006
1759485867883783200,1.141783203125,-0.7375486244279891,-0.08233692242503166,-1.08323998455517
1759485867893840100,1.151840087890625,-0.38642267203144726,-0.07704933741092682,-0.9604640842359512
1759485867903898000,1.161898193359375,-0.11911387068033218,-0.11270458815991878,-1.0440187849529088
1759485867913955300,1.171955322265625,0.028832199795916676,-0.07643909655809401,-1.1117413449615239
1759485867924012300,1.18201220703125,0.003165843619778752,-0.02219312710762024,-1.2278655323065817
1759485867934069200,1.1920693359375,-0.1006185751773417,-0.06719546739459037,-1.3642457412168383
1759485867944127000,1.202126953125,-0.25366722948960957,-0.0773813458442688,-1.4882663809001444
1759485867954184200,1.21218408203125,-0.44744449229240413,-0.12207388952970503,-1.4677107918664811
1759485867964241200,1.2222412109375,-0.19218743632808327,-0.21707564773857593,-1.2073925069898366
1759485867974298000,1.232298095703125,0.04372559834942221,-0.4470061008751392,-1.2068179219722748
1759485867984356000,1.242356201171875,0.5496494598783552,-0.5773106431335211,-1.005666257943958
1759485867994413000,1.2524130859375,1.1520634184777736,-0.5644803876549005,-0.7087626018613576
1759485868004470000,1.262469970703125,1.4558580031178892,-0.5786883612275123,-0.6056157137827948
1759485868014527000,1.27252685546875,1.6337047794044017,-0.48667935509383675,-0.4829341406835243
1759485868024585200,1.282585205078125,1.8297617506422101,-0.2869301052093506,-0.45371867719106374
1759485868034642200,1.29264208984375,2.12659117244482,-0.13889701403677462,-0.6062236165480688
1759485868044699100,1.30269921875,2.404735767521709,0.03412146531045437,-0.39944852314740414
1759485868054757000,1.312757080078125,1.5545675298035144,0.18850538681447504,-0.8304744531456381
1759485868064814000,1.32281396484375,1.0602493503943085,0.09454466209113598,-1.3879201929233966
1759485868074871000,1.33287109375,0.5089677592694759,-0.08992693916261196,-1.9079637652195989
1759485868084928300,1.34292822265625,-0.031696137859672305,0.07212357144653797,-2.1001114540591836
1759485868094986200,1.352986328125,-0.2651905670881271,0.3126286100894213,-1.9783293870829044
1759485868105043200,1.363043212890625,-0.1642038892507553,0.6923714390307665,-1.9431644040688871
1759485868115100200,1.37310009765625,-0.10022110029235481,1.020096495965123,-2.154687239985913
1759485868125158100,1.383158203125,0.09723755443692207,1.0889648650079964,-1.9361434193909166
1759485868135215400,1.39321533203125,0.2342072536729276,1.2076344990521668,-1.5318310895994305
1759485868145272300,1.403272216796875,-0.000445551810413599,1.0530115080952644,-1.336620798318833
1759485868155329300,1.413329345703125,0.4020446771204471,0.978389690092206,-0.8611046422742307
1759485868165387300,1.42338720703125,1.7701849415577946,1.0203326428085564,-0.48807552215997124
1759485868175444200,1.4334443359375,2.325574990914762,0.8348316985070705,-0.5302890719786286
1759485868185501200,1.443501220703125,2.7420354391396042,0.5874304706096649,-0.6769144883103668
1759485868195559200,1.45355908203125,3.056114248037338,0.35937048752009865,-0.9948197236284613
1759485868205616000,1.4636162109375,2.6906337532043456,0.16837912910878658,-1.7782034128405153
1759485868215673000,1.473673095703125,2.2242077893272043,0.009743979901075362,-2.183588924821466
1759485868225730300,1.483730224609375,1.647579867760837,-0.06453121662139892,-2.237257825036347
1759485868235788000,1.4937880859375,1.5528849835440515,-0.19093056813478468,-1.8884395650602877
1759485868245845000,1.503844970703125,1.322865390819311,-0.3856336405456066,-1.3511581499762833
1759485868255902200,1.513902099609375,1.6372975431993604,-0.7151432428091764,-0.7279670685470104
1759485868265960200,1.523960205078125,2.6228873739287257,-1.0036550642520188,-0.43001711828187106
1759485868276017200,1.53401708984375,2.878193968123197,-1.3879331985354422,-0.7085151299063116
1759485868286074000,1.54407421875,2.8832410223796963,-1.850561815956235,-1.1480875005841253
1759485868296131000,1.554131103515625,3.0554122372478245,-2.1612837156414986,-0.99992983318381
1759485868306189000,1.56418896484375,2.3311390547826885,-2.0170961939811707,-1.2609139615580438
1759485868316246300,1.574246337890625,2.5282629245996473,-1.758448764926195,-1.5106437785334885
1759485868326303200,1.58430322265625,2.903665386249125,-1.7614824335336685,-1.8370346642546356
1759485868336361200,1.594361328125,2.893198645031452,-1.8144488845676183,-1.8606587009482085
1759485868346418200,1.604418212890625,3.5241923630356786,-2.37892693413496,-2.5339634743288157
1759485868356475100,1.61447509765625,4.539857890816033,-2.2210580931246278,-2.3259214662648735
1759485868366533400,1.624533447265625,4.53361461251229,-3.1579467290490864,-2.897617045995593
1759485868376590300,1.63459033203125,5.143464127939939,-3.853876737344265,-3.1229446815118194
1759485868386647300,1.644647216796875,6.474268495064973,-4.11310342759192,-3.283825856080651
1759485868396705000,1.654705078125,7.934850750225782,-3.7496494701504703,-3.711527829287946
1759485868406762200,1.66476220703125,8.718855932337044,-3.7757127166897058,-4.437353794153035
1759485868416819200,1.674819091796875,9.653758947402238,-2.1766168938517567,-3.924238852076232
1759485868426877200,1.684877197265625,10.735742867481708,-0.5283171873837709,-3.2540167010113596
1759485868436934100,1.69493408203125,10.64341880404949,0.1561392407387495,-3.6599265291273593
1759485868446991000,1.7049912109375,9.072642482244968,0.4551368003606796,-4.460121798539161
1759485868457048000,1.715048095703125,6.523618509167433,-0.13607318878769875,-5.536226597452163
1759485868467106000,1.72510595703125,4.369688078898191,-1.8066385030776262,-7.472348974055051
1759485868477163000,1.7351630859375,2.037218944555521,-2.3071400472968815,-9.466896067097782
1759485868487220200,1.74522021484375,-1.2370353655815123,-1.511391235899925,-9.616522564941643
1759485868497278200,1.7552783203125,-2.440744800144434,0.7292933487147092,-7.8875763733536
1759485868507335200,1.765335205078125,-3.9376255723938343,2.148669733262062,-6.915417686605453
1759485868517392100,1.77539208984375,-3.868533915989101,1.4981751959741114,-7.9728528563618655
1759485868527450000,1.7854501953125,-1.7077742242217062,1.1891945869982241,-7.466301510584354
1759485868537507000,1.795507080078125,0.38652087170891464,0.04910977560579777,-5.854164419865608
1759485868547564300,1.805564208984375,0.8776257150948047,-2.1364690078586337,-4.221653234159946
1759485868557622300,1.815622314453125,0.7627659947276115,-3.789104697704315,-2.3965882630318402
1759485868567679200,1.82567919921875,1.6390215905129908,-5.7047629629492755,-0.6921679523479193
1759485868577736200,1.835736083984375,3.143609576138854,-7.985493142226338,0.9126619571626186
1759485868587794200,1.845794189453125,4.196660247200727,-10.628908632659911,2.6887799420312044
1759485868597851400,1.855851318359375,4.855259765011072,-12.504273465961218,2.3710636534139513
1759485868607908400,1.865908447265625,4.630424589186907,-13.309776194131373,0.0871722336269915
1759485868617966000,1.875966064453125,2.9405723906248804,-14.423423664975166,-2.6695234528973697
1759485868628023000,1.88602294921875,0.1689706652611494,-14.998476300048827,-6.004491759455203
1759485868638080000,1.896080078125,-2.0950392653614283,-15.533810672718285,-6.896899448618292
1759485868648138200,1.90613818359375,-4.398393364378809,-14.77716929835081,-6.760178609576821
1759485868658195200,1.9161953125,0.2645779881477356,-11.558297268217801,-1.3075449259601533
1759485868668252200,1.926252197265625,-0.2243859707519412,-8.27117178606987,-0.18542692921720444
1759485868678310100,1.93631005859375,-1.443603940092027,-6.124899177077412,1.3023276297032833
1759485868688367000,1.9463671875,-2.9814924300342796,-4.295530371275544,1.1936066312868148
1759485868698424000,1.956424072265625,-4.8715457139015195,-2.8576585450947283,-0.3105889209553599
1759485868708482300,1.966482421875,-4.234462446850538,-0.289034968534112,0.7911626526504755
1759485868718539300,1.976539306640625,-5.844933650183678,1.6545850703477858,-0.6408936191193759
1759485868728597200,1.98659716796875,-5.3297074150413275,3.476880576762557,0.5831850515922531
1759485868738654200,1.996654296875,-1.4945307019919156,4.610670671924948,0.8428313189588487
1759485868748711200,2.006711181640625,-1.6195687020242213,5.515184393945336,2.24136862135604
1759485868758769200,2.01676904296875,-2.133911724591255,6.14556787109673,2.1219269800260663
1759485868768826400,2.026826416015625,-1.90361126909852,6.895682474043965,2.417139175890386
1759485868778883300,2.03688330078125,-3.7225402216896413,7.740866055217385,2.442157443421334
1759485868788941000,2.046941162109375,-4.080977520012855,7.736875524276495,2.0600189515151084
1759485868798998000,2.056998046875,-2.543910867847502,8.443717971730232,2.6991230568692086
1759485868809055000,2.067054931640625,-1.0717208847403525,9.168355019071697,3.500132857534289
1759485868819113200,2.07711328125,-1.0368915634214877,9.463645540869235,3.4833623399972913
1759485868829170200,2.087170166015625,-2.2124819879591464,9.781142049255967,3.664740651410818
1759485868839227100,2.09722705078125,-3.5785166584193706,10.324129567027091,3.9103997118160128
1759485868849285000,2.10728515625,-5.156175140953064,10.30466031192541,3.4747453182995316
1759485868859342000,2.117342041015625,-5.85347000786066,10.206408027487992,3.559648876342177
1759485868869400300,2.127400390625,-6.840759628245234,10.277235713905096,2.8587752741649743
1759485868879457300,2.137457275390625,-7.6380381334275,10.022558357524872,2.018995890122652
1759485868889514200,2.14751416015625,-6.418889137670398,10.070867922663687,1.7738436101958155
1759485868899572200,2.157572265625,-4.551935282100737,10.790012217807769,1.8041814653143287
1759485868909629200,2.167629150390625,-2.8766090370193123,12.091800918328762,1.6435459360696374
1759485868919686100,2.17768603515625,-0.5978031038030982,13.407494225561617,1.888205756304413
1759485868929744100,2.187744140625,0.3862897663667798,12.959869700527191,1.5921129782132803
1759485868939801300,2.19780126953125,-0.47820612578094,10.067010078191757,0.6544708935730159
1759485868949859000,2.207859130859375,1.0325853906601667,6.509780537950992,0.2924978223390877
1759485868959916000,2.217916015625,7.9369485992878674,3.792499016317725,-1.3396645499289035
1759485868969973000,2.227972900390625,5.011134217333793,-0.7840536974281073,-4.52349741538465
1759485868980031200,2.23803125,-19.30756699464321,-9.963783512473105,-2.5498335358947513
1759485868990088200,2.248088134765625,-13.05785895011425,-16.57488741286993,8.082254311323165
1759485869000145200,2.258145263671875,-9.755807116991281,-21.147885064482686,14.309776243007182
1759485869010203100,2.268203125,-5.917661032742261,-20.686599093842506,7.993289495190978
1759485869020260000,2.278260009765625,-5.062023862093687,-11.192296548902988,2.9873847029432654
1759485869030318300,2.288318359375,-4.752117370444536,-2.7570652504891155,3.044012306833267
1759485869040375300,2.298375244140625,-3.2542221604555843,0.8871662813782691,2.5582711093723773
1759485869050432300,2.308432373046875,-3.593872632983327,1.373076990187168,2.7968402115166184
1759485869060490200,2.318490234375,-3.526481350755691,0.8893804502964019,3.9821336994230743
1759485869070547200,2.328547119140625,-3.67132002980113,0.5625614022910594,4.863504154004156
1759485869080605200,2.338605224609375,-3.725951783698797,0.6241022049248218,4.353288148239255
1759485869090662100,2.348662109375,-1.0220618046887218,-0.015528993043303489,3.816928524175286
1759485869100719000,2.358718994140625,-0.4530706616111099,-3.252758517643809,2.4209593187004326
1759485869110777000,2.368777099609375,-5.304276036664843,-12.819126181840895,-3.488314409446716
1759485869120834000,2.378833984375,-6.499596997588872,-24.274174672508238,-9.887606281721592
1759485869130891000,2.38889111328125,-2.725881592196226,-30.09983312885761,-14.758568642777204
1759485869140949200,2.39894921875,2.7136381966948506,-25.316248607003686,-15.319492214733362
1759485869151006200,2.409006103515625,6.745575499206781,-19.45842508010864,-14.720194780719279
1759485869161064200,2.419064208984375,12.000683308076859,-12.750042708742617,-12.643432930326462
1759485869171121200,2.42912109375,15.993969685155152,-8.957129850926995,-11.735813058984279
1759485869181178000,2.43917822265625,18.393461268413066,-6.661387395957112,-11.338631603986023
1759485869191236400,2.449236328125,18.270619317120314,-4.219306963294744,-9.663778821635246
1759485869201293300,2.459293212890625,15.251913300979137,-2.5893846250385044,-8.281258880320191
1759485869211351000,2.46935107421875,10.795160686612128,-0.6102677408397197,-6.924520445993542
1759485869221408500,2.479408447265625,7.797824790757894,1.5299813700795173,-3.9579520288467407
1759485869231465500,2.489465576171875,6.593992606598138,4.040990377539396,-0.18580431116223334
1759485869241523500,2.4995234375,5.5216229025602335,6.12770137501657,2.0495862586975098
1759485869251580400,2.509580322265625,4.849575581894815,7.637056136652827,3.3002032826468346
1759485869261638400,2.519638427734375,5.273035095226764,8.548246852219105,2.6753125576928256
1759485869271695600,2.529695556640625,4.67448760279715,9.06803002001345,1.0271193072739988
1759485869281752600,2.539752685546875,2.839876220166683,9.492183068567513,-0.8761674060452729
1759485869291810600,2.549810546875,2.3121653281129895,10.16358946098089,-1.3032199023678899
1759485869301867500,2.559867431640625,2.6879575197324157,10.931253749144076,-1.0660931079864502
1759485869311925500,2.569925537109375,3.109407446807623,11.191731900757551,-1.6054245874680577
1759485869321982700,2.579982666015625,4.087715888357162,11.379490853118895,-1.8095586283080278
1759485869332039700,2.590039794921875,4.754005376148224,11.309022063142061,-2.0640759718209503
1759485869342097400,2.600097412109375,4.002259957128763,11.004416015988587,-2.5261177292644974
1759485869352154400,2.610154296875,1.636528020131588,10.107933624732494,-3.9474560615345835
1759485869362212400,2.62021240234375,-1.32307231156826,7.269154552152752,-5.962290448063611
1759485869372269300,2.630269287109375,-0.44232177898380903,2.3175790237247944,-9.617196518680453
1759485869382326500,2.640326416015625,7.338194770631194,-2.4048306061983107,-9.184787682956456
1759485869392384500,2.650384521484375,6.001176351296901,-5.238413863700628,-7.461027954095601
1759485869402441500,2.66044140625,4.7472670078039165,-6.754632081365585,-6.219867617538571
1759485869412499500,2.67049951171875,5.980986380705237,-9.395926926383376,-2.8340713332802054
1759485869422556400,2.680556396484375,4.972905901226401,-15.830363177275657,0.4295226858284324
1759485869432614700,2.69061474609375,1.7190360613398252,-28.19879492511749,5.078548295915127
1759485869442671600,2.700671630859375,1.6897241882681846,-37.66175306824446,8.982675211071967
1759485869452728600,2.710728515625,2.965146859911084,-31.933906166827676,4.960436880275607
1759485869462786600,2.72078662109375,-1.6200936026811599,-21.18363442325592,-0.19693110545752568
1759485869472843500,2.730843505859375,-4.331272423525155,-15.795067407488823,-0.6790127757638692
1759485869482901500,2.740901611328125,-2.443253275834024,-12.028512395244837,1.4886743771791457
1759485869492958500,2.75095849609375,-1.7960291385188698,-10.455609582805632,1.7988047407120464
1759485869503015400,2.761015380859375,-3.4804321317642923,-8.978376637095213,1.0445326527591794
1759485869513073400,2.771073486328125,-5.438033349725604,-5.846313706365227,-0.3133099434170872
1759485869523130400,2.78113037109375,-6.904372560977936,-2.9002620075464245,-1.4898397676967083
1759485869533188600,2.791188720703125,-4.823294600951671,-0.4498392784744501,-1.4334784135274588
1759485869543245600,2.80124560546875,-0.8840572094470261,2.0546505563497544,-1.733151826584339
1759485869553303600,2.811303466796875,-3.9376463229209184,4.979961664956808,-0.8935964605562389
1759485869563360500,2.821360595703125,-4.691742396719754,7.026629405859112,1.631480965875089
1759485869573417500,2.83141748046875,-4.087893290750682,8.544104345586895,2.373030423442274
1759485869583475700,2.841475830078125,-5.287002830302715,8.998909137514232,1.0239100629039108
1759485869593532700,2.85153271484375,-6.241782512226701,8.921263003253936,1.4685080797240138
1759485869603590400,2.86159033203125,-5.773564696496725,8.229569609615206,2.928234594838321
1759485869613647400,2.8716474609375,-3.8510236860007043,7.932301650264859,3.3440897706463932
1759485869623705600,2.88170556640625,-2.7150784586310386,8.725838630831241,3.7876732035964724
1759485869633762600,2.891762451171875,-2.2599165238291024,9.936049117851256,4.778436929832399
1759485869643819500,2.901819580078125,-3.1474984002709387,10.194491964244841,4.3079239889025684
1759485869653877500,2.91187744140625,-4.1618952232897275,10.470920549184083,3.298932239797711
1759485869663934500,2.9219345703125,-4.958350137129425,11.002245101690292,3.411400096592307
1759485869673992400,2.931992431640625,-5.831203230994939,11.353658492726087,4.177376285538077
1759485869684049700,2.942049560546875,-6.92430125028491,11.3094335665524,4.296946667814255
1759485869694107600,2.952107666015625,-6.426453435444832,11.616853502082824,3.748262984228134
1759485869704164600,2.96216455078125,-5.177112715041637,11.970998948431014,2.5347069861724973
1759485869714221600,2.9722216796875,-3.3568256258398295,12.079449970799685,1.8076564479485153
1759485869724279300,2.982279296875,-0.9998661933630705,11.444651015293598,0.36125202695038167
1759485869734336500,2.99233642578125,2.8455542658030986,8.751730612456798,-1.0431661867115647
1759485869744394500,3.00239453125,1.7814719131171701,5.030803963443637,0.053483899036794895
1759485869754451500,3.012451416015625,2.87296717338562,1.4054928206235169,0.2235650828231126
1759485869764509400,3.022509521484375,4.173131779836118,-3.2624218335241078,0.12355638317242264
1759485869774566400,3.03256640625,-9.456491577461362,-5.178124522432684,3.295364318183064
1759485869784624600,3.042624755859375,-11.494711808013916,-7.06958533501029,9.2494410646528
1759485869794681600,3.052681640625,-8.865784861660003,-15.90535032145977,17.419616236013173
1759485869804738600,3.062738525390625,-10.976909584903716,-19.030285007745025,17.57596765819788
1759485869814796500,3.072796630859375,-8.203954691365361,-12.784604319036006,9.425810607993602
1759485869824853500,3.082853515625,-6.5755234684497115,-5.1659652980834245,3.587741582882404
1759485869834911500,3.092911376953125,-5.875018407323956,-0.37862405404448507,0.6740338913727552
1759485869844968400,3.102968505859375,-6.400721028295159,1.4162456853061913,0.34884091019928454
1759485869855026400,3.1130263671875,-6.916624139785767,1.255259004536271,1.315190910668671
1759485869865083400,3.12308349609375,-8.50142606433332,0.23041911343634128,2.1796128607973455
1759485869875141600,3.1331416015625,-11.786562418490648,-2.5519723014891147,2.1500499355740845
1759485869885198600,3.143198486328125,-10.78650508646965,-9.380339481151104,0.8718009544640779
1759485869895255600,3.153255615234375,0.6348369494289159,-23.77724455703497,1.029914125624299
1759485869905313500,3.1633134765625,2.8555390687227247,-31.41129215952158,-5.753787398359179
1759485869915370500,3.17337060546875,4.331172762542963,-28.992178176426886,-11.659665054327249
1759485869925428500,3.183428466796875,6.610847879809141,-22.62511216497421,-15.341823289006948
1759485869935485700,3.193485595703125,14.885905567401647,-15.5696290050745,-15.526553248935937
1759485869945543400,3.20354345703125,20.981160716843604,-11.126546019619703,-14.786907433032988
1759485869955600400,3.213600341796875,19.564608157545326,-8.315560378372668,-14.91251417286396
1759485869965658400,3.223658447265625,17.260245173746345,-4.057622947910428,-12.109722359466552
1759485869975715300,3.23371533203125,14.671651406824587,-1.3303209675222634,-9.401205159047246
1759485869985772500,3.2437724609375,12.463826889282464,1.3051689906090498,-8.542776896375416
1759485869995830500,3.25383056640625,11.364216127097606,2.762597750174999,-7.394743171805143
1759485870005887500,3.263887451171875,9.874999313604832,4.560583575719595,-4.184294102102518
1759485870015945500,3.273945556640625,7.866849811667204,6.127773855730891,-0.7819989568553865
1759485870026002400,3.28400244140625,4.759334462216496,6.807427852007747,0.03354673416242003
1759485870036060700,3.294060791015625,1.0595616603910922,7.74719759632647,-0.4584760277859866
1759485870046117600,3.30411767578125,-0.2584267720416188,8.843608101165294,-0.7708705368585884
1759485870056175400,3.31417529296875,-0.4462017987549305,9.64219125920534,-1.9100147064000368
1759485870066232300,3.324232421875,-0.7050795294344425,9.881891995728015,-3.1092922959953544
1759485870076290600,3.33429052734375,0.5604958480633795,10.504188028013706,-3.338313817593455
1759485870086347500,3.344347412109375,5.20773230971098,11.119551630687713,-3.01533244805485
1759485870096404500,3.354404541015625,7.815861967229843,11.520311528694629,-2.829585712298751
1759485870106462500,3.36446240234375,7.421561036103963,11.623818664920329,-3.198227301511168
1759485870116519400,3.37451953125,5.641503665959835,11.148720442026853,-4.18089510731399
1759485870126577700,3.38457763671875,2.1423685872912404,9.244083337011933,-5.786356373530626
1759485870136634600,3.394634521484375,-1.1036053847789764,5.470712215012312,-8.422799102342129
1759485870146692600,3.404692626953125,4.0699920156180855,0.4652671492308378,-10.917924311971664
1759485870156749600,3.41474951171875,4.907840431597829,-3.652093935805559,-8.141396236121654
1759485870166807300,3.424807373046875,2.6618139014333484,-4.688822417619824,-2.4301570628955957
1759485870176864500,3.434864501953125,4.813943419760466,-5.409172581422329,-0.8870502537831664
1759485870186922500,3.444922607421875,2.1375303534798324,-14.36654968510866,-0.06056640464365482
1759485870196979500,3.4549794921875,-0.8163013316906989,-32.537836521339415,4.439140969830751
1759485870207036400,3.465036376953125,-0.7852689184367656,-46.16408923316001,11.940119826042652
1759485870217094000,3.475093994140625,-0.7367191148012876,-37.6970371475935,6.729136405581236
1759485870227150800,3.48515087890625,-2.0782038658946753,-25.467239963459967,-0.3030323680959642
1759485870237209000,3.495208984375,-0.49245735397338863,-18.79832801721692,0.8459105072084814
1759485870247266000,3.50526611328125,0.44325230129957194,-13.23540513601899,5.319422167870402
1759485870257324000,3.515323974609375,-0.8665165843203664,-9.616281741923093,6.429568352594972
1759485870267381000,3.525381103515625,-3.629848201727867,-7.902006465244293,4.660975794795156
1759485870277439200,3.535439208984375,-5.524161481127143,-6.376276322868466,0.8123973099894821
1759485870287496200,3.54549609375,-6.853763486725091,-4.538392786699533,-3.2236879059821364
1759485870297554000,3.555553955078125,-3.5763214864626525,0.9269447495371103,-1.3763963438682256
1759485870307611000,3.56561083984375,-3.5910879707008596,5.727313232931494,-1.435022135838121
1759485870317668900,3.5756689453125,-4.357775522786379,8.874587761318683,-0.5416138547977433
1759485870327726000,3.58572607421875,-4.793676292279362,9.957440280926226,1.0716795298166573
1759485870337784000,3.5957841796875,-6.007670389491319,11.58588319427967,1.4113570364817976
1759485870347841000,3.605841064453125,-7.484410583248734,12.700657623326778,2.7163541776552793
1759485870357898000,3.61589794921875,-8.494764268356562,11.572039377844334,3.0332518433660267
1759485870367956000,3.6259560546875,-6.870914528012276,9.707658295372127,3.265314047834277
1759485870378013000,3.636012939453125,-4.493610226643085,9.803961783829331,4.04700744587183
1759485870388071200,3.6460712890625,-3.8018116190642117,10.102236874395608,4.52304061152786
1759485870398128000,3.656128173828125,-4.250699880424142,9.49922071211934,4.05817941274941
1759485870408185900,3.666185791015625,-4.487279854577779,9.537142154234648,4.286557375746965
1759485870418242800,3.676242919921875,-4.928438982990384,10.75800730625987,4.688780332043767
1759485870428301000,3.686301025390625,-5.999952946981788,11.696126360762118,6.126267542821169
1759485870438358000,3.69635791015625,-6.489952386409044,11.917101354026794,6.09245236698091
1759485870448416000,3.706416015625,-5.776627591198682,11.73366669460535,4.686393729168176
1759485870458473000,3.716472900390625,-4.766868364852667,11.929205633318423,3.2741189933195707
1759485870468531000,3.726531005859375,-3.666215984660387,11.997772389066219,2.12313284868449
1759485870478588200,3.736588134765625,0.4436947843700647,11.736582289791107,0.6303877880003302
1759485870488646100,3.746646240234375,5.689239815124869,8.805337114959954,-0.8013553992323577
1759485870498703000,3.756703125,3.690612174770236,5.667774417769909,0.9870613645866513
1759485870508760800,3.7667607421875,2.4313088632792232,4.250020665988326,1.9651007799364626
1759485870518817800,3.77681787109375,9.800980722191929,-1.1280606115996836,-3.0063761114001273
1759485870528875000,3.786875,-2.370295299389958,-8.150996423637867,-4.947408471876383
1759485870538933000,3.79693310546875,-21.85014836745262,-10.464366889756917,-1.3469696122452617
1759485870548990000,3.806989990234375,-12.55572542077899,-13.62319566233754,11.257639081907271
1759485870559048000,3.8170478515625,-12.677460287612677,-20.00568019219637,19.013621457713842
1759485870569105000,3.82710498046875,-8.774549177986383,-17.406127808886765,12.87695293238759
1759485870579163100,3.8371630859375,-6.9230153021276,-8.239263320633768,3.4854476218387482
1759485870589220000,3.84722021484375,-7.039106025594473,-0.5213496864587068,0.00029138416200876236
1759485870599278000,3.857278076171875,-5.947013383954763,3.539243801695108,-0.07396936371000483
1759485870609335000,3.8673349609375,-5.712582696789503,3.650318158304691,1.3715090102180838
1759485870619393000,3.87739306640625,-6.575218932545185,2.095229819497466,3.111823860299587
1759485870629450000,3.887449951171875,-8.765540526622534,-0.8358966973900794,4.805843407674134
1759485870639508000,3.897508056640625,-10.872075583988428,-6.758778679651021,6.1161442082136865
1759485870649565000,3.90756494140625,-7.382506206044554,-24.48478959980011,5.690652020010352
1759485870659623000,3.917622802734375,0.067878773483634,-39.48983592588901,-2.240708988403529
1759485870669680000,3.92768017578125,4.5637715581059455,-31.323125215768812,-6.334578869345783
1759485870679738000,3.937738037109375,10.828361529946326,-22.12917106053829,-8.003924286451936
1759485870689795000,3.947795166015625,17.120974650222063,-15.366521676933765,-10.084074610239266
1759485870699853000,3.95785302734375,16.971420048570632,-11.20331712461114,-11.002181973326206
1759485870709910000,3.967909912109375,18.143716107738015,-9.498537406030296,-12.00675765955448
1759485870719968000,3.977968017578125,17.038218041080235,-5.66331510027349,-10.638306575602293
1759485870730025000,3.98802490234375,14.486270289510488,-2.6248165884256363,-9.355507822233438
1759485870740082000,3.99808203125,12.95582364000678,0.0953495487332344,-7.720884174418449
1759485870750140000,4.008139892578125,11.804971350884436,2.3557827899128196,-5.5030906360477205
1759485870760196900,4.01819677734375,11.190433093118667,5.13967584157288,-2.3297812104329467
1759485870770255000,4.028255126953125,8.715188642001152,7.148497543683647,0.24481997923254964
1759485870780312000,4.03831201171875,5.023042097270489,7.709629205432534,0.21444559149593115
1759485870790370000,4.0483701171875,1.334988082550466,8.016866770133376,-1.5049077190995215
1759485870800427000,4.058427001953125,-0.918224559725821,7.905891197723149,-3.4362127585485576
1759485870810485200,4.0684853515625,-1.2002736148953437,8.102179493498802,-4.873869188413024
1759485870820542200,4.078542236328125,1.6946705586291848,9.250622967913745,-5.434821401941776
1759485870830600000,4.088599853515625,5.199061511999369,9.933595294958353,-5.336675500488281
1759485870840657000,4.098656982421875,6.089620358425378,10.534517699825763,-5.299295325642824
1759485870850715000,4.10871484375,5.933025775134563,10.79111228800416,-4.761726910310983
1759485870860771800,4.118771728515625,4.640021269571781,10.505925227069854,-4.920200146955251
1759485870870830000,4.128830078125,2.5942320650696753,10.068598808687925,-5.932525424396991
1759485870880887000,4.138886962890625,0.9306430195331573,9.381450657263398,-7.035517061191797
1759485870890945000,4.148945068359375,-0.08329027762711047,7.370833888429403,-7.9327195834159845
1759485870901002000,4.159001953125,-0.10047295616157352,4.790525134772062,-8.236977255523204
1759485870911060000,4.16906005859375,2.1857740137755868,0.9467904367357491,-9.475768524861335
1759485870921117200,4.1791171875,3.838699041956663,-4.637032609149814,-9.981963312286139
1759485870931175000,4.1891748046875,2.4661802701741458,-7.133437337195873,-6.1852645061910145
1759485870941231900,4.19923193359375,2.7820468392714854,-6.852876767018437,-3.877863762131333
1759485870951289900,4.209289794921875,0.4754407527208328,-9.573101356366276,-2.114681538942456
1759485870961347000,4.21934716796875,-2.0912939413532614,-16.914959910202025,1.0185519699368626
1759485870971405000,4.229405029296875,-3.275409033130109,-28.17764926123619,5.490545042729377
1759485870981462000,4.2394619140625,-3.084311291734874,-36.22660219146013,9.502108834776282
1759485870991519000,4.24951904296875,-2.3491052118450404,-32.86846548302174,5.15830923037231
1759485871001577000,4.259576904296875,-1.046935987573862,-23.01225737912655,-1.0683351878248155
1759485871011634200,4.26963427734375,3.8074461178198455,-15.379888523507118,4.133234653733671
1759485871021692200,4.279692138671875,1.617909536640346,-11.334212618499993,6.202517254287004
1759485871031749000,4.2897490234375,-0.6972253088027238,-9.213357359358668,4.623122741740942
1759485871041806800,4.299806884765625,-0.9015630555212497,-6.845843215119839,1.6689672314435242
1759485871051863800,4.30986376953125,-4.231942572984099,-3.5316800884425636,-1.0820338236358016
1759485871061922000,4.319922119140625,-3.8947751494437455,1.0026742365211248,-4.147023232850432
1759485871071979000,4.32997900390625,-0.9357873966842889,5.964580604827404,-2.314618128092587
1759485871082037000,4.340037109375,-2.6497102066636082,8.37339355866015,-1.3281988608017563
1759485871092094000,4.350093994140625,-3.2419963006108996,9.315362858849763,-0.18190723065845668
1759485871102152200,4.360152099609375,-4.8763095673024655,9.863463189589977,1.292919165366888
1759485871112209200,4.370209228515625,-6.536331860268116,10.755908872675896,2.8361846721723674
1759485871122267000,4.380266845703125,-6.67877166147828,10.424866069495677,3.7361411692798137
1759485871132324000,4.390323974609375,-5.332205661597848,9.109279145246743,2.649908651845157
1759485871142381800,4.4003818359375,-4.222692514079809,8.706786139836908,2.850650419898331
1759485871152439000,4.41043896484375,-3.0572981971248985,9.487488188749552,4.259175447824597
1759485871162497000,4.4204970703125,-2.0187562361478806,9.89033132277131,5.0007536930948495
1759485871172554000,4.430553955078125,-2.7132623491197823,9.52544294861257,5.530759564217925
1759485871182612000,4.440612060546875,-3.547898232793808,8.351825869974494,4.005261769293249
1759485871192669000,4.4506689453125,-3.447200601030886,7.55420658853054,3.8805771127432584
1759485871202727200,4.46072705078125,-4.059882125014067,7.810278029617667,3.9646579562261697
1759485871212784000,4.4707841796875,-5.575508806526661,8.746962082880735,4.432492910118401
1759485871222841900,4.480841796875,-6.471307307171821,10.112926610714197,4.806602701608837
1759485871232899000,4.490899169921875,-4.307017979973554,11.82067043979764,5.089776961416006
1759485871242957000,4.50095703125,0.31734336365163324,12.095129185968636,4.709402264311909
1759485871253014000,4.511013916015625,-1.2497735588625072,8.71403304222524,4.260520724953711
1759485871263072000,4.521072021484375,-7.199010756346583,4.427191004317999,3.9062247642189263
1759485871273129000,4.53112890625,7.753826659077405,-1.8229916719853876,-0.8069272080153226
1759485871283187000,4.54118701171875,6.423764050230384,-6.873073167350888,0.5147313642974942
1759485871293244200,4.551244140625,-21.03542305290699,-7.164880523207783,4.629444345977902
1759485871303302100,4.56130224609375,-11.106355464506148,-15.688332541388272,9.389548623523115
1759485871313359000,4.571359130859375,-14.9269869348526,-21.860452319324015,15.408392148935794
1759485871323416000,4.581416015625,-9.720846862769127,-18.424924912691115,11.407425154227017
1759485871333474000,4.59147412109375,-4.6931081321150065,-10.239633420741557,3.884887669418752
1759485871343531000,4.601531005859375,-4.861299045175314,-2.4864421369582415,0.9587969547413289
1759485871353589000,4.611589111328125,-4.183752834832668,2.0535943252950903,1.6161227993540466
1759485871363646000,4.62164599609375,-4.843801966929435,3.333098128771782,3.1211572135731576
1759485871373704000,4.631703857421875,-5.632890735915303,3.2283430383116003,3.6744270559057592
1759485871383761000,4.641760986328125,-5.920316515687108,1.8790765473008155,2.811607864798605
1759485871393819100,4.651819091796875,-7.559843133112787,0.029371640434861183,1.6791973874263464
1759485871403876000,4.6618759765625,-10.692390047967434,-4.974299985933303,0.4390898478578776
1759485871413934000,4.67193408203125,-8.143724386808275,-18.654279611766338,-0.26096944226175545
1759485871423991000,4.681990966796875,-1.4604443079948424,-40.0756952016592,-8.101308555883168
1759485871434048800,4.692048828125,7.242034490036964,-40.105505818033215,-13.826430416250227
1759485871444106000,4.70210595703125,17.885600593602657,-25.531612190127372,-13.220350190228222
1759485871454164000,4.7121640625,16.87869500312209,-15.151787039363384,-12.851951762121915
1759485871464221000,4.722220947265625,16.498878524422643,-9.971778602880239,-11.528239983606337
1759485871474279000,4.73227880859375,17.753749990946055,-7.03431703775227,-9.934020826894045
1759485871484335900,4.7423359375,16.02004637569785,-3.7470699750512835,-8.554779468858241
1759485871494394000,4.75239404296875,12.358029596292972,-0.5524982734382152,-7.948747173631191
1759485871504451000,4.762451171875,11.521111154639721,1.9608190109640358,-6.806614782059192
1759485871514509000,4.772509033203125,11.258401298451423,3.6912504726737736,-4.040520421940088
1759485871524566000,4.78256591796875,10.245124419373273,5.516805273145437,-0.8088730813860893
1759485871534624000,4.7926240234375,7.12676560434699,7.267911274093389,0.6874754836827516
1759485871544681000,4.802680908203125,2.5257807523950935,8.094344562089443,0.044378363169729707
1759485871554739000,4.812739013671875,0.29999431557431816,8.842985585352778,-1.3451760068267582
1759485871564796000,4.8227958984375,-1.29328376089558,9.457026999512314,-3.1691385696709156
1759485871574854000,4.83285400390625,-1.7038975289188325,9.783573075795173,-4.736516481208801
1759485871584911000,4.8429111328125,0.6999941889941692,10.408868874418735,-5.265260369572043
1759485871594969000,4.852968994140625,5.844421609008312,10.999329506504536,-5.0849143238157035
1759485871605026000,4.863026123046875,7.766474543726444,11.193140598511695,-4.974547238692641
1759485871615084000,4.873083984375,6.633440819889307,11.257379554188251,-5.124250893425941
1759485871625141000,4.88314111328125,5.145538011604547,10.986119311797617,-5.447388622570037
1759485871635199000,4.893198974609375,3.481669564604759,10.097934793287514,-6.520128913486004
1759485871645256000,4.903255859375,1.240072541320324,7.732416791301965,-7.844778849634528
1759485871655314000,4.91331396484375,-1.067066921454668,4.269456018820405,-9.217328016555308
1759485871665371000,4.923370849609375,-0.6208149268824606,0.28648937570452687,-10.29953054782152
1759485871675429000,4.93342919921875,4.158717762297392,-5.311363949099182,-10.384881265109778
1759485871685486000,4.943486083984375,4.354755298182368,-7.089501749357581,-5.64921467872858
1759485871695544000,4.9535439453125,4.901265729382634,-4.621642732316255,-1.6635821774043142
1759485871705601000,4.96360107421875,6.220843769094348,-4.258732380232215,-2.6455285370647905
1759485871715658000,4.973657958984375,2.230321303771436,-8.665793619713186,-0.6434644925206899
1759485871725716200,4.98371630859375,-3.560469837336242,-19.816910016965863,3.3797914908856153
1759485871735773200,4.993773193359375,-4.78806722022593,-36.89706516554355,9.93298505410552
1759485871745831000,5.003830810546875,-4.879474461074174,-45.191842283606526,9.340534124985338
1759485871755887900,5.013887939453125,-4.781681318581104,-35.495737063384055,-6.284861190974712
1759485871765945900,5.02394580078125,6.237160113123059,-20.343760638928412,-2.9075261533305046
1759485871776003000,5.034003173828125,4.450010446630418,-11.24309500824809,6.349065659859776
1759485871786061000,5.04406103515625,0.17716098597943783,-6.770262781217694,5.428519086927175
1759485871796118000,5.054117919921875,-0.7694906268075108,-5.2930169760257,3.6961271387994286
1759485871806176000,5.064176025390625,-4.781117839479446,-4.691037755581736,0.5960772298585623
1759485871816233000,5.07423291015625,-5.909053363394737,-2.062430542701483,-1.5431946335263549
1759485871826291200,5.084291259765625,-4.3773166740804905,2.8394951118946072,-3.2882869271427393
1759485871836348200,5.09434814453125,-3.3497903203755617,5.0807262244760985,-1.464852187564969
1759485871846406000,5.104406005859375,-3.1659140546664593,7.544478390720486,1.581021529226005
1759485871856462800,5.114462890625,-3.7890257872492072,9.910332492792605,3.014010259540379
1759485871866521000,5.12452099609375,-5.751989993548393,10.855307989060877,2.1846897256702182
1759485871876578000,5.134578125,-7.6119894999355076,11.135972019612788,2.5563661525338888
1759485871886636000,5.144635986328125,-6.7382175376594065,11.07347260107994,3.845395909246802
1759485871896693000,5.15469287109375,-5.630305980119108,10.923402451121806,4.801270108409225
1759485871906751000,5.1647509765625,-4.642553418397903,11.467725601410866,5.725387233304977
1759485871916808200,5.17480810546875,-4.179859042264521,10.682142210197448,5.741711760640144
1759485871926866200,5.1848662109375,-4.018787898081541,9.786352477380634,5.328635401895642
1759485871936923100,5.194923095703125,-4.2749294817954295,9.750207981809973,5.005770644474029
1759485871946980900,5.20498095703125,-4.640405884975195,9.976909536027907,4.637087261946499
1759485871957037800,5.215037841796875,-5.107025033336877,11.529478000968695,5.281840332973003
1759485871967096000,5.225095947265625,-5.251821626806259,12.038718147438765,4.53022087842077
1759485871977153000,5.235153076171875,-3.8109769222944974,12.405575775843857,4.141978224420547
1759485871987211000,5.2452109375,0.25721242781579495,13.527272113108634,4.184275981923937
1759485871997268000,5.25526806640625,3.0391327180981635,13.277148182249068,2.850014460082352
1759485872007326200,5.265326171875,-1.131421027943492,10.867397070783376,2.4078619367182252
1759485872017383200,5.275383056640625,-8.646900703194737,8.232858714288472,3.2087416812628504
1759485872027441200,5.285441162109375,-3.006769786892831,3.754457162693143,2.1954365990035236
1759485872037498000,5.295498046875,12.696392951619625,-2.806987511521578,0.04461114901229739
1759485872047555800,5.305555908203125,-11.281764638382196,-7.8938494622737165,2.349689149212837
1759485872057612800,5.31561279296875,-16.55722549945116,-12.930861048185825,9.632668228578567
1759485872067671000,5.325671142578125,-12.30247546685338,-23.29271565797329,22.873802848160267
1759485872077728000,5.33572802734375,-14.0662106477499,-27.84782226358652,21.93664591668844
1759485872087785000,5.345784912109375,-6.98433515548706,-18.797384598886964,7.344175014084577
1759485872097843000,5.355843017578125,-3.7479970267683265,-7.955471513450146,0.10038246486652642
1759485872107900000,5.36589990234375,-3.964949340388179,-1.745436723139882,-0.8213700863223522
1759485872117958100,5.375958251953125,-3.8074025709390638,0.09868658420145511,1.2915721346721052
1759485872128015000,5.38601513671875,-4.844415714913606,-0.13613923976123332,3.449977080006897
1759485872138073000,5.396072998046875,-6.503114065799116,-1.2239409062087536,3.025575317388773
1759485872148130000,5.406130126953125,-8.66394302341044,-6.221841547960042,1.9849825613617895
1759485872158188000,5.41618798828125,-5.370709287515282,-18.836715907800198,-1.3251383041873575
1759485872168245000,5.426244873046875,0.41869244506061076,-29.974708035063742,-7.626459923836588
1759485872178303000,5.436302978515625,-1.480671103465557,-31.278491124272346,-13.645412170320748
1759485872188360000,5.44635986328125,1.3165141220964491,-23.76914542173147,-13.347389008688927
1759485872198418000,5.45641796875,12.550545387792587,-16.075264989572762,-12.083140642011164
1759485872208475100,5.46647509765625,23.560756353795526,-14.222867190361022,-14.764453609162569
1759485872218533000,5.476533203125,24.18823125002384,-10.76634375745058,-15.360890393048525
1759485872228590600,5.486590576171875,22.173576019454,-4.282954382818937,-11.449343557024001
1759485872238648300,5.4966484375,17.590092045140267,0.2106242796421051,-8.909708174538611
1759485872248705500,5.50670556640625,13.311263217818736,2.507615857890248,-6.796248286345601
1759485872258763500,5.516763427734375,8.487858726751805,4.274029318085312,-2.98893339368999
1759485872268820500,5.526820556640625,7.580755572760105,5.417570991933346,1.2555486351326106
1759485872278878500,5.53687841796875,5.72584725203216,6.085394265162944,1.8348073435939847
1759485872288935400,5.546935302734375,2.3148554439797997,7.156410216504335,0.57849693030864
1759485872298993700,5.55699365234375,0.4576993443250656,8.434813365262746,-0.36961642559394237
1759485872309050600,5.567050537109375,-0.5122350905023515,9.50054465419948,-1.690969219893217
1759485872319108600,5.577108642578125,0.2792632238432765,10.329161131453514,-2.924019899752736
1759485872329165600,5.58716552734375,3.8410087802037594,10.970255387711525,-3.7163325992211695
1759485872339223600,5.5972236328125,5.506168143796921,11.144943261575698,-4.0086230624198915
1759485872349280500,5.607280517578125,6.339734936934709,11.341134526717662,-3.9838790817856786
1759485872359338500,5.61733837890625,5.798040966105461,11.516346132194995,-4.281207831412553
1759485872369395500,5.6273955078125,4.437741624426842,11.122808586657047,-5.150491250097751
1759485872379452400,5.637452392578125,3.6990333816349503,10.148610503035783,-6.130420570847392
1759485872389510400,5.647510498046875,2.986094370871782,7.808372488257288,-7.128094807124137
1759485872399567600,5.657567626953125,2.1643185532927514,5.148767495045066,-7.82429661809802
1759485872409625600,5.66762548828125,0.5937351237118244,2.4729899501889943,-8.288546114718914
1759485872419682600,5.6776826171875,0.8609832078516483,-2.5369261235266922,-9.623960021466017
1759485872429740500,5.687740478515625,0.7193319266706705,-9.03408858744502,-10.376865131914615
1759485872439797500,5.697797607421875,2.896809236744046,-8.692171339029073,-4.487499634808302
1759485872449855500,5.70785546875,7.219075639253854,-5.587835788658261,-1.6373437204286456
1759485872459912400,5.717912353515625,5.03838755044043,-8.16607884195745,-1.5148647572293876
1759485872469970400,5.727970458984375,-1.6951646257564426,-19.898303521060942,0.8264016507487744
1759485872480027400,5.73802734375,-5.2034512713909145,-41.4511453507185,9.891427885836363
1759485872490085600,5.748085693359375,-5.236129552155733,-49.19807114436626,15.39096170618534
1759485872500142600,5.758142578125,-4.3928021202430125,-32.71880216029882,3.493550264273584
1759485872510200600,5.76820068359375,0.46462622097879647,-19.867620798027513,-2.2682139581836758
1759485872520257500,5.778257568359375,5.573164289227128,-11.765995431280135,5.890903958719968
1759485872530315500,5.7883154296875,0.4645476027846336,-6.620012013995647,6.883908449620008
1759485872540372700,5.798372802734375,-0.9257242678314447,-3.874368905752897,6.224461959591507
1759485872550430500,5.808430419921875,-2.990447889906168,-2.7625708621680736,2.367117838397622
1759485872560487400,5.8184873046875,-6.390659653007984,-1.0059405448406935,-1.6911450148515401
1759485872570545400,5.82854541015625,-4.874363401670753,3.697471539145708,-1.938095430241525
1759485872580602400,5.838602294921875,-4.584309903743863,8.219762501350045,-1.6625874672785401
1759485872590660600,5.84866064453125,-2.523154787805676,10.365434221839903,0.85876991571635
1759485872600717600,5.858717529296875,-2.810689288648963,11.47314411932826,1.9439558467075229
1759485872610775600,5.868775634765625,-5.620286690407991,12.217427531903981,1.5516227085232734
1759485872620832500,5.87883251953125,-7.0052738986194125,12.199486217021942,1.86678244452551
1759485872630889500,5.888889404296875,-6.724985131120682,10.165371083700656,1.380163295186311
1759485872640947500,5.898947509765625,-5.450245181044936,9.050711220943928,1.5465641099594531
1759485872651004700,5.909004638671875,-3.9327258176535365,10.074802924025057,4.194497808469832
1759485872661062400,5.9190625,-3.6906574752166863,10.038532171726226,5.107450565272569
1759485872671119400,5.929119384765625,-3.9278520741373297,9.688846627396345,3.6068665545910594
1759485872681177600,5.939177490234375,-3.081890494328737,9.514130696481466,3.4203356827199456
1759485872691234600,5.949234619140625,-2.82891585021317,9.407550728681683,4.204243249675631
1759485872701292500,5.95929248046875,-3.684886198338866,10.286904875004291,5.315526329475641
1759485872711349500,5.969349609375,-5.117309695985913,10.919427702271937,6.135864807727932
1759485872721407500,5.979407470703125,-5.427856239104271,11.52452593151927,5.598771608692407
1759485872731464700,5.989464599609375,-3.0662481040388343,12.788819890904426,5.245633293560147
1759485872741522400,5.9995224609375,-0.2916717467784881,12.338480846214294,4.074309878817201
1759485872751579600,6.00957958984375,-3.2573125276863575,9.757174898213147,2.8070646684110163
1759485872761637400,6.019637451171875,-9.505143087905644,8.327464751178026,3.6387186136648055
1759485872771694300,6.0296943359375,-7.788481208351254,5.487990097549558,4.499250570617616
1759485872781752600,6.039752685546875,6.036790100991726,-0.10658172136545181,2.278780652644485
1759485872791809500,6.0498095703125,-2.2685794304952025,-5.447963207587599,3.466210421927273
1759485872801867500,6.059867431640625,-13.483430633294581,-10.946108788448571,5.765885832431912
1759485872811924500,6.069924560546875,-9.450385077279806,-20.744976464009284,15.470250931477546
1759485872821981400,6.0799814453125,-10.624225443279743,-27.034153764617443,20.14615483081341
1759485872832039700,6.090039794921875,-2.8223373486056924,-22.50631627420187,7.951599640452861
1759485872842096600,6.1000966796875,-5.655297213512659,-9.08184928652942,1.6313566088430582
1759485872852154400,6.110154296875,-5.8675131462603805,-1.324857441419363,0.6766540107432752
1759485872862211600,6.120211669921875,-5.1610219964623445,1.0526333224326372,2.2451374723702666
1759485872872269300,6.130269287109375,-6.364065660592913,0.5179226346194744,4.227545799329877
1759485872882326500,6.140326416015625,-6.953141560322046,-0.9661761052072048,4.8296010076195
1759485872892384500,6.150384521484375,-8.593104231077431,-4.6941485810786485,3.9334272439211606
1759485872902441500,6.16044140625,-10.77272089126706,-16.972572725737095,-0.8961040594629943
1759485872912499500,6.17049951171875,-3.9471331131905316,-29.35089926012754,-7.375749132999777
1759485872922556400,6.180556396484375,0.44624622241854667,-32.92772431219816,-12.331356693422794
1759485872932614700,6.19061474609375,3.5577673003792762,-27.350038746154308,-13.863562753814458
1759485872942671600,6.200671630859375,11.559347069531679,-17.144024686419964,-13.903499627405404
1759485872952729300,6.210729248046875,21.709982356393336,-11.166195308440923,-13.317531630563735
1759485872962786600,6.22078662109375,22.93822651275396,-9.82731167975664,-14.264127421510219
1759485872972843500,6.230843505859375,19.789832624948023,-5.381919832837581,-11.97257365040183
1759485872982901500,6.240901611328125,15.978068351668119,-0.5959522152394056,-9.233340993723273
1759485872992958500,6.25095849609375,11.272181986522673,1.2549983077734708,-7.721391539418697
1759485873003016400,6.261016357421875,9.776023391067982,3.3808465528964993,-6.070745562085509
1759485873013073400,6.271073486328125,11.802965271759032,5.459778148543834,-2.3795170089825985
1759485873023131600,6.281131591796875,9.518145192819834,7.199735563489794,0.4596653837010264
1759485873033188600,6.291188720703125,3.2174010807976123,7.998159147053957,0.7545213134735822
1759485873043246600,6.30124658203125,1.1100853944480418,8.407588089206815,-0.2330833642095327
1759485873053303600,6.311303466796875,0.7835831573069095,8.512455992391706,-2.166353566251695
1759485873063361300,6.321361328125,0.028462708896398542,8.643209447461366,-4.435219704733789
1759485873073418500,6.33141845703125,0.6273191211447119,9.923570744550227,-5.0143946804344655
1759485873083476500,6.3414765625,4.087929531107843,10.88712000838518,-5.334882187330723
1759485873093533400,6.351533447265625,8.420575581073761,11.544024412715434,-5.14808711156547
1759485873103590400,6.36159033203125,7.4133964343488215,11.500755764353274,-5.168187065786123
1759485873113648400,6.3716484375,6.273112300992012,11.208151120638847,-5.639132845175266
1759485873123705600,6.38170556640625,4.00638668166995,10.352029965865611,-6.80896806718707
1759485873133763600,6.391763671875,0.8152829484283923,7.953553112608194,-7.847967416542768
1759485873143820500,6.401820556640625,-2.263285123479366,5.375389554286003,-8.441496204027533
1759485873153878500,6.41187841796875,-4.322432991248369,2.507946697279811,-10.349461576682328
1759485873163935500,6.421935546875,1.502474938994646,-3.6639842800855633,-11.686488763844967
1759485873173993500,6.431993408203125,6.256541689941287,-8.405882454332708,-6.662344842812418
1759485873184050400,6.442050537109375,4.977494398060441,-5.314534980350732,-1.1822975209608673
1759485873194108400,6.4521083984375,6.578078998151421,-6.962331997993588,-3.1674826191574335
1759485873204165400,6.462165283203125,5.468260730206966,-13.244162442970275,-1.646981317345798
1759485873214223600,6.4722236328125,0.348090384092927,-27.22522695609331,2.257940693711489
1759485873224280000,6.482280029296875,-2.6322569675594565,-43.59210874738693,11.847145774269103
1759485873234337000,6.4923369140625,-2.5197920333743093,-39.03080854783058,14.824494528627394
1759485873244395000,6.50239501953125,-2.5418542275786398,-25.724967355060574,7.511389775589108
1759485873254452200,6.5124521484375,-2.580278943040967,-17.39156970670223,4.151550354886055
1759485873264510200,6.52251025390625,0.1651166201815009,-12.36661388476491,6.348790934571624
1759485873274567200,6.532567138671875,1.3042431079357861,-10.025969627273081,6.27207243655026
1759485873284625200,6.542625244140625,-1.9781220279425382,-8.647595699721574,5.633115776842832
1759485873294682000,6.55268212890625,-4.271065207582712,-6.236710031268,3.578050502212345
1759485873304740000,6.562739990234375,-4.4455856159254905,-2.1995418423652646,1.037611109867692
1759485873314797000,6.572797119140625,-2.341565463989973,2.6857699465602636,0.11208441043496131
1759485873324855000,6.58285498046875,-2.376824993419647,5.035338099741935,-3.5420296330213543
1759485873334912000,6.592912109375,-3.1141046647131443,7.843962272554635,-2.336740966442972
1759485873344969000,6.602968994140625,-3.748473412108421,10.463640913569927,1.7092814139142631
1759485873355027200,6.613027099609375,-5.897933418965339,11.732439198637008,1.6199780134774744
1759485873365084200,6.623084228515625,-6.5464931887984275,12.344239555871486,1.60087423068732
1759485873375142100,6.63314208984375,-6.785472625309229,11.622910317903756,1.8771506938047706
1759485873385199000,6.64319921875,-5.755104326176643,12.629366995573044,3.2153441482678056
1759485873395257300,6.65325732421875,-3.945731429699063,12.84535718616247,5.045738497725129
1759485873405314300,6.663314208984375,-3.7760485245153306,12.148187406939268,4.775755435663461
1759485873415372000,6.6733720703125,-4.392136642071605,12.67008479040861,4.672022089466452
1759485873425429000,6.683428955078125,-4.634917224431038,13.26306471183896,4.585585038246214
1759485873435487000,6.693487060546875,-4.580162136414647,13.29370418025255,5.113969153386354
1759485873445544200,6.703544189453125,-5.37701744774878,13.099381047070025,5.630263310021162
1759485873455601200,6.71360107421875,-6.958446096470952,12.845225084215402,4.884065588256717
1759485873465659100,6.7236591796875,-7.6228633606493466,12.671304103070497,3.192418907493353
1759485873475716000,6.733716064453125,-6.840571996718645,12.684824094378948,2.0670432971939445
1759485873485774000,6.743774169921875,-3.610026479926705,12.511513354086874,1.2766213799081743
1759485873495831300,6.753831298828125,-1.109172955778241,10.424852040970325,1.1420415714833885
1759485873505889300,6.76388916015625,-3.3227743031561374,6.5526616483002895,2.890949697060883
1759485873515946200,6.7739462890625,8.425617082372307,0.7050181546360254,2.489752868941426
1759485873526004000,6.78400390625,8.962077828723192,-8.479050566396117,2.1347695104643702
1759485873536061000,6.79406103515625,-18.465060523724556,-9.006005233255028,0.9602405776783823
1759485873546118100,6.8041181640625,-10.41426751859188,-13.443077580118178,10.754260520946978
1759485873556176100,6.814176025390625,-10.646689788544178,-23.710499171495435,20.146250692403314
1759485873566233000,6.824233154296875,-8.716831733033061,-23.851565346264838,13.732601793473957
1759485873576291000,6.834291015625,-5.239346176114678,-13.516809171283244,2.327921992432326
1759485873586348000,6.84434814453125,-4.825787002289295,-3.659098261609673,0.0977649758445099
1759485873596406300,6.85440625,-5.198143228110671,0.6013374154090881,0.5912196337595582
1759485873606463200,6.864463134765625,-5.425000849673151,0.7259656655967235,1.3317173903167248
1759485873616521200,6.874521240234375,-6.963668215033412,-2.0158909098446367,1.710074317857623
1759485873626578200,6.884578125,-7.068062070965767,-7.248246788680553,1.5697972476392983
1759485873636635100,6.89463525390625,-6.108799106147885,-15.973580392599105,-2.198924441119283
1759485873646693000,6.904693115234375,-1.8302789063841103,-21.50070247709751,-7.465341725641489
1759485873656750000,6.91475,-1.280779814761877,-24.738603032827378,-10.051819523322582
1759485873666808000,6.92480810546875,-2.185404595941305,-20.96708309165239,-9.990095180815457
1759485873676865000,6.934864990234375,2.954325606167316,-12.778600110185145,-5.092251827096939
1759485873686923000,6.944923095703125,12.549098111593722,-11.29798395177722,-6.520801113659143
1759485873696980200,6.954980224609375,20.60611510580778,-10.270763887542486,-11.558645643264054
1759485873707037200,6.965037109375,21.292486427640913,-7.495543971681594,-10.311270085453987
1759485873717095200,6.97509521484375,16.62753646851778,-4.711777176749706,-7.162032148039341
1759485873727152000,6.985152099609375,12.094716513514518,-2.095552475580573,-5.286515923568606
1759485873737210000,6.995210205078125,10.786901392310858,0.31402678644955156,-3.3295322529837486
1759485873747267300,7.005267333984375,10.821945817685126,2.0538217043101787,-1.435157306525111
1759485873757325000,7.015324951171875,8.621355343049764,4.698413837307691,1.3335662330538034
1759485873767382300,7.02538232421875,6.656370444577932,6.39234599865973,2.476806878128648
1759485873777440000,7.03543994140625,6.192392750635743,7.35922060752511,1.8250646788671612
1759485873787497000,7.0454970703125,6.533498098146915,7.949944274461269,0.023335867401957512
1759485873797554000,7.055553955078125,4.655007241779566,8.227751162016391,-2.8482974270313974
1759485873807612200,7.065612060546875,3.4563623971298334,8.3815973233819,-5.00147908475995
1759485873817669000,7.075669189453125,3.6805949308857318,8.957333849066496,-6.026046004137396
1759485873827727000,7.08572705078125,5.451816960406303,9.617767012044787,-5.97609334796667
1759485873837784000,7.0957841796875,6.357127970284223,9.935471610224246,-5.898163720589876
1759485873847842300,7.10584228515625,5.776480291682481,10.113956538283825,-6.122416712611913
1759485873857899300,7.115899169921875,5.2558513207137585,10.053659598231315,-6.6125470849424595
1759485873867956200,7.125956298828125,2.5786814447164534,8.995564503261447,-8.135670259690285
1759485873878014200,7.13601416015625,-1.652658486199379,6.825010854971408,-11.074967808073758
1759485873888071200,7.1460712890625,-2.9553800836563107,4.595070951732993,-11.799586735236645
1759485873898129200,7.156129150390625,-0.5061503637611866,0.1121674125432968,-13.310384096896648
1759485873908186000,7.16618603515625,-0.8987620266258716,-7.229406479132175,-14.72170401623845
1759485873918244000,7.176244140625,0.5684410349141806,-6.7710717595130205,-6.812545341151952
1759485873928301000,7.186301025390625,2.8958734171986578,-8.36912187269032,-5.602286923336982
1759485873938358000,7.19635791015625,0.7484947466604411,-15.54404331291914,-7.563435020124912
1759485873948416300,7.206416259765625,-0.3716771575160324,-26.749269486021994,-6.9697834830433125
1759485873958473200,7.21647314453125,-2.502602413642406,-41.255788782835005,1.5421066921591757
1759485873968531200,7.22653125,-4.352821992032229,-41.605150502038,13.46948277196288
1759485873978588200,7.236588134765625,-2.450651861652732,-29.06581390600204,16.84770131444335
1759485873988646100,7.246646240234375,-1.4496774147868157,-20.05332807855606,11.447245123440027
1759485873998703400,7.256703369140625,-4.48832439519465,-13.43138246614933,11.251045674991607
1759485874008760300,7.26676025390625,-3.7558375111356375,-8.729314782509206,13.182207798838615
1759485874018818000,7.276818115234375,-2.0529209560781716,-7.920029613190889,13.735559474235773
1759485874028875000,7.286875,-3.763248079653084,-7.351602533736824,11.723961293148994
1759485874038933000,7.29693310546875,-6.481123767787218,-2.95860781353116,6.6151715882271525
1759485874048990200,7.306990234375,-2.0018612154483795,1.872081573846936,0.45614710991438473
1759485874059048200,7.317048095703125,-0.4112970741122961,5.519844786971807,-3.0813670549765226
1759485874069105200,7.327105224609375,-2.131201881110668,9.342397580769658,-4.352984781378507
1759485874079162000,7.337162109375,-3.2748519837692376,12.776421012580395,-0.6609229923218488
1759485874089220000,7.34722021484375,-3.7105794425219294,14.57287539077401,2.249758702430129
1759485874099277000,7.357277099609375,-5.276351087906956,13.871401192355155,1.992729668357223
1759485874109335300,7.367335205078125,-4.483244315451383,10.643929676181077,1.5555637012340127
1759485874119392300,7.377392333984375,-5.025640881592035,9.274856660938262,0.772780316002667
1759485874129450000,7.387449951171875,-5.005530405977368,10.928024850225448,3.539945227962732
1759485874139507000,7.3975068359375,-4.276277973794937,11.149013872015475,4.7420936968192455
1759485874149564000,7.40756396484375,-4.027072619085014,10.436855782496929,4.243025692534446
1759485874159622100,7.4176220703125,-3.974052392037213,10.388091459327935,3.672851769413054
1759485874169679000,7.42767919921875,-3.640967561635375,10.761488718634844,3.350182534563541
1759485874179737000,7.437737060546875,-3.010741320872307,10.770938099503516,3.335725554665923
1759485874189794000,7.4477939453125,-2.7923592667102812,10.925160692965983,3.2801728865310547
1759485874199851000,7.45785107421875,-3.364806395460665,10.889486152994632,2.6373057753816247
1759485874209909200,7.4679091796875,-1.941178490948677,11.696021146821975,1.643747449991107
1759485874219966200,7.47796630859375,0.10168518149554728,11.603885299438238,0.1972278416480869
1759485874230024700,7.488024658203125,-4.971256964975595,10.028633878046273,-1.4204416756913065
1759485874240081700,7.49808154296875,-8.558556649309397,9.182963974660634,-1.0523381388783455
1759485874250139600,7.5081396484375,-7.878911420860886,8.968508154031634,0.07256707743033766
1759485874260196600,7.518196533203125,3.0731767342582343,6.321527080070972,-0.25014760399609803
1759485874270253600,7.528253662109375,4.9337002645194525,2.0608453193366527,-0.07221446460038423
1759485874280311800,7.538311767578125,-12.402221789240837,2.5534534799575805,2.9833687453001736
1759485874290368800,7.54836865234375,-5.155787602940202,-0.21755495568811892,7.718978048536181
1759485874300426800,7.5584267578125,-3.4577088433027265,-9.409492510399222,18.135833245533703
1759485874310483700,7.568483642578125,-12.005586277687549,-20.83118409038782,27.12899127217531
1759485874320540700,7.578540771484375,-12.126689860880374,-28.290896870231627,19.938268451702594
1759485874330599000,7.588598876953125,-9.295207375049591,-23.024254106390476,4.638070720025897
1759485874340655900,7.59865576171875,-9.407576447644828,-11.077890417522191,-1.2650916856341063
1759485874350713900,7.6087138671875,-9.354115491092205,-4.865972882205248,-0.5761408687017858
1759485874360770800,7.618770751953125,-8.707330329716205,-5.798510921704769,-0.46856253751441834
1759485874370827800,7.628827880859375,-8.369469078692793,-10.152207650744915,-3.084529610660672
1759485874380885800,7.6388857421875,-7.752763998281956,-16.207156508761642,-7.36037679182291
1759485874390942700,7.648942626953125,-2.81229847741127,-19.2292924993515,-8.891573382911085
1759485874401000700,7.659000732421875,0.9369745606422424,-19.87081930180788,-8.759442209747434
1759485874411057700,7.6690576171875,4.383847537153959,-18.818603912526367,-8.310762038180231
1759485874421116000,7.679115966796875,7.747885578590631,-14.899872133433817,-6.773674050965905
1759485874431172900,7.6891728515625,12.705011142361164,-13.063915765935182,-8.263700427275895
1759485874441229800,7.699229736328125,24.762301888322828,-10.819116731739044,-9.805447638472915
1759485874451287800,7.709287841796875,27.829833017909525,-9.018512832650542,-9.312789208969473
1759485874461344800,7.7193447265625,20.388686991369724,-5.8254632260382175,-6.879402954894304
1759485874471402800,7.72940283203125,12.50880234156251,-1.606732601326704,-2.5938565097555517
1759485874481460000,7.7394599609375,8.735897083508968,1.8502876751899717,2.0669516733877358
1759485874491517000,7.749516845703125,4.6490763904258605,4.476487826928496,4.346254596340656
1759485874501574700,7.75957470703125,5.74738863723278,6.07505290389061,2.9516549256533384
1759485874511631600,7.769631591796875,7.544348042339086,6.580553279310465,0.9824456874847411
1759485874521689600,7.779689697265625,6.510486640393734,6.255104935136437,-2.1491250758141276
1759485874531746800,7.789746826171875,4.747436226890981,6.084734924471378,-4.6589919275015585
1759485874541803800,7.7998037109375,2.975717646025121,7.467422039046883,-5.901946746259927
1759485874551861800,7.80986181640625,3.6312253352999684,8.541143157693742,-6.537579814502596
1759485874561918700,7.819918701171875,5.503356593507528,9.365682010245322,-6.654250968205928
1759485874571976700,7.829976806640625,5.302057776093482,9.805283387821913,-6.388177773064375
1759485874582034000,7.840033935546875,3.441073350322246,10.095160652399063,-6.047144321745634
1759485874592091000,7.8500908203125,2.7654396956026552,10.443546220046281,-6.255217163339257
1759485874602148900,7.86014892578125,2.515156774789095,10.402586433148384,-7.0986045087456695
1759485874612205800,7.870205810546875,1.684631833565235,9.40869288445413,-8.19528564721942
1759485874622263600,7.880263671875,-0.46109541650414465,7.1544468074768774,-8.897002422222494
1759485874632320800,7.89032080078125,-2.2192782239705324,5.284094249379635,-8.402447219187021
1759485874642377700,7.900377685546875,-2.358771450334787,2.323400277224183,-9.664974168899654
1759485874652435700,7.910435791015625,-1.6038246049255132,-4.46719159079492,-12.827420547455548
1759485874662492700,7.92049267578125,0.47164369852542876,-6.110563193210959,-7.010341118881106
1759485874672550700,7.930550537109375,2.1923042923271656,-5.397638795495033,-4.0285026518881315
1759485874682607600,7.940607666015625,1.6657815871447323,-10.513110170137882,-5.315089107102155
1759485874692664800,7.950664794921875,-0.2007546275347471,-21.142759976553915,-5.934749530187249
1759485874702722800,7.960722900390625,-1.3036381277799605,-37.867747934520246,-1.7661748291336
1759485874712779800,7.97077978515625,-3.2635233650252222,-41.48262068543434,10.172164397102593
1759485874722836700,7.980836669921875,-3.3297458957344293,-32.4163354632616,15.368109238386154
1759485874732894700,7.990894775390625,-0.8737377677455545,-22.93670441775322,10.444433524274826
1759485874742952000,8.000951904296874,-2.2269448130756615,-14.491374334651232,7.070072826266288
1759485874753010000,8.011010009765625,-1.4810413980826735,-8.955052460131048,8.883885166496038
1759485874763067000,8.02106689453125,-0.9059756112664937,-8.437543667009473,10.457490574246645
1759485874773123800,8.031123779296875,-2.9984686992764473,-8.610888309571147,8.480115565279126
1759485874783181600,8.041181640625,-3.2966467592090365,-5.069419817563891,5.184522699037194
1759485874793238500,8.051238525390625,-2.2374746826574206,0.772151662710309,0.3245458058437332
1759485874803296800,8.061296875,-2.854109912702441,4.512601342839003,-2.25561751146093
1759485874813353700,8.071353759765625,-2.1583371407955885,6.94093674326539,-4.112930409112573
1759485874823410700,8.08141064453125,-2.1901590969920157,10.463145239007472,-2.2329696263231336
1759485874833468700,8.09146875,-2.731616336455941,13.690330339455604,1.4206905358858406
1759485874843525600,8.101525634765625,-3.669925360572338,13.683150072562693,1.3628009492360054
1759485874853584000,8.111583984375,-4.489712050160765,10.565607250094413,-0.1648517404339276
1759485874863640800,8.121640869140625,-4.745291323816776,9.028916737765073,0.19915891930852084
1759485874873697800,8.13169775390625,-4.341450410929322,10.383594147908687,2.981879383525252
1759485874883755800,8.141755859375,-4.0426235316991805,11.0239402161479,4.752087267567217
1759485874893812700,8.151812744140624,-4.309571171587705,10.205228462314604,4.865780866764486
1759485874903870000,8.161869873046875,-3.8781875872582194,9.599776597324013,4.168366465130448
1759485874913927700,8.171927734375,-3.3580420158922673,9.928899246096611,3.721355103558302
1759485874923984600,8.181984619140625,-2.7276354501262308,9.879574950957299,4.220773528715968
1759485874934042600,8.192042724609376,-3.138661890603602,10.314297908842564,4.864226623059809
1759485874944099600,8.202099609375,-3.1654610502019525,10.747738425701856,4.495837839564681
1759485874954156800,8.21215673828125,-2.969913635921478,11.103449221670626,3.3802257906496522
1759485874964214800,8.22221484375,-3.5515701993048188,11.124072322982549,1.4764901645191013
1759485874974271700,8.232271728515625,-3.2863185496792195,10.33248706100583,-0.6850453339263797
1759485874984328700,8.24232861328125,-4.066064613041282,8.199933180764317,-2.3499407858863472
1759485874994386700,8.25238671875,-5.2076586599528785,6.602928192725777,-3.0887548271402716
1759485875004443600,8.262443603515624,-4.646460947230458,6.522870321148633,-2.339878972207755
1759485875014502000,8.272501953125,-3.671137658971548,5.140968219470977,-0.3816072711063549
1759485875024558800,8.282558837890624,2.086418152010441,0.7935328889131545,-1.4645632876209913
1759485875034615800,8.29261572265625,-2.274414127998054,-5.264813210326433,-0.31462274304870513
1759485875044673800,8.302673828125,-11.489885995292664,-8.212266592636704,4.157497865113616
1759485875054730800,8.312730712890625,-8.636440683978796,-15.205796861970423,13.710129264903069
1759485875064788000,8.3227880859375,-0.7781810060024261,-24.043847329008578,19.040548043084144
1759485875074845700,8.332845703125,-0.23546061473488805,-20.52522429053783,8.240021445524691
1759485875084902700,8.342902587890626,-4.71465097862035,-6.9427283028572795,0.9801740162257104
1759485875094960600,8.352960693359375,-4.579012966379523,2.5416157426476476,1.1884405537605285
1759485875105017600,8.363017578125,-5.2509436749279494,5.32367690270543,2.255823409296572
1759485875115074800,8.37307470703125,-5.793655882889032,4.201269786822795,3.8147868359714745
1759485875125132800,8.3831328125,-5.7460728784590955,2.287273317310214,5.286877742618322
1759485875135189800,8.393189697265624,-6.418778663033247,-1.1530746413469315,5.354153874033689
1759485875145246700,8.403246826171875,-8.878035271424055,-11.583355721628665,1.3290692138954996
1759485875155304700,8.4133046875,-9.436004669749737,-22.6532183155179,-5.193423213851451
1759485875165361700,8.423361572265625,-12.153953130859136,-23.981923080015182,-9.449488420701027
1759485875175420000,8.433419921875,-8.735168769234418,-20.349727438378334,-8.733890419861673
1759485875185476900,8.443476806640625,1.1101929464757443,-16.60108802205324,-7.029840184599161
1759485875195533800,8.453533935546876,12.675073100215196,-11.994840427267551,-8.20634012519717
1759485875205591600,8.463591552734375,21.387994966328144,-10.739733982944488,-11.033809283733367
1759485875215648800,8.473648681640626,20.587190625107286,-10.690035593795775,-12.823067028421162
1759485875225705700,8.483705810546875,19.992217484033105,-7.78589703707695,-8.800764984738827
1759485875235763500,8.493763427734375,15.814418589168787,-5.671120805588364,-6.1103030809700485
1759485875245820400,8.5038203125,10.097033460533618,-3.6801281901568172,-4.441041250494123
1759485875255877400,8.51387744140625,6.080941377407312,-1.141971063530445,-1.8258621128551662
1759485875265935400,8.523935302734374,6.250139421683549,1.2574527151882648,0.5070652866490185
1759485875275992300,8.533992431640625,5.202244818210602,4.3508255575180055,2.1920741368331016
1759485875286050600,8.544050537109374,5.843153196507692,7.753049829486012,3.258536808784306
1759485875296107500,8.554107421875,9.609585459154843,9.703376672530174,2.873409364195168
1759485875306164500,8.56416455078125,10.322850633132457,10.855703125858307,2.2498000573538244
1759485875316222500,8.574222412109375,8.22318370797038,10.898459733045101,0.10650222638845443
1759485875326279400,8.584279541015626,5.523436089462042,10.21691422393322,-2.5110768119990823
1759485875336336600,8.594336669921875,4.336635996384919,9.363918507704138,-4.249142714110016
1759485875346394600,8.60439453125,3.1564298947453495,9.410215563976765,-4.971735103881358
1759485875356451600,8.61445166015625,3.4544951419532297,9.43886941153109,-5.181753818845749
1759485875366508500,8.624508544921875,4.04109442243576,9.48801484297216,-5.345189061811566
1759485875376566500,8.63456640625,5.33951276974082,9.431676869678498,-4.9100399874687195
1759485875386623700,8.644623779296875,3.6312288424313066,7.6725816235423085,-4.421143540847301
1759485875396680700,8.6546806640625,0.822884144147113,5.454316376006603,-4.9813224319159985
1759485875406738400,8.664738525390625,-0.2574479536047205,3.340100701010227,-5.844301197499036
1759485875416795400,8.67479541015625,1.0950386319637297,-1.4913456422150133,-7.042364150607585
1759485875426853400,8.684853271484375,-0.06764671829342842,-5.453357760107517,-5.668116947597265
1759485875436910300,8.694910400390626,1.9654075077980755,-8.361135550111532,-2.8934798000603914
1759485875446967600,8.704967529296875,2.9700030677706,-13.179149580311774,-2.4436424212820826
1759485875457025500,8.715025634765626,4.05049353442192,-20.0111022172451,-0.6208942026637494
1759485875467082500,8.72508251953125,2.9763433767080305,-28.545563705217837,2.815101552133262
1759485875477139500,8.735139404296875,2.066111861562729,-30.266707114100456,7.717273582705855
1759485875487197400,8.745197509765624,1.2200193488508462,-25.021228718841073,11.80871229097843
1759485875497254700,8.755254638671875,0.1839583910346031,-19.576489149475098,9.566579845643043
1759485875507311600,8.7653115234375,-2.4334856227964163,-15.719584588742256,6.063045655232668
1759485875517369600,8.77536962890625,-6.027925826534629,-10.740353576147555,6.727290485453605
1759485875527426600,8.785426513671876,-5.536852620396018,-7.32798258869648,8.62136527992189
1759485875537483500,8.7954833984375,-2.163746890884638,-5.922002276816964,8.500834528180956
1759485875547541500,8.80554150390625,-6.043617316663265,-6.226220785957574,4.526315979936719
1759485875557598500,8.815598388671875,-5.364295328819751,-4.037949110147356,-0.02905621781013906
1759485875567655700,8.82565576171875,-0.11235270598232745,-1.3080267181277274,-1.4714420873492955
1759485875577713400,8.83571337890625,-2.6004852802455423,-0.33741116916835306,-2.5132582476913927
1759485875587770400,8.845770263671875,-8.363035830774903,1.9719009614706038,-2.4826553118959067
1759485875597827300,8.855827392578124,-7.648203553611039,4.562893606227636,-1.8371689581587909
1759485875607885600,8.865885498046875,-4.77510486280024,5.755583049604296,-0.7488401990972459
1759485875617942500,8.875942626953124,-4.31349682059884,8.146783189857006,0.7130932514768094
1759485875627999500,8.88599951171875,-5.342817071983218,10.05422775350809,1.585754987488687
1759485875638057500,8.896057373046874,-4.412681417450308,10.210229631602763,2.3348650895684955
1759485875648114400,8.906114501953125,-3.163309717386961,9.942263754582404,1.7208327354982493
1759485875658171400,8.91617138671875,-1.7813386421263218,10.76347258592844,3.5995723059296605
1759485875668229600,8.926229736328125,-1.6842857966065405,10.824414838147163,4.115129964983463
1759485875678286600,8.93628662109375,-2.2625819436460732,10.614791259980201,2.8795179102033375
1759485875688343600,8.946343505859375,-3.2045003904312845,10.945264738839864,1.5205705676555632
1759485875698401500,8.956401611328126,-3.737053607949614,11.252455541789532,0.635739085900411
1759485875708458500,8.96645849609375,-3.7666128799110647,10.963560273987055,0.6083113460749388
1759485875718515500,8.976515380859375,-4.251512950372696,10.22002855656147,0.7457658331532031
1759485875728573400,8.986573486328124,-4.346837949186563,9.702508657523989,0.19403430630378424
1759485875738630700,8.996630615234375,-3.7273961372882125,10.181286445713043,-0.7088752684555948
1759485875748687600,9.0066875,-2.7474755843669176,10.806736558115482,-1.8833590469256043
1759485875758745300,9.016745361328125,-1.1212836648106574,9.532712062832713,-3.970254461058974
1759485875768802300,9.02680224609375,1.1196087173357605,7.258278937873244,-4.749168165250122
1759485875778860500,9.036860595703125,2.8168793754607435,5.635418208566308,-2.552398417946696
1759485875788917500,9.04691748046875,-1.4767711734175681,3.953139660128951,0.42441053044646976
1759485875798974500,9.056974365234375,6.491898259779811,-1.1189134285479783,0.43157633042261
1759485875809031400,9.067031494140625,-1.0871990243792533,-11.672268515312672,3.833311503699422
1759485875819089400,9.07708935546875,-16.704272502195835,-11.503886463594435,7.5904241493374105
1759485875829146600,9.087146728515625,-8.419449207392335,-14.25459503853321,16.988763982081412
1759485875839203600,9.09720361328125,-5.653531957405805,-19.766744010305402,18.9456579285562
1759485875849261600,9.107261474609375,-3.3809012056931853,-14.901015458250045,7.462617853635549
1759485875859318500,9.117318603515624,-5.321982373747229,-4.577479765462875,-0.048249377650488166
1759485875869375500,9.12737548828125,-5.188340211498737,3.1201240711331364,0.22323177748182788
1759485875879433500,9.13743359375,-5.622988350582123,5.77648321429193,1.8253811974704264
1759485875889490700,9.14749072265625,-6.691518330326676,5.295566660508513,2.8159081923410296
1759485875899547600,9.157547607421876,-7.720777791434526,3.4477421605616807,3.5039164677262304
1759485875909605400,9.16760546875,-7.883897977101802,-0.34507191305458546,3.728725047804415
1759485875919662600,9.17766259765625,-8.574164552807808,-11.371585779082775,1.466164293076843
1759485875929719600,9.187719482421874,-10.030776735293864,-23.192776443362234,-5.022090495634079
1759485875939777500,9.197777587890625,-10.572945337897538,-25.5912334228754,-8.610143044161797
1759485875949834500,9.20783447265625,-7.131391510581969,-21.658581839501856,-7.908134008213877
1759485875959891500,9.217891357421875,-0.6765759040057658,-16.433774476349353,-6.644758917239308
1759485875969949400,9.227949462890624,7.762904284024238,-11.464633480614424,-6.5963388774633405
1759485875980006400,9.23800634765625,20.63304753639698,-7.844166270694136,-8.311386892080307
1759485875990063400,9.2480634765625,22.27565224609375,-8.102451296177506,-10.56076507076025
1759485876000121600,9.25812158203125,19.346257667565343,-7.59993724309206,-8.945932749608158
1759485876010178600,9.268178466796876,16.279556559062,-5.115131182903051,-6.340203723490238
1759485876020235500,9.278235595703125,10.44213050802946,-2.235459543442726,-3.1185961309134957
1759485876030293500,9.28829345703125,5.484368984442949,0.5239806194841862,0.6226547825954855
1759485876040350500,9.2983505859375,4.29611547768712,2.0320015021681783,1.702419273059815
1759485876050407400,9.308407470703125,4.3477126861944795,3.6558968352198598,2.2591443704128262
1759485876060465700,9.318465576171874,4.424524123196304,6.20207710930407,2.747338221722841
1759485876070522600,9.328522705078125,4.04673710449785,8.656781461218,2.825135454891622
1759485876080579600,9.33857958984375,5.5839481335699555,10.53179850399494,1.7901926874503493
1759485876090636500,9.348636474609375,7.35135060480237,11.302881076169013,-0.4318531015373766
1759485876100694500,9.358694580078126,7.42453274539113,10.589960770106314,-3.268920840154588
1759485876110751500,9.36875146484375,6.656126114428043,10.585974330818653,-4.543627764743566
1759485876120808700,9.37880859375,6.639760670560598,10.931811383026838,-5.1692508956253524
1759485876130866400,9.388866455078125,6.045070438081026,10.892768827927112,-6.042617199710011
1759485876140923400,9.39892333984375,3.889104702591896,10.533077437889576,-6.7916083515852685
1759485876150980400,9.40898046875,2.008189249426126,9.80047452623546,-7.24135176846981
1759485876161038300,9.419038330078125,0.8310381514430045,9.037660016191005,-6.58617462632358
1759485876171095600,9.429095458984374,-0.37329785405304283,7.518218160304427,-6.2348261172175405
1759485876181152500,9.439152587890625,-2.368790155524015,5.915018409278988,-6.260704070317745
1759485876191210500,9.44921044921875,-3.6195652926445003,3.960400006520748,-7.212085926496982
1759485876201267500,9.459267333984375,-0.7136451132059097,-0.8259586562216281,-9.710860890805721
1759485876211324400,9.469324462890626,-1.6695307105451822,-6.789022426745295,-9.73398983745873
1759485876221381000,9.479381103515625,-0.6261451089292764,-9.152453101062774,-5.410948358923196
1759485876231439000,9.489439208984376,2.7612463355660437,-12.957767759811878,-2.5657734478265044
1759485876241496000,9.49949609375,2.296357956519723,-19.729072743558884,-1.5326178560629486
1759485876251553000,9.509552978515625,0.3443406761705875,-28.488792601203915,1.5410409626238046
1759485876261611300,9.519611328125,-0.7688719103872775,-29.927724165570734,6.702689128160476
1759485876271668200,9.529668212890625,-1.5287772549867629,-25.96557994573116,12.622627458184956
1759485876281725200,9.53972509765625,-1.2072434539079666,-21.95702936402559,13.040052075266837
1759485876291783200,9.549783203125,0.2727215471148491,-16.53702325389981,11.143610551667212
1759485876301840100,9.559840087890626,0.49319589738100766,-10.41033251723051,14.107486076468229
1759485876311897000,9.56989697265625,-0.5350035332798958,-6.149753632348776,14.94703369758129
1759485876321955300,9.579955322265626,-1.377303083449602,-4.566439316010475,11.848980003958939
1759485876332012300,9.59001220703125,-4.555758055259287,-3.4703426994264124,5.809761214515566
1759485876342069200,9.6000693359375,-7.390667885190248,-1.3777221856445074,0.5784452366540208
1759485876352126200,9.610126220703124,-2.3808304296687246,0.5911877773165702,-2.0654589506119487
1759485876362184000,9.620183837890625,2.0091084100976584,1.6196405982166528,-3.3726477566108106
1759485876372241000,9.630240966796874,-3.081590634599328,2.9950936698853967,-2.245031527777761
1759485876382298000,9.640298095703125,-10.053177952194213,4.28897262019515,-0.949619084290415
1759485876392356000,9.650356201171874,-9.45645709066987,3.758029760482907,0.0404223190203309
1759485876402413000,9.6604130859375,-3.8746296025156974,4.278512600979209,0.394193050304614
1759485876412470000,9.670469970703126,-2.7179689193755387,5.9455994255036115,1.4753402638316153
1759485876422527000,9.68052685546875,-5.367998859512806,7.642187069800496,1.4409357437960804
1759485876432585200,9.690585205078126,-5.473132135635614,8.25972100225091,2.7421035359397528
1759485876442642200,9.70064208984375,-3.3216660496532917,8.281263556495308,3.7475437300428744
1759485876452699100,9.71069921875,-1.2590054975882172,8.821786729979515,3.0877272376582026
1759485876462757000,9.720757080078124,-1.2756389447420835,9.361456501504778,3.3222000103995204
1759485876472814000,9.73081396484375,-2.154560837127268,9.693000824466347,3.1203333299696445
1759485876482871000,9.74087109375,-3.4418542715668674,9.870631766045094,1.5696693834759294
1759485876492929300,9.75092919921875,-4.7536374196186655,10.054924503600597,0.6724785516895353
1759485876502986200,9.760986328125,-5.899679385849833,10.010189874339103,-0.13313932729288935
1759485876513043200,9.771043212890625,-5.458044456619024,9.95083167644143,-0.550546993239969
1759485876523100200,9.78110009765625,-4.154118744069337,9.66466671038568,-1.0475895561117679
1759485876533158100,9.791158203125,-2.548148359286785,9.251071296203136,-1.8135073659338057
1759485876543215000,9.801215087890625,0.007860358111560344,9.604811668881773,-2.2391249340824784
1759485876553272300,9.811272216796874,7.7112734655082225,8.912760547846554,-4.876314827999472
1759485876563330000,9.821330078125,20.737796197116374,3.027977117833495,-10.198367344373464
1759485876573387300,9.83138720703125,16.295689363217353,-2.306198967054486,-7.6500114798158405
1759485876583444200,9.8414443359375,-1.4327449846863747,-1.752316545781493,-2.586147250552475
1759485876593501200,9.851501220703126,1.471634979572892,-2.3418904581606386,0.43061179623939094
1759485876603559000,9.861558837890625,-6.500773640152811,-9.058139325118065,3.094081575120985
1759485876613616000,9.8716162109375,-19.496935720288754,-9.994573787534236,7.24955845580101
1759485876623673000,9.881673095703125,-7.138158520498871,-11.189430053555965,14.633865573787688
1759485876633731000,9.89173095703125,-4.04939346422553,-21.09615955342054,18.277485111236572
1759485876643788000,9.9017880859375,-6.700199649432301,-20.43382610977888,12.87385613541603
1759485876653845000,9.911844970703125,-5.932794304466247,-8.657128667220473,5.966052430945634
1759485876663902000,9.92190185546875,-4.373353031146526,0.77849080260396,1.8602834378950297
1759485876673960200,9.931960205078125,-4.919878659915923,4.392252961927652,1.3134491815678775
1759485876684017200,9.94201708984375,-6.649457888710498,5.061279181206226,2.2729694821476936
1759485876694074000,9.95207421875,-6.778124016112089,4.585865901014208,2.069617531596124
1759485876704131000,9.962131103515626,-7.131246549153327,3.154745302659273,1.1585822988525032
1759485876714189000,9.97218896484375,-7.9056363461792465,-1.0732137536466122,-0.13831870269216595
1759485876724246000,9.98224609375,-8.783305315893887,-7.510518253451585,-0.10615871018040925
1759485876734303200,9.99230322265625,-7.703391187825798,-11.36944993609786,-0.16524912398736924
1759485876744361200,10.002361328125,-7.343177819740772,-11.463972970879077,-1.566279448776692
1759485876754418200,10.012418212890625,-5.7621676886916156,-10.146989039313793,-1.8194507845081387
1759485876764475100,10.02247509765625,-2.8509266064912078,-8.0289429923743,-1.779161298087239
1759485876774532000,10.032531982421874,0.9817937994472682,-5.128853418785333,-1.869605977513641
1759485876784590300,10.04259033203125,7.145359245657921,-3.2658295961409807,-2.0804729798704384
1759485876794647300,10.052647216796874,11.55438214060068,-2.1336896062731743,-2.2811828914806247
1759485876804704300,10.062704345703125,10.186694442236423,-0.8626128548800944,-2.608904733544588
1759485876814762200,10.07276220703125,7.001563353663682,-0.24246610958278178,-1.8027791973009704
1759485876824819200,10.082819091796875,4.4296161856383085,-0.2706733824133873,-0.18753887986987827
1759485876834876200,10.092876220703126,1.169784441672638,-0.26194004085958,1.1552573922134934
1759485876844933000,10.10293310546875,-0.6455676022797823,-0.36346798596680163,1.451166484300792
1759485876854991000,10.1129912109375,-0.5264011611619964,-0.250602654287219,1.407462367130816
1759485876865048000,10.123048095703124,0.9197393482029438,1.0124363366007805,1.7196689524158835
1759485876875105000,10.13310498046875,2.323241871792078,3.22228271535933,2.412958090813458
1759485876885162200,10.143162353515624,3.3511890812575813,5.147403805476427,2.8729218729391692
1759485876895220000,10.153219970703125,4.1094659478724,6.060317107051611,2.6160516826897857
1759485876905277200,10.163277099609376,4.537752150708437,5.777890158480406,1.1777997711502015
1759485876915334100,10.173334228515625,4.777563946390152,4.5017163762092585,-1.702821277989447
1759485876925391000,10.18339111328125,4.453291075736284,3.027260493996739,-4.595220297075808
1759485876935449000,10.193448974609375,4.2259892175376415,2.3838550381869075,-6.582074789789319
1759485876945506000,10.203506103515625,3.7293805891036986,2.4963287402004,-7.662620201498269
1759485876955563000,10.21356298828125,3.967959043598175,3.0168402222692965,-8.326766247519851
1759485876965621200,10.223621337890625,3.674057930332422,3.3786721314668653,-9.133252141508459
1759485876975678200,10.23367822265625,3.100587011492252,4.113730619579553,-9.659331194576621
1759485876985735200,10.243735107421875,3.115401134264469,4.629562419399619,-9.694639239323138
1759485876995792100,10.253792236328126,2.982767272275686,4.166363308614492,-9.33351518613398
1759485877005850000,10.26385009765625,1.520735402828455,3.324025764521956,-8.095623495984077
1759485877015907000,10.273906982421876,-0.037948330122232435,2.4789514889419078,-6.364905034026503
1759485877025964000,10.283964111328125,-0.5910293718844651,1.5953443613499403,-3.5037001946270463
1759485877036021200,10.294021240234375,0.1438671853984706,0.4653787929117679,1.256701020038128
1759485877046079200,10.304079345703125,-4.095644343268871,-7.553910235932469,-0.048206104764342304
1759485877056136200,10.31413623046875,-10.401019914484024,-16.11762295283079,-0.8732990840673446
1759485877066193200,10.324193115234374,-9.897544322890043,-17.555876471805572,2.455629065543413
1759485877076250000,10.33425,0.44584341377131637,-14.84585763465166,8.69038504013419
1759485877086308400,10.344308349609374,5.052163562336564,-14.196266768205165,11.167049879443645
1759485877096365300,10.354365234375,2.610045720273256,-15.039853435575962,9.414299618420005
1759485877106422300,10.36442236328125,-1.3994162771888077,-14.219722462594508,8.044466140198708
1759485877116479200,10.374479248046875,-2.6790850619688626,-9.694642161932586,9.497973926928639
1759485877126537000,10.384536865234375,-2.776018372762203,-6.454309410619735,10.683757828700541
1759485877136594200,10.39459423828125,-3.368992156712711,-3.7313539350032805,11.99898001129031
1759485877146651100,10.404651123046875,-3.892267842797935,-1.9088135139167308,11.053322962498664
1759485877156708400,10.414708251953124,-3.809432615461945,-1.9143261398583649,8.652096518272161
1759485877166766000,10.42476611328125,-3.6903371572211383,-1.6047002187162638,6.29571926959753
1759485877176823000,10.434822998046876,-4.140030305223167,-1.0690291614383458,3.94999931627661
1759485877186880000,10.4448798828125,-3.5276042173057793,-0.75892685495615,2.85016760481745
1759485877196937000,10.45493701171875,-2.3919135492190717,-1.2488701802819966,2.3189663864299654
1759485877206995200,10.4649951171875,-2.031841343170404,-2.219883204126358,1.335629303063452
1759485877217052200,10.47505224609375,-2.126585911747813,-2.502200262582302,1.2911584393046796
1759485877227109000,10.485109130859374,-3.385090181815624,-1.8945634547680614,1.291665658174455
1759485877237166000,10.495166015625,-4.510151611599325,-0.9607406361550093,1.711269665122032
1759485877247224000,10.50522412109375,-5.820992802625894,0.4002203843027353,2.387173368954658
1759485877257281000,10.515281005859375,-6.056805299538373,2.237375606197119,2.9143174209058285
1759485877267338000,10.525337890625,-5.784258524468541,3.349707318267226,3.1326684954077004
1759485877277395200,10.535395263671875,-6.120022510951757,4.6861476454526185,3.2201231992378827
1759485877287453200,10.545453125,-7.152711946508288,5.780783541834354,3.101896048264205
1759485877297510100,10.55551025390625,-7.131082298502325,5.930799915778636,2.2830872637972233
1759485877307567000,10.565567138671875,-7.026909391844272,6.197796655505895,1.7606489053189753
1759485877317624000,10.5756240234375,-6.602826485916972,6.359662457197905,1.4972028438106177
1759485877327682000,10.58568212890625,-5.454478873091936,6.317191681215166,1.2816840701252221
1759485877337739300,10.5957392578125,-4.198499737587571,6.194672386005521,0.7793154899250716
1759485877347796200,10.605796142578125,-3.6268484353899955,5.59885870245397,0.36921580890379846
1759485877357853200,10.615853271484376,-3.168847185508907,4.574100644418597,0.1407452722519636
1759485877367911200,10.6259111328125,-2.409058160765469,3.6729514303952455,0.05074512172266841
1759485877377968000,10.635968017578126,-1.8592744069829583,3.4342619167417285,-0.18455131542645395
1759485877388025000,10.646025146484375,-1.3128431784987449,3.8737113186269996,-0.7339473850656301
1759485877398082000,10.65608203125,-0.36987872979193925,3.639611470851302,-1.200312923992425
1759485877408140300,10.666140380859375,0.8843918482288717,2.4857646760880945,-1.3796351796589792
1759485877418197200,10.676197265625,1.918753308650851,-0.10315466952621936,-1.750010753057152
1759485877428254200,10.686254150390624,2.004260093283653,-2.1782944716751573,-2.3890125670805573
1759485877438311200,10.696311279296875,2.4044208563536404,-1.1551298203110694,-2.503269353118539
1759485877448369200,10.706369140625,3.383743151120841,-0.9676175361871718,-2.1980489734590054
1759485877458426000,10.716426025390625,4.085566601368785,-1.767272122851014,-1.8132481304757295
1759485877468483300,10.7264833984375,4.140437716980278,-3.889671104303002,-0.8213225939188152
1759485877478540300,10.736540283203125,2.981583615449071,-6.859782308623195,0.6348405296254903
1759485877488598000,10.746597900390626,0.8157862217754125,-8.260948498219252,2.47909645037055
1759485877498655000,10.756655029296875,-0.2739271235123277,-7.580520010438561,5.325311225908995
1759485877508712000,10.7667119140625,-0.13271657183617352,-5.691227189549803,8.037160201099514
1759485877518769200,10.77676904296875,0.23251374762803315,-3.0570693568050857,8.990684330004454
1759485877528826000,10.786826171875,-1.3222241703063249,-0.7546458166360854,7.621884871006012
1759485877538884000,10.796884033203124,-3.962082260519266,0.43259529820680614,5.270529834407568
1759485877548941000,10.806941162109375,-4.483762786367535,0.8706021000683307,3.035888037088513
1759485877558998000,10.816998046875,-3.8714287606477735,0.8597586344927549,1.0195188422076404
1759485877569055000,10.827054931640625,-3.623526012969017,0.6513952855199575,-0.5884655858110636
1759485877579113200,10.83711328125,-3.336732101359963,0.7289806295037269,-1.4426174132727085
1759485877589170200,10.847170166015625,-3.0491321340650317,0.7247060209244489,-1.8108477913357317
1759485877599227100,10.85722705078125,-2.900533810225129,0.6915256358563899,-2.0135715269863605
1759485877609284000,10.8672841796875,-2.902008851213753,0.8593103062033652,-2.1601719550073146
1759485877619341000,10.877341064453125,-2.840135455624759,0.7774211275458336,-2.3395753130860624
1759485877629399000,10.88739892578125,-2.640911690919101,0.43897827724218363,-2.548696640819311
1759485877639456000,10.8974560546875,-2.4272876449391245,-0.25590543687045575,-2.5281430976122614
1759485877649513200,10.90751318359375,-2.2322589938357473,-0.7862222736388444,-2.369718084023893
1759485877659570200,10.917570068359375,-1.9001266418531535,-1.1093062267690896,-2.1205539381071925
1759485877669628200,10.927628173828126,-1.3617422339633107,-1.2144628837674856,-1.6857698976844548
1759485877679685000,10.93768505859375,-0.5703264833346009,-0.9538239886343478,-0.9946731547646224
1759485877689742000,10.9477421875,0.2408852701321244,-0.7632792049467563,-0.41003099969923495
1759485877699799000,10.957799072265624,0.907627470126748,-0.6332219154477119,0.20885208233781158
1759485877709857300,10.967857177734375,1.1383037731945513,-0.6404051049500703,0.685876889379695
1759485877719914200,10.977914306640624,1.1048454479679464,-0.38755671756267546,0.7323726830948144
1759485877729971200,10.98797119140625,0.634193390828371,-0.12059504914879798,0.6982523137629032
1759485877740028200,10.998028076171876,0.264291864682734,-0.308600669747591,0.711568233866617
1759485877750085000,11.008085205078125,-0.0690440178707242,-0.25850948188900946,0.827672401336953
1759485877760143000,11.01814306640625,-0.48299599040597674,-0.06710486650168895,0.7486294789560138
1759485877770200300,11.028200439453125,-0.8937497514218091,0.4539724327564239,0.6497016333445906
1759485877780257300,11.03825732421875,-1.4544333771422504,1.0232406392097473,0.4130255053400993
1759485877790314200,11.048314208984374,-1.95706228877902,1.286093118739128,0.09072619978152215
1759485877800371200,11.05837109375,-1.9305448687314986,0.8666817117542028,0.0069756111662834875
1759485877810429200,11.06842919921875,-1.4844137971252203,0.1940805565983057,0.25040713171511886
1759485877820486100,11.078486083984375,-0.8029477829903364,-0.36494857991337776,0.46528600006178017
1759485877830543000,11.088543212890626,-0.06942775649130344,-0.9439350473046302,0.6649600658182054
1759485877840600300,11.098600341796875,0.7728019433125853,-1.2387298945397138,0.9016708998098969
1759485877850658300,11.108658203125,1.4924644171118735,-1.0846879183411597,0.6866786342166363
1759485877860715300,11.11871533203125,1.968642251935601,-0.4878063132971525,-0.3800998256854713
1759485877870772200,11.128772216796875,2.000457778391242,-0.32108605731129647,-1.078741138765961
1759485877880829200,11.1388291015625,1.4111498234719038,-0.8767261359065771,-1.2484111844681203
1759485877890886100,11.14888623046875,0.08420534664541482,-0.6604869389921426,-1.7608982039049266
1759485877900944100,11.158944091796876,-0.8128633200660348,-0.3355038742423057,-1.8738176038593053
1759485877911001000,11.1690009765625,-1.3232429919600486,-0.11690963863432406,-1.7573538092963397
1759485877921058300,11.179058349609376,-1.1897744327127933,0.26681319985389707,-1.3820616761535405
1759485877931115300,11.189115234375,-0.6235939631417393,0.2911936078727245,-0.8095634017378092
1759485877941172200,11.199172119140625,-0.07855389675498008,0.1465840614080429,-0.4071576362200081
1759485877951230000,11.20922998046875,0.28072628213316203,-0.05372749853432178,-0.16265023006796836
1759485877961287000,11.219286865234375,0.37436610433906314,-0.009558686462044715,-0.11412483022138475
1759485877971344100,11.22934423828125,0.2030439075157046,0.019277531921863555,-0.33817280119061466
1759485877981401000,11.239401123046875,-0.14532266317009926,0.6239157424420118,-0.5870068383701146
1759485877991458300,11.249458251953126,-0.49375148543715475,1.039157170265913,-0.440191744685173
1759485878001516000,11.25951611328125,-0.5417193975314497,0.9243184926867485,-0.2920475943535566
1759485878011573000,11.269572998046876,-0.6395914504796266,0.8037479934573173,-0.3912276611603796
1759485878021630000,11.2796298828125,-0.5247136099338531,0.6180453891038894,-0.45710050164908167
1759485878031687000,11.28968701171875,-0.363308703751862,0.7879284930348396,-0.2599463828243315
1759485878041744100,11.299744140625,-0.08794073378145695,0.9617740708559751,-0.11671630801931022
1759485878051802000,11.309802001953125,0.27209230930060146,0.7669727987676859,0.015760902103036642
1759485878061859000,11.319859130859374,0.11908376780301332,1.0516209305197,0.1728936839237809
1759485878071916000,11.329916015625,0.20188100121617317,1.1192904451668262,0.12969707788452506
1759485878081973000,11.339972900390626,0.2772491075418889,1.412046480050683,0.09305164705440401
1759485878092030000,11.350030029296875,0.36447131779044867,1.5854782163739203,0.21650310854762791
1759485878102088200,11.360088134765626,0.47763563241660595,0.8030816385030746,0.44892070232480763
1759485878112145200,11.370145263671875,0.46773237030059095,-0.37998014482855796,0.277762756152451
1759485878122202000,11.3802021484375,0.23463556208759545,-2.1856892581015823,0.1617579574033618
1759485878132259000,11.390259033203124,0.40179567079544065,-4.965602884736657,1.3708460162647067
1759485878142316000,11.40031591796875,1.1723235316962004,-4.851185062918066,2.4035296066023406
1759485878152374000,11.4103740234375,1.8770324742525815,-1.58402392591238,1.2240826527670026
1759485878162431200,11.42043115234375,1.9917337891876696,0.6349608680695294,-0.37428266383931036
1759485878172488200,11.43048828125,1.6868527244850993,1.4622832138597965,-1.0123625407122074
1759485878182545200,11.440545166015625,1.2476771711051464,1.3003940312922,-1.047593428569287
1759485878192602000,11.45060205078125,1.0570102223426103,-0.6611012714982032,0.042070232357829807
1759485878202659000,11.4606591796875,0.7788610972210764,-2.0257856963932515,1.2872909502215684
1759485878212717000,11.470717041015625,0.25060323880910873,-0.8641396260559558,1.3324271460212767
1759485878222774300,11.480774169921874,-0.1621495870694518,-0.05005085584819317,0.882311827084422
1759485878232831200,11.490831298828125,-0.7142632451042532,1.110366549476981,0.12360007618367672
1759485878242888200,11.50088818359375,-1.2421171988904476,1.973259974864125,-0.7695923336163163
1759485878252945200,11.510945068359375,-1.2624556380420922,1.4402350481808184,-1.2638079294338822
1759485878263003400,11.52100341796875,-1.277375851537287,0.6793436151534319,-1.3636086123570799
1759485878273060400,11.531060302734375,-1.255589259403944,0.40117549307048317,-1.3081702182516455
1759485878283117300,11.541117431640625,-1.1454293872907757,0.48601650727093215,-1.1887477200135588
1759485878293174300,11.55117431640625,-0.8257368301644921,0.3009761662185192,-0.8583394153445959
1759485878303231200,11.561231201171875,-0.3764478790491819,0.020582769301533698,-0.3779246736034751
1759485878313288200,11.5712880859375,-0.17849515719264744,-0.14623510183990002,0.06447510251998902
1759485878323346400,11.581346435546875,-0.18238982654362915,-0.016312836897373197,0.2885904396370053
1759485878333403400,11.5914033203125,-0.37218700673431154,0.690598584139347,-0.1428150642633438
1759485878343460400,11.60146044921875,-0.4695926112145185,0.9735866737246512,-0.6084577688083053
1759485878353517300,11.611517333984375,-0.2693225523263216,0.031027006426453587,-0.27889702087938784
1759485878363574300,11.62157421875,0.07039397117495537,-0.8852356055766344,0.2700862301751971
1759485878373631200,11.63163134765625,0.22268121266067026,-0.5445721566140651,-0.2800304088234901
1759485878383689500,11.641689453125,0.5578542475134134,-0.880185920971632,-0.31548399952054024
1759485878393746400,11.651746337890625,0.6963786288455128,-0.8223410502463578,-0.28436785350590943
1759485878403803400,11.661803466796876,0.8060106776922941,-0.8047779210269451,-0.24549159488379954
1759485878413860400,11.6718603515625,0.7100900510728358,-0.6704162123322487,-0.2581231129199266
1759485878423917300,11.681917236328125,0.6802668674781918,-0.5747030909836292,-0.21241496245115996
1759485878433975300,11.691975341796875,0.5397358224987984,-0.14784662868976592,-0.4129311050549149
1759485878444032300,11.7020322265625,0.5960533375263214,-0.553770777592063,-0.2167629285275936
1759485878454089500,11.71208935546875,0.6612478403620422,-0.7975719351708889,0.0724707774490118
1759485878464146400,11.722146484375,0.7496871713154017,-0.17118541870117188,-0.14799188237935304
1759485878474203400,11.732203369140626,0.6474620377242565,0.27833471082150935,-0.3131108406484127
1759485878484260400,11.74226025390625,0.4747407877579331,0.40300212397575375,-0.20348112988919018
1759485878494318300,11.752318359375,0.20428397070467472,0.37480654158294197,-0.100771866042912
1759485878504375300,11.762375244140625,-0.20259002626836298,0.4376210174143314,-0.08384528116136789
1759485878514432300,11.772432373046875,-0.3461255137607455,0.6697405050277709,-0.22843261579424143
1759485878524489500,11.782489501953124,-0.6336287426829338,0.8781126218289136,-0.1094791963726282
1759485878534546400,11.79254638671875,-0.517936370883882,1.0430571003139018,-0.3175029381275177
1759485878544603400,11.802603271484376,-0.5038020470693707,1.3217641515791416,-0.9383607543036341
1759485878554661400,11.812661376953125,-0.6089613344162702,1.2687199591338634,-1.4475249129280447
1759485878564718300,11.82271826171875,-0.5445025985091925,0.6814169142961501,-1.2503276856139303
1759485878574775300,11.832775390625,-0.2832566773936152,-0.16252280429601668,-0.5367790185198188
1759485878584832300,11.842832275390625,0.03310118235200643,-0.650959816712141,0.07711568064540625
1759485878594889500,11.852889404296874,0.3349500397518277,-0.9863801043242215,0.46954643398523327
1759485878604946400,11.862946533203125,0.6989420495927333,-1.0606342580586672,0.8016700181394815
1759485878615003400,11.87300341796875,0.8841215068548918,-0.6818687497168779,0.8036953864872455
1759485878625061400,11.883061279296875,0.843956085205078,-0.5012789583325385,-0.054933074931800364
1759485878635118300,11.893118408203126,0.7998381265372038,-0.43269232884049413,-0.9245134307369589
1759485878645175300,11.90317529296875,0.7685293805599213,-0.3064110507488251,-1.0930568104967475
1759485878655232300,11.913232177734375,0.6796829301103949,-0.17667992446422576,-0.7148378301218151
1759485878665289500,11.92328955078125,0.5390630378037691,-0.14493161802589893,-0.0921057445064187
1759485878675346400,11.933346435546875,0.29782647001594303,-0.18638240331113337,0.2693666837289929
1759485878685404400,11.943404296875,-0.10517769978642463,-0.02610708568096161,0.2265525011360645
1759485878695461400,11.95346142578125,-0.5512763304278254,0.22312252668738364,-0.03569967441260814
1759485878705518300,11.963518310546876,-0.887606718622148,0.35059681395590303,-0.2360515663653612
1759485878715575300,11.9735751953125,-0.943234205558896,0.3934463601231575,-0.1818304390951991
1759485878725632300,11.98363232421875,-0.8852733072385192,0.4232850335478782,0.17770546811968088
1759485878735689500,11.993689453125,-0.8028884540185331,0.38879941110014915,0.6421773753196001
1759485878745746400,12.003746337890625,-0.609776742452383,0.33312487015128134,0.8455126669973134
1759485878755804400,12.013804443359374,-0.4496954860895872,0.3653121525287628,0.7724445081770419
1759485878765861400,12.023861328125,-0.35776626719385385,0.37720775750577445,0.5752230232045054
1759485878775918300,12.03391845703125,-0.2776896909162402,0.17499065620303153,0.34846710845082995
1759485878785975300,12.043975341796875,-0.031330957809090614,-0.10195990678369998,0.24759791951328514
1759485878796032300,12.0540322265625,0.1286354400023818,-0.24375381130576132,0.3077209643036127
1759485878806089500,12.06408935546875,0.2499266547217965,-0.4872171152323484,0.3804012928500771
1759485878816147200,12.074147216796876,0.37166853581815956,-0.6946142495214939,0.42395401885062456
1759485878826204400,12.084204345703125,0.4202209698021412,-0.5771119056910277,0.35966070263832806
1759485878836261400,12.094261474609375,0.34251024587303397,-0.16975743172466753,0.10402122322767972
1759485878846318300,12.104318359375,0.1046036992907524,0.1831049890756607,-0.23133155210614204
1759485878856375300,12.114375244140625,-0.09342179554104804,0.1830348464488983,-0.45397038692981
1759485878866432300,12.124432373046876,-0.18483955778330563,0.0950228009968996,-0.540387272144854
1759485878876489500,12.134489501953125,-0.170808402082324,0.07444236978292465,-0.4719254380762577
1759485878886546400,12.14454638671875,-0.039833997738361354,-0.013383797708153724,-0.3429346087649464
1759485878896604400,12.1546044921875,0.14864888498336076,-0.11748889982700347,-0.15177403126657008
1759485878906661400,12.164661376953125,0.2517398416236043,-0.11608546276986598,-0.07823153293281793
1759485878916718300,12.17471826171875,0.13167290800213813,0.03568564588725567,-0.22956658826023338
1759485878926775300,12.184775390625,-0.044699557948112485,0.08080547507405281,-0.4500783479273319
1759485878936832300,12.194832275390626,-0.15871289061903954,0.09557283609509468,-0.5880822125166654
1759485878946889500,12.204889404296875,-0.1718964895799756,0.03572890050709247,-0.5691609466865658
1759485878956946400,12.214946533203126,-0.020268588785827157,-0.21075287445783614,-0.4422548146948218
1759485878967004400,12.22500439453125,0.26180647760778664,-0.4514917218565941,-0.278754982060194
1759485878977061400,12.235061279296875,0.5613979114696384,-0.4744172548919916,-0.10769026712924241
1759485878987118300,12.245118408203124,0.762776223860681,-0.36975334984660146,0.08642185365110636
1759485878997175300,12.25517529296875,0.7411281634151935,-0.1082464397072792,0.16303455321043728
1759485879007232300,12.265232177734376,0.34996143866181373,0.22242402302920816,-0.0033063480690121647
1759485879017289500,12.27528955078125,-0.031303485280275344,0.258829215362668,-0.22045652234852312
1759485879027346400,12.285346435546876,-0.2736035906463861,0.1253168169736862,-0.23305384585410355
1759485879037404400,12.295404296875,-0.41512130857557056,0.16011808124184607,-0.15616408291906117
1759485879047461400,12.30546142578125,-0.46776071961224075,0.2701034735709429,-0.17023878550082444
1759485879057518300,12.315518310546874,-0.43047611409574743,0.21449206098616122,-0.22118249853551386
1759485879067575300,12.3255751953125,-0.36091771696209907,0.07740881837308407,-0.2738341845318675
1759485879077632300,12.33563232421875,-0.27702304370105263,0.08170622330605984,-0.19575228920280932
1759485879087689500,12.345689453125,-0.16758885551393032,0.12255436652302741,-0.14312807573527098
1759485879097746400,12.355746337890626,0.0036997313007712364,0.09404489587545395,-0.10299217244088649
1759485879107803400,12.365803466796875,0.1898398502886295,0.015940496453642844,-0.05129910234361887
1759485879117860400,12.3758603515625,0.36089199799895283,-0.04139876283705234,-0.03515314644575119
1759485879127918300,12.38591845703125,0.42494156858325,-0.13501052799224852,-0.022013678887486458
1759485879137975300,12.395975341796875,0.41450288441628214,-0.25397709915637967,-0.0477010778516531
1759485879148032300,12.4060322265625,0.30781857945919033,-0.25610358979105946,-0.10085369910746812
1759485879158089500,12.41608935546875,0.14709727162718772,-0.19352701436877248,-0.11167758319973944
1759485879168146400,12.426146484375,0.28295506409853693,-0.2779319752395153,-0.06891746888160705
1759485879178203400,12.436203369140625,0.40219577602893114,-0.2693178761512041,-0.05611351688802242
1759485879188260400,12.44626025390625,0.19512217460572717,-0.03326104908883572,-0.05832388641387224
1759485879198317300,12.4563173828125,-0.042026831607520576,0.19984043529927728,0.025076573589444158
1759485879208375300,12.466375244140625,-0.08182166637927293,0.19521336002051828,0.05928513266146183
1759485879218432300,12.476432373046874,0.22555764487981794,0.06741115597188473,0.05179156203567981
1759485879228488700,12.48648876953125,0.09806173030138016,0.053850248131155964,-0.012603753246366978
1759485879238545700,12.496545654296876,-0.6887897811517119,0.08584639185070991,-0.1592535733669996
1759485879248603000,12.506602783203125,-1.309265612272918,-0.01683306137919426,-0.12014935120791197
1759485879258659800,12.516659912109375,-0.7684656676739454,-0.2732300811588764,0.07371025611609221
1759485879268716800,12.526716796875,-0.003452186280488968,-0.17040215936899183,0.1397939628764987
