time,seconds_elapsed,z,y,x
1759485866767435800,0.025435791015625,-0.021912017837166786,-0.05045396089553833,0.08471599966287613
1759485866777493000,0.035492919921875,-0.02703673765063286,-0.0828302726149559,0.08863378316164017
1759485866787550000,0.045550048828125,-0.024655934423208237,-0.10754451900720596,0.08624973893165588
1759485866797607000,0.05560693359375,-0.023514501750469208,-0.11718329787254333,0.07721257209777832
1759485866807663900,0.065663818359375,-0.0248506311327219,-0.11540921032428741,0.0643688514828682
1759485866817720800,0.075720947265625,-0.0190031286329031,-0.08058597892522812,0.043251845985651016
1759485866827777800,0.08577783203125,-0.011722655966877937,-0.02480234019458294,0.01761222444474697
1759485866837835800,0.095835693359375,-0.004736651666462421,0.002128609921783209,-0.005464599002152681
1759485866847893000,0.10589306640625,-0.016409453004598618,-0.01266748271882534,-0.006328428164124489
1759485866857950000,0.115949951171875,-0.024864723905920982,-0.03813955560326576,0.0005632997490465641
1759485866868007000,0.1260068359375,-0.025867154821753502,-0.06709274649620056,0.008710343390703201
1759485866878063900,0.13606396484375,-0.012642962858080864,-0.06829569488763809,0.0045009516179561615
1759485866888120800,0.146120849609375,-0.001999567961320281,-0.05647171661257744,-0.0030612521804869175
1759485866898177800,0.156177734375,-0.001345229335129261,-0.05282611399888992,0.00134681211784482
1759485866908234800,0.16623486328125,0.004471312742680311,-0.03966207057237625,0.006783746648579836
1759485866918293000,0.17629296875,-0.004282497335225344,-0.041601914912462234,0.010530814528465271
1759485866928350000,0.186349853515625,-0.022573204711079597,-0.06782706826925278,0.01640259474515915
1759485866938407000,0.196406982421875,-0.024434754624962807,-0.10560933500528336,0.023243190720677376
1759485866948463900,0.2064638671875,-0.0067121656611561775,-0.09960713237524033,0.013142370618879795
1759485866958520800,0.216520751953125,-0.0048343706876039505,-0.0871504619717598,-0.008601007983088493
1759485866968577800,0.226577880859375,-0.01475810632109642,-0.08708452433347702,-0.02376064658164978
1759485866978634800,0.236634765625,-0.0287809818983078,-0.09712597727775574,-0.0399009995162487
1759485866988693000,0.24669287109375,-0.0335419587790966,-0.11273514479398727,-0.05007968470454216
1759485866998750000,0.25675,-0.03496408835053444,-0.12383599579334259,-0.053603846579790115
1759485867008807000,0.266806884765625,-0.04063747078180313,-0.14544755220413208,-0.059081293642520905
1759485867018863900,0.27686376953125,-0.045113977044820786,-0.1644422709941864,-0.06954698264598846
1759485867028920800,0.2869208984375,-0.043678127229213715,-0.17201021313667297,-0.08649424463510513
1759485867038977800,0.296977783203125,-0.05411691963672638,-0.18673962354660034,-0.09768138825893402
1759485867049034800,0.30703466796875,-0.0751611664891243,-0.20679417252540588,-0.1131281703710556
1759485867059093000,0.317093017578125,-0.11390509456396103,-0.2205725759267807,-0.15140791237354279
1759485867069150000,0.32714990234375,-0.1909058839082718,-0.23714132606983185,-0.2168102264404297
1759485867079207000,0.33720703125,-0.22275756299495697,-0.25939440727233887,-0.31168055534362793
1759485867089263900,0.347263916015625,-0.19494499266147614,-0.3749573826789856,-0.40061837434768677
1759485867099320800,0.35732080078125,-0.1785239428281784,-0.5917080044746399,-0.4660027027130127
1759485867109377800,0.367377685546875,-0.19463185966014862,-0.8465513586997986,-0.5213719010353088
1759485867119435800,0.377435791015625,-0.18678803741931915,-1.0025718212127686,-0.543386697769165
1759485867129493000,0.387492919921875,-0.14947305619716644,-0.9780476093292236,-0.5426510572433472
1759485867139550000,0.397550048828125,-0.0984002873301506,-0.7305070757865906,-0.5165581703186035
1759485867149607000,0.40760693359375,-0.04951716214418411,-0.3775053322315216,-0.451228529214859
1759485867159663900,0.417663818359375,-0.022200586274266243,0.004337922669947147,-0.3477572798728943
1759485867169720800,0.427720947265625,0.01807270385324955,0.29640793800354004,-0.22037068009376526
1759485867179777800,0.43777783203125,0.09898246824741364,0.40826016664505005,-0.08377661556005478
1759485867189835800,0.447835693359375,0.15561801195144653,0.41601043939590454,0.015378057025372982
1759485867199893000,0.45789306640625,0.2001868039369583,0.3856445550918579,0.03436106815934181
1759485867209950000,0.467949951171875,0.2541225254535675,0.31472811102867126,-0.029733996838331223
1759485867220007200,0.478007080078125,0.29879385232925415,0.18809454143047333,-0.1492886245250702
1759485867230064000,0.488064208984375,0.3317228853702545,0.07442250847816467,-0.2978922426700592
1759485867240122000,0.4981220703125,0.38604578375816345,-0.026229534298181534,-0.42488881945610046
1759485867250179300,0.508179443359375,0.4612749218940735,-0.1187082976102829,-0.4866992235183716
1759485867260236300,0.518236328125,0.5335312485694885,-0.16417457163333893,-0.4933725595474243
1759485867270293200,0.528293212890625,0.6026727557182312,-0.18127509951591492,-0.46198663115501404
1759485867280350200,0.53835009765625,0.6532682776451111,-0.16219834983348846,-0.4099825620651245
1759485867290407200,0.5484072265625,0.660861074924469,-0.08916391432285309,-0.36790257692337036
1759485867300465200,0.558465087890625,0.6214691996574402,-0.03482211381196976,-0.3156484365463257
1759485867310522000,0.568522216796875,0.5602023005485535,-0.02071252092719078,-0.2673397362232208
1759485867320579300,0.578579345703125,0.4665279984474182,0.003544616512954235,-0.23512959480285645
1759485867330636300,0.58863623046875,0.3718627691268921,0.0175947155803442,-0.21302229166030884
1759485867340693200,0.598693359375,0.27669817209243774,-0.006889854092150927,-0.19697540998458862
1759485867350750200,0.608750244140625,0.22572477161884308,-0.017892738804221153,-0.20578792691230774
1759485867360808200,0.61880810546875,0.1958174705505371,0.002754481043666601,-0.23951712250709534
1759485867370865200,0.628865234375,0.1770308017730713,-0.011535887606441975,-0.2831675410270691
1759485867380922000,0.638922119140625,0.1675478219985962,-0.05854600667953491,-0.32251468300819397
1759485867390979300,0.648979248046875,0.15437282621860504,-0.1088535413146019,-0.3365184962749481
1759485867401036300,0.659036376953125,0.18539173901081085,-0.16359800100326538,-0.34089192748069763
1759485867411094300,0.66909423828125,0.1845872402191162,-0.17236199975013733,-0.38286277651786804
1759485867421151200,0.679151123046875,0.1481059193611145,-0.13621172308921814,-0.4143586754798889
1759485867431208200,0.689208251953125,0.09988012164831161,-0.0711817517876625,-0.4358101487159729
1759485867441265200,0.69926513671875,0.11711796373128891,-0.017333703115582466,-0.43081140518188477
1759485867451322000,0.709322021484375,0.12807723879814148,0.014634228311479092,-0.4496806263923645
1759485867461380400,0.71938037109375,0.13063973188400269,0.052464164793491364,-0.46996885538101196
1759485867471437300,0.729437255859375,0.12275347113609314,0.10175545513629913,-0.4857999384403229
1759485867481494300,0.739494384765625,0.1247929185628891,0.1372428685426712,-0.4803287386894226
1759485867491551200,0.74955126953125,0.1312960982322693,0.13138951361179352,-0.4698731601238251
1759485867501608200,0.759608154296875,0.1136356070637703,0.09157977998256683,-0.45991402864456177
1759485867511666200,0.769666259765625,0.08841338008642197,0.06794963032007217,-0.4617841839790344
1759485867521723400,0.779723388671875,0.08493209630250931,0.04579372704029083,-0.4608653783798218
1759485867531780400,0.7897802734375,0.06802121549844742,-0.013876265846192837,-0.45376694202423096
1759485867541837300,0.79983740234375,0.042740363627672195,-0.04260644689202309,-0.4398796260356903
1759485867551894300,0.809894287109375,0.04363923519849777,-0.06194653734564781,-0.4030565321445465
1759485867561952000,0.819951904296875,0.0579979307949543,-0.06434498727321625,-0.3780297338962555
1759485867572009000,0.830009033203125,0.08133760094642639,-0.06734388321638107,-0.3720933198928833
1759485867582066200,0.840066162109375,0.10650660842657089,-0.12123773992061615,-0.3604060411453247
1759485867592123400,0.850123291015625,0.08981220424175262,-0.1007668748497963,-0.33373916149139404
1759485867602181000,0.86018115234375,0.10133357346057892,-0.17754048109054565,-0.2762654721736908
1759485867612238000,0.870238037109375,0.13150538504123688,-0.2681451141834259,-0.24959896504878998
1759485867622295000,0.880294921875,0.13658589124679565,-0.2825011610984802,-0.2699183523654938
1759485867632352000,0.89035205078125,0.11289188265800476,-0.28087490797042847,-0.2914772927761078
1759485867642409000,0.900408935546875,0.13035184144973755,-0.24326999485492706,-0.32131776213645935
1759485867652467200,0.91046728515625,0.133735790848732,-0.26143679022789,-0.32542774081230164
1759485867662524200,0.920524169921875,0.14803165197372437,-0.2675330340862274,-0.33224037289619446
1759485867672581000,0.9305810546875,0.1687237024307251,-0.26766276359558105,-0.33649298548698425
1759485867682638000,0.94063818359375,0.16960494220256805,-0.26230767369270325,-0.33034825325012207
1759485867692696000,0.950696044921875,0.1705418974161148,-0.25120478868484497,-0.314100056886673
1759485867702753000,0.9607529296875,0.16767846047878265,-0.19032013416290283,-0.3002649247646332
1759485867712810200,0.970810302734375,0.15991728007793427,-0.12107276916503906,-0.2854892313480377
1759485867722867200,0.9808671875,0.16905510425567627,-0.06828652322292328,-0.28982779383659363
1759485867732925200,0.99092529296875,0.18518157303333282,-0.061646170914173126,-0.3078084886074066
1759485867742982100,1.000982177734375,0.18619677424430847,-0.09597618132829666,-0.3234875798225403
1759485867753039000,1.0110390625,0.16232381761074066,-0.13627073168754578,-0.3581947982311249
1759485867763096000,1.021095947265625,0.12592506408691406,-0.2259225845336914,-0.37353992462158203
1759485867773153000,1.031153076171875,0.09675996005535126,-0.3249984085559845,-0.3798646628856659
1759485867783211300,1.041211181640625,0.06124404817819595,-0.41092154383659363,-0.37777993083000183
1759485867793268200,1.051268310546875,0.035108886659145355,-0.45234215259552,-0.37645184993743896
1759485867803325200,1.0613251953125,0.01912485808134079,-0.4676041901111603,-0.3764829933643341
1759485867813382100,1.071382080078125,-0.005171948578208685,-0.4717608392238617,-0.37642937898635864
1759485867823440100,1.081440185546875,-0.018649406731128693,-0.47575291991233826,-0.3925292491912842
1759485867833497300,1.091497314453125,-0.01763581857085228,-0.47707599401474,-0.4331401586532593
1759485867843554300,1.10155419921875,-0.01685418002307415,-0.47860199213027954,-0.48472025990486145
1759485867853611300,1.111611328125,-0.02280186489224434,-0.4930172562599182,-0.5372532606124878
1759485867863669200,1.121669189453125,-0.02081621252000332,-0.4783163368701935,-0.5946028232574463
1759485867873726200,1.131726318359375,0.0022384002804756165,-0.42271730303764343,-0.6588771939277649
1759485867883783200,1.141783203125,0.001276200171560049,-0.3722682595252991,-0.6762359738349915
1759485867893840100,1.151840087890625,-0.01755361631512642,-0.27993813157081604,-0.6650022864341736
1759485867903898000,1.161898193359375,-0.035823166370391846,-0.17774520814418793,-0.6293955445289612
1759485867913955300,1.171955322265625,-0.04933927580714226,-0.07389367371797562,-0.5925322771072388
1759485867924012300,1.18201220703125,-0.053357455879449844,-0.03256327658891678,-0.546493411064148
1759485867934069200,1.1920693359375,-0.04059217497706413,-0.006321986671537161,-0.5186808109283447
1759485867944127000,1.202126953125,-0.0009907037019729614,-0.006010929588228464,-0.5344997048377991
1759485867954184200,1.21218408203125,0.02526411972939968,-0.005594255868345499,-0.5611778497695923
1759485867964241200,1.2222412109375,0.02525559812784195,0.0023267841897904873,-0.5672354698181152
1759485867974298000,1.232298095703125,0.016823528334498405,-0.0058056083507835865,-0.5483635663986206
1759485867984356000,1.242356201171875,-0.016287554055452347,0.006291267927736044,-0.5004213452339172
1759485867994413000,1.2524130859375,-0.05713178217411041,0.04046422988176346,-0.4335336685180664
1759485868004470000,1.262469970703125,-0.07580187916755676,0.08446045219898224,-0.3791162371635437
1759485868014527000,1.27252685546875,-0.06417541205883026,0.13165512681007385,-0.32898497581481934
1759485868024585200,1.282585205078125,-0.033265963196754456,0.13633616268634796,-0.25781014561653137
1759485868034642200,1.29264208984375,-0.0029765181243419647,0.17645668983459473,-0.15462861955165863
1759485868044699100,1.30269921875,-0.02315662056207657,0.2371394783258438,-0.04863695055246353
1759485868054757000,1.312757080078125,-0.006092373747378588,0.22944994270801544,-0.022695377469062805
1759485868064814000,1.32281396484375,0.06349868327379227,0.19021520018577576,-0.0504540391266346
1759485868074871000,1.33287109375,0.17557184398174286,0.18126875162124634,-0.15802331268787384
1759485868084928300,1.34292822265625,0.25442591309547424,0.20508725941181183,-0.271634042263031
1759485868094986200,1.352986328125,0.26379796862602234,0.2531026601791382,-0.36698055267333984
1759485868105043200,1.363043212890625,0.2514651417732239,0.26922836899757385,-0.43045806884765625
1759485868115100200,1.37310009765625,0.24771250784397125,0.28978824615478516,-0.48216110467910767
1759485868125158100,1.383158203125,0.20239296555519104,0.2639177739620209,-0.5208455920219421
1759485868135215400,1.39321533203125,0.17293579876422882,0.2460741251707077,-0.6119855642318726
1759485868145272300,1.403272216796875,0.11768665909767151,-0.009469764307141304,-0.7218399047851562
1759485868155329300,1.413329345703125,0.035974159836769104,-0.18392178416252136,-0.7644175291061401
1759485868165387300,1.42338720703125,-0.06515618413686752,-0.2733435332775116,-0.7476651668548584
1759485868175444200,1.4334443359375,-0.14181949198246002,-0.3113388419151306,-0.6943104863166809
1759485868185501200,1.443501220703125,-0.21017591655254364,-0.27549615502357483,-0.6289770007133484
1759485868195559200,1.45355908203125,-0.2075270116329193,-0.06226931884884834,-0.5954728126525879
1759485868205616000,1.4636162109375,-0.16003486514091492,0.21117232739925385,-0.6310800909996033
1759485868215673000,1.473673095703125,-0.1203419417142868,0.36223354935646057,-0.69742751121521
1759485868225730300,1.483730224609375,-0.1332380324602127,0.35296523571014404,-0.7819197773933411
1759485868235788000,1.4937880859375,-0.20398646593093872,0.33126434683799744,-0.8513823747634888
1759485868245845000,1.503844970703125,-0.3109840154647827,0.12998129427433014,-0.8942794799804688
1759485868255902200,1.513902099609375,-0.40637657046318054,0.017959151417016983,-0.9065582752227783
1759485868265960200,1.523960205078125,-0.4815067648887634,0.09714984148740768,-0.8865768909454346
1759485868276017200,1.53401708984375,-0.47306641936302185,0.13340122997760773,-0.8851408362388611
1759485868286074000,1.54407421875,-0.40199917554855347,0.23654839396476746,-0.9513766169548035
1759485868296131000,1.554131103515625,-0.41465404629707336,0.2088232934474945,-0.9573788046836853
1759485868306189000,1.56418896484375,-0.5169622898101807,0.14151109755039215,-0.9260666370391846
1759485868316246300,1.574246337890625,-0.6338983774185181,0.2947082817554474,-0.8762426972389221
1759485868326303200,1.58430322265625,-0.6997341513633728,0.474098801612854,-0.8146379590034485
1759485868336361200,1.594361328125,-0.7503566741943359,0.620768666267395,-0.7414625883102417
1759485868346418200,1.604418212890625,-0.706114649772644,0.6381897330284119,-0.5811589360237122
1759485868356475100,1.61447509765625,-0.6813545823097229,0.6853380799293518,-0.4220380485057831
1759485868366533400,1.624533447265625,-0.6290660500526428,0.6048597693443298,-0.34032613039016724
1759485868376590300,1.63459033203125,-0.6073510050773621,0.5129356980323792,-0.18509653210639954
1759485868386647300,1.644647216796875,-0.5716106295585632,0.49657028913497925,0.029693279415369034
1759485868396705000,1.654705078125,-0.5071461796760559,0.520749032497406,0.2962586581707001
1759485868406762200,1.66476220703125,-0.42659541964530945,0.5122484564781189,0.5105752348899841
1759485868416819200,1.674819091796875,-0.4293718934059143,0.5014019012451172,0.7615798115730286
1759485868426877200,1.684877197265625,-0.48935025930404663,0.4943022131919861,1.1068059206008911
1759485868436934100,1.69493408203125,-0.474340558052063,0.38466647267341614,1.4881491661071777
1759485868446991000,1.7049912109375,-0.3675214350223541,0.1654510349035263,1.8494065999984741
1759485868457048000,1.715048095703125,-0.11599971354007721,0.12975287437438965,2.1746692657470703
1759485868467106000,1.72510595703125,0.20332422852516174,0.2642238736152649,2.5883922576904297
1759485868477163000,1.7351630859375,0.5076718926429749,0.01692875660955906,2.932623863220215
1759485868487220200,1.74522021484375,0.5985730290412903,-0.3773583769798279,3.0607259273529053
1759485868497278200,1.7552783203125,0.4103127419948578,-0.890776515007019,3.0317063331604004
1759485868507335200,1.765335205078125,0.24254156649112701,-1.4950536489486694,2.9265010356903076
1759485868517392100,1.77539208984375,0.31282004714012146,-2.0202267169952393,2.9625306129455566
1759485868527450000,1.7854501953125,0.6002364158630371,-2.216355562210083,3.154817581176758
1759485868537507000,1.795507080078125,0.8770976066589355,-2.1883604526519775,3.3728134632110596
1759485868547564300,1.805564208984375,0.978905439376831,-2.1604270935058594,3.5289807319641113
1759485868557622300,1.815622314453125,0.879039466381073,-2.195056676864624,3.5619325637817383
1759485868567679200,1.82567919921875,0.6370720863342285,-2.1843066215515137,3.505892038345337
1759485868577736200,1.835736083984375,0.32316625118255615,-1.9284725189208984,3.3513031005859375
1759485868587794200,1.845794189453125,-0.030765719711780548,-1.182686686515808,3.149890899658203
1759485868597851400,1.855851318359375,-0.16023732721805573,0.06451502442359924,2.9537954330444336
1759485868607908400,1.865908447265625,0.07420259714126587,1.2096893787384033,2.761390447616577
1759485868617966000,1.875966064453125,0.6426700353622437,1.9613347053527832,2.618896245956421
1759485868628023000,1.88602294921875,1.5791101455688477,1.7229645252227783,2.4782209396362305
1759485868638080000,1.896080078125,2.466951370239258,0.9726660251617432,2.259174108505249
1759485868648138200,1.90613818359375,2.9756367206573486,-0.3320792019367218,2.181075096130371
1759485868658195200,1.9161953125,2.630606174468994,-0.6353784203529358,2.5038886070251465
1759485868668252200,1.926252197265625,2.209350347518921,-1.219887375831604,2.77241849899292
1759485868678310100,1.93631005859375,1.6085336208343506,-1.6532998085021973,2.840599775314331
1759485868688367000,1.9463671875,1.399307131767273,-2.161679983139038,2.51690411567688
1759485868698424000,1.956424072265625,1.1889638900756836,-2.733686685562134,2.108052968978882
1759485868708482300,1.966482421875,1.1110001802444458,-3.3952927589416504,1.786845326423645
1759485868718539300,1.976539306640625,0.9449995160102844,-4.59989070892334,1.5063660144805908
1759485868728597200,1.98659716796875,0.6476032733917236,-5.016158580780029,1.3573682308197021
1759485868738654200,1.996654296875,0.40810486674308777,-4.594163417816162,1.1684061288833618
1759485868748711200,2.006711181640625,0.148026704788208,-4.062905788421631,0.8552361726760864
1759485868758769200,2.01676904296875,0.146182581782341,-3.4525198936462402,0.42218342423439026
1759485868768826400,2.026826416015625,0.1787639707326889,-2.8117902278900146,-0.07654780149459839
1759485868778883300,2.03688330078125,0.20042620599269867,-2.502718925476074,-0.5822707414627075
1759485868788941000,2.046941162109375,0.16052885353565216,-2.106992483139038,-0.9066000580787659
1759485868798998000,2.056998046875,0.03540387377142906,-1.3130431175231934,-0.9879198670387268
1759485868809055000,2.067054931640625,-0.13514575362205505,-0.36761805415153503,-0.8558030724525452
1759485868819113200,2.07711328125,-0.23063001036643982,0.4819071888923645,-0.7006797790527344
1759485868829170200,2.087170166015625,-0.3200719952583313,1.2566157579421997,-0.6471291780471802
1759485868839227100,2.09722705078125,-0.3287656307220459,1.7471638917922974,-0.6429280638694763
1759485868849285000,2.10728515625,-0.285313218832016,1.9699681997299194,-0.6536014676094055
1759485868859342000,2.117342041015625,-0.18753068149089813,1.9552223682403564,-0.5953395366668701
1759485868869400300,2.127400390625,0.06669892370700836,1.6358121633529663,-0.5091074705123901
1759485868879457300,2.137457275390625,0.3923197090625763,1.298905849456787,-0.43115919828414917
1759485868889514200,2.14751416015625,0.625406801700592,1.2163459062576294,-0.3284133970737457
1759485868899572200,2.157572265625,0.729451596736908,1.297335147857666,-0.245779350399971
1759485868909629200,2.167629150390625,0.7648431062698364,1.398123860359192,-0.20458848774433136
1759485868919686100,2.17768603515625,0.7327040433883667,1.5521624088287354,-0.16285327076911926
1759485868929744100,2.187744140625,0.6822477579116821,1.8857483863830566,-0.27709540724754333
1759485868939801300,2.19780126953125,0.739799976348877,2.3890044689178467,-0.5380094647407532
1759485868949859000,2.207859130859375,0.8838388919830322,2.8426828384399414,-0.7284835577011108
1759485868959916000,2.217916015625,1.0756179094314575,3.322751522064209,-0.4751877784729004
1759485868969973000,2.227972900390625,1.2355092763900757,2.9177017211914062,-1.2117524147033691
1759485868980031200,2.23803125,0.7096620202064514,0.8355091214179993,-2.2718780040740967
1759485868990088200,2.248088134765625,-0.9326329827308655,1.6233781576156616,-2.7785465717315674
1759485869000145200,2.258145263671875,-2.7847604751586914,2.6820180416107178,-2.8098907470703125
1759485869010203100,2.268203125,-3.2817883491516113,2.64640736579895,-1.8853715658187866
1759485869020260000,2.278260009765625,-2.9689691066741943,1.7180393934249878,-0.9758924245834351
1759485869030318300,2.288318359375,-2.5315849781036377,1.1478179693222046,-0.3767336308956146
1759485869040375300,2.298375244140625,-2.146547317504883,0.6370159387588501,-0.32201021909713745
1759485869050432300,2.308432373046875,-1.960384488105774,0.01623014360666275,-0.7568538188934326
1759485869060490200,2.318490234375,-2.0059874057769775,-0.44846364855766296,-1.4344638586044312
1759485869070547200,2.328547119140625,-2.0640339851379395,-0.8067190051078796,-2.162994384765625
1759485869080605200,2.338605224609375,-2.0301272869110107,-0.6784436106681824,-3.0093002319335938
1759485869090662100,2.348662109375,-2.0164623260498047,0.188888281583786,-3.8807575702667236
1759485869100719000,2.358718994140625,-1.8674262762069702,0.20235003530979156,-4.701984882354736
1759485869110777000,2.368777099609375,-1.504983901977539,0.01960578002035618,-5.294150352478027
1759485869120834000,2.378833984375,-0.7977724075317383,-0.34810110926628113,-5.208120822906494
1759485869130891000,2.38889111328125,0.19780346751213074,0.08739762008190155,-4.967466354370117
1759485869140949200,2.39894921875,0.866836428642273,1.1502279043197632,-4.866641044616699
1759485869151006200,2.409006103515625,1.0599582195281982,2.5398857593536377,-4.694742202758789
1759485869161064200,2.419064208984375,0.7797321677207947,3.7432782649993896,-4.025970935821533
1759485869171121200,2.42912109375,0.4437921941280365,4.249750137329102,-2.8934824466705322
1759485869181178000,2.43917822265625,-0.0019535929895937443,4.055325031280518,-1.77915620803833
1759485869191236400,2.449236328125,-0.441640704870224,3.4113857746124268,-1.2109787464141846
1759485869201293300,2.459293212890625,-0.604717493057251,2.2540228366851807,-1.2366398572921753
1759485869211351000,2.46935107421875,-0.3985627293586731,0.10084553807973862,-1.0280901193618774
1759485869221408500,2.479408447265625,-0.12260223925113678,-1.9041659832000732,-0.4133168160915375
1759485869231465500,2.489465576171875,0.016139663755893707,-3.0725936889648438,0.18421606719493866
1759485869241523500,2.4995234375,-0.07011985778808594,-3.362548589706421,0.5865951180458069
1759485869251580400,2.509580322265625,-0.2959601879119873,-2.6557419300079346,0.7883484959602356
1759485869261638400,2.519638427734375,-0.45280489325523376,-1.5280377864837646,1.0088361501693726
1759485869271695600,2.529695556640625,-0.4455946683883667,-0.6455827951431274,1.2031545639038086
1759485869281752600,2.539752685546875,-0.3378381133079529,-0.39552390575408936,1.390249252319336
1759485869291810600,2.549810546875,-0.32439208030700684,-0.4196676015853882,1.5675710439682007
1759485869301867500,2.559867431640625,-0.3525843024253845,-0.5214260816574097,1.7214559316635132
1759485869311925500,2.569925537109375,-0.37320488691329956,-0.6662495732307434,1.9323309659957886
1759485869321982700,2.579982666015625,-0.392072856426239,-0.7272269129753113,2.262484312057495
1759485869332039700,2.590039794921875,-0.38356298208236694,-0.7722300887107849,2.676321506500244
1759485869342097400,2.600097412109375,-0.30154934525489807,-0.8411532640457153,3.102590560913086
1759485869352154400,2.610154296875,-0.08763092756271362,-1.16505765914917,3.397648572921753
1759485869362212400,2.62021240234375,0.2844896614551544,-1.2969622611999512,3.4969282150268555
1759485869372269300,2.630269287109375,0.7943425178527832,-0.8025394678115845,3.8809890747070312
1759485869382326500,2.640326416015625,0.8717853426933289,-0.29459628462791443,4.336370944976807
1759485869392384500,2.650384521484375,1.0777502059936523,-0.4652157127857208,4.073786735534668
1759485869402441500,2.66044140625,1.538446068763733,-0.7805724740028381,3.875462770462036
1759485869412499500,2.67049951171875,1.7889184951782227,-0.6093629002571106,3.7099599838256836
1759485869422556400,2.680556396484375,1.614695429801941,-0.2621782720088959,3.5554447174072266
1759485869432614700,2.69061474609375,0.5117547512054443,0.9045778512954712,3.0216128826141357
1759485869442671600,2.700671630859375,-0.6072438955307007,3.2919509410858154,2.784865140914917
1759485869452728600,2.710728515625,-0.13504759967327118,4.88742208480835,2.776519298553467
1759485869462786600,2.72078662109375,1.2389781475067139,4.578367710113525,2.3765969276428223
1759485869472843500,2.730843505859375,2.0880656242370605,3.5002822875976562,1.8968026638031006
1759485869482901500,2.740901611328125,2.3479726314544678,1.7547707557678223,1.7322412729263306
1759485869492958500,2.75095849609375,2.120590925216675,-0.2834895849227905,1.8110681772232056
1759485869503015400,2.761015380859375,1.8573057651519775,-2.240126132965088,1.8547024726867676
1759485869513073400,2.771073486328125,1.4200845956802368,-4.093294620513916,2.1788489818573
1759485869523130400,2.78113037109375,0.8919689655303955,-5.9707818031311035,2.510307788848877
1759485869533188600,2.791188720703125,0.48577916622161865,-5.92751407623291,2.3378684520721436
1759485869543245600,2.80124560546875,0.471749871969223,-5.108646869659424,1.7699687480926514
1759485869553303600,2.811303466796875,0.35843876004219055,-4.929816722869873,1.2400509119033813
1759485869563360500,2.821360595703125,0.13904252648353577,-4.333714485168457,0.7197637557983398
1759485869573417500,2.83141748046875,0.14427882432937622,-3.6559219360351562,0.23164846003055573
1759485869583475700,2.841475830078125,0.3637252449989319,-3.047971248626709,-0.328042209148407
1759485869593532700,2.85153271484375,0.4560970067977905,-2.552783489227295,-0.7641635537147522
1759485869603590400,2.86159033203125,0.3749440908432007,-1.9418425559997559,-0.9463829398155212
1759485869613647400,2.8716474609375,0.31977298855781555,-1.1042402982711792,-0.8574549555778503
1759485869623705600,2.88170556640625,0.21823669970035553,-0.05328880250453949,-0.6793797612190247
1759485869633762600,2.891762451171875,0.12898245453834534,1.0983961820602417,-0.5873888731002808
1759485869643819500,2.901819580078125,0.16742904484272003,2.0222055912017822,-0.5869786143302917
1759485869653877500,2.91187744140625,0.33492353558540344,2.72072434425354,-0.6793948411941528
1759485869663934500,2.9219345703125,0.338237464427948,3.141592502593994,-0.7608007788658142
1759485869673992400,2.931992431640625,0.25750693678855896,3.0557260513305664,-0.7400289177894592
1759485869684049700,2.942049560546875,0.20374126732349396,2.6894211769104004,-0.723990797996521
1759485869694107600,2.952107666015625,0.26383575797080994,2.3284285068511963,-0.6562314629554749
1759485869704164600,2.96216455078125,0.36200758814811707,2.020254373550415,-0.48327940702438354
1759485869714221600,2.9722216796875,0.3782406151294708,1.9501490592956543,-0.3629005253314972
1759485869724279300,2.982279296875,0.3660276234149933,1.9232580661773682,-0.25695332884788513
1759485869734336500,2.99233642578125,0.4154151380062103,2.175327777862549,-0.3911406695842743
1759485869744394500,3.00239453125,0.48332899808883667,2.0416929721832275,-1.065529465675354
1759485869754451500,3.012451416015625,0.6934286952018738,1.6804633140563965,-1.276381492614746
1759485869764509400,3.022509521484375,0.4750500023365021,1.2273516654968262,-1.4593225717544556
1759485869774566400,3.03256640625,-0.37438467144966125,-0.06791375577449799,-1.621205449104309
1759485869784624600,3.042624755859375,-1.6870514154434204,0.9132845997810364,-1.7388057708740234
1759485869794681600,3.052681640625,-3.712627649307251,2.385993003845215,-1.9482340812683105
1759485869804738600,3.062738525390625,-4.900197982788086,2.6015126705169678,-1.659831166267395
1759485869814796500,3.072796630859375,-4.836749076843262,1.909894585609436,-1.0947939157485962
1759485869824853500,3.082853515625,-4.119471073150635,1.2865281105041504,-0.7966784238815308
1759485869834911500,3.092911376953125,-3.264457941055298,0.9823349118232727,-0.8941610455513
1759485869844968400,3.102968505859375,-2.5470638275146484,0.678717851638794,-1.3406652212142944
1759485869855026400,3.1130263671875,-2.0992796421051025,0.59546959400177,-1.948473572731018
1759485869865083400,3.12308349609375,-1.809188723564148,0.24723337590694427,-2.965707778930664
1759485869875141600,3.1331416015625,-1.5262908935546875,-1.0829130411148071,-4.540924549102783
1759485869885198600,3.143198486328125,-0.9236947298049927,-2.329296588897705,-6.37253475189209
1759485869895255600,3.153255615234375,-0.5005043148994446,-1.517561674118042,-7.286221027374268
1759485869905313500,3.1633134765625,0.00022019073367118835,-0.9748396277427673,-6.776374340057373
1759485869915370500,3.17337060546875,0.5781450271606445,-0.1452103704214096,-5.4645771980285645
1759485869925428500,3.183428466796875,0.5949360132217407,1.2562264204025269,-4.503121376037598
1759485869935485700,3.193485595703125,0.06949058175086975,3.733189105987549,-3.429985761642456
1759485869945543400,3.20354345703125,-0.330610990524292,5.1156697273254395,-2.5835533142089844
1759485869955600400,3.213600341796875,-0.6352789998054504,4.327486991882324,-1.905320167541504
1759485869965658400,3.223658447265625,-0.8428493738174438,2.48677659034729,-1.576997995376587
1759485869975715300,3.23371533203125,-0.7823575735092163,0.7073979377746582,-1.5209224224090576
1759485869985772500,3.2437724609375,-0.4038752317428589,-0.7542078495025635,-1.4150135517120361
1759485869995830500,3.25383056640625,0.039569832384586334,-1.675084114074707,-0.697798490524292
1759485870005887500,3.263887451171875,0.19577768445014954,-2.1805825233459473,0.1167386919260025
1759485870015945500,3.273945556640625,0.08717343956232071,-1.854757308959961,0.8360167145729065
1759485870026002400,3.28400244140625,-0.13490866124629974,-1.3789418935775757,1.2634660005569458
1759485870036060700,3.294060791015625,-0.3293428421020508,-1.2842028141021729,1.4537619352340698
1759485870046117600,3.30411767578125,-0.457147479057312,-1.5204136371612549,1.4883952140808105
1759485870056175400,3.31417529296875,-0.47124066948890686,-1.9336612224578857,1.4662997722625732
1759485870066232300,3.324232421875,-0.37323030829429626,-2.442844867706299,1.3791435956954956
1759485870076290600,3.33429052734375,-0.29367396235466003,-2.6083528995513916,1.435439109802246
1759485870086347500,3.344347412109375,-0.27051037549972534,-1.9927141666412354,1.854866862297058
1759485870096404500,3.354404541015625,-0.29434168338775635,-1.178402066230774,2.488853931427002
1759485870106462500,3.36446240234375,-0.3055178225040436,-0.5115545392036438,3.1598153114318848
1759485870116519400,3.37451953125,-0.21786999702453613,-0.2099236249923706,3.698436975479126
1759485870126577700,3.38457763671875,0.058518871665000916,-0.39145132899284363,4.008666038513184
1759485870136634600,3.394634521484375,0.6010026931762695,-0.43313273787498474,4.256790637969971
1759485870146692600,3.404692626953125,1.2561084032058716,0.6673186421394348,4.416874408721924
1759485870156749600,3.41474951171875,1.4570164680480957,-0.13371360301971436,3.9459455013275146
1759485870166807300,3.424807373046875,1.4583574533462524,-1.2123652696609497,3.8305904865264893
1759485870176864500,3.434864501953125,1.4733688831329346,-1.3846619129180908,3.8459901809692383
1759485870186922500,3.444922607421875,1.255186915397644,-1.3428871631622314,3.963221549987793
1759485870196979500,3.4549794921875,0.03519527241587639,-0.13345418870449066,3.751908779144287
1759485870207036400,3.465036376953125,-1.409301519393921,3.034397840499878,3.1622769832611084
1759485870217094000,3.475093994140625,-0.4847817122936249,4.854827404022217,2.483553647994995
1759485870227150800,3.48515087890625,1.4779305458068848,5.0553483963012695,1.8460280895233154
1759485870237209000,3.495208984375,2.8415944576263428,4.342151165008545,1.3888932466506958
1759485870247266000,3.50526611328125,2.8873400688171387,2.5589725971221924,1.243695855140686
1759485870257324000,3.515323974609375,2.500869035720825,-0.036662425845861435,1.306168556213379
1759485870267381000,3.525381103515625,1.986303448677063,-2.285583019256592,1.5612905025482178
1759485870277439200,3.535439208984375,1.8782507181167603,-5.292329788208008,2.527193307876587
1759485870287496200,3.54549609375,1.7814557552337646,-7.111060619354248,3.24383282661438
1759485870297554000,3.555553955078125,1.2748240232467651,-6.12257719039917,2.83331036567688
1759485870307611000,3.56561083984375,0.8605435490608215,-5.056906223297119,2.2231497764587402
1759485870317668900,3.5756689453125,0.549237847328186,-3.6859848499298096,1.5562691688537598
1759485870327726000,3.58572607421875,0.44708117842674255,-2.536991596221924,0.7837716937065125
1759485870337784000,3.5957841796875,0.3651924431324005,-1.9394251108169556,0.20300494134426117
1759485870347841000,3.605841064453125,0.24944016337394714,-1.7019308805465698,-0.27270081639289856
1759485870357898000,3.61589794921875,0.08032970130443573,-1.7589854001998901,-0.5698262453079224
1759485870367956000,3.6259560546875,0.0051155490800738335,-1.4905524253845215,-0.6730847358703613
1759485870378013000,3.636012939453125,-0.07771195471286774,-0.6819695830345154,-0.6020308136940002
1759485870388071200,3.6460712890625,-0.003922892734408379,0.48753494024276733,-0.6206042170524597
1759485870398128000,3.656128173828125,0.1868521124124527,1.7030595541000366,-0.7758084535598755
1759485870408185900,3.666185791015625,0.34709176421165466,2.842695951461792,-0.9641698598861694
1759485870418242800,3.676242919921875,0.3401308059692383,3.2170212268829346,-0.8801154494285583
1759485870428301000,3.686301025390625,0.17879164218902588,3.084484577178955,-0.63273686170578
1759485870438358000,3.69635791015625,0.13949190080165863,2.732985734939575,-0.3718325197696686
1759485870448416000,3.706416015625,0.23221875727176666,2.196249008178711,-0.1515643149614334
1759485870458473000,3.716472900390625,0.38698863983154297,1.5824825763702393,-0.010157378390431404
1759485870468531000,3.726531005859375,0.5473502278327942,1.0894323587417603,0.0582253560423851
1759485870478588200,3.736588134765625,0.7647762894630432,0.6115267872810364,0.46474969387054443
1759485870488646100,3.746646240234375,0.8804537057876587,0.7430096864700317,0.5485221743583679
1759485870498703000,3.756703125,0.6791064739227295,1.7964683771133423,-0.3379112780094147
1759485870508760800,3.7667607421875,0.5288119912147522,2.2340221405029297,-1.2236677408218384
1759485870518817800,3.77681787109375,0.9580988883972168,3.43701434135437,-0.7543545365333557
1759485870528875000,3.786875,1.0896174907684326,1.6986981630325317,-1.29042387008667
1759485870538933000,3.79693310546875,0.23008175194263458,-0.30419960618019104,-1.3733757734298706
1759485870548990000,3.806989990234375,-1.830958604812622,1.8538874387741089,-2.0302038192749023
1759485870559048000,3.8170478515625,-4.082668304443359,3.4876976013183594,-2.194899320602417
1759485870569105000,3.82710498046875,-4.514425277709961,3.414022207260132,-1.5191737413406372
1759485870579163100,3.8371630859375,-3.6372573375701904,2.1825954914093018,-0.8915634751319885
1759485870589220000,3.84722021484375,-2.722358226776123,1.10041344165802,-0.9415234327316284
1759485870599278000,3.857278076171875,-2.1721105575561523,0.2544688284397125,-1.4672175645828247
1759485870609335000,3.8673349609375,-1.984598994255066,-0.38466885685920715,-1.998746395111084
1759485870619393000,3.87739306640625,-2.16109299659729,-0.8944785594940186,-2.6380231380462646
1759485870629450000,3.887449951171875,-2.4302289485931396,-1.6287286281585693,-3.607445478439331
1759485870639508000,3.897508056640625,-2.7839601039886475,-3.2214479446411133,-4.853206157684326
1759485870649565000,3.90756494140625,-2.2405948638916016,-4.527035713195801,-6.074901580810547
1759485870659623000,3.917622802734375,-0.8122300505638123,-4.484543800354004,-5.945995330810547
1759485870669680000,3.92768017578125,-0.11546789854764938,-2.7873528003692627,-5.616358280181885
1759485870679738000,3.937738037109375,-0.26390478014945984,0.8701182007789612,-5.2284321784973145
1759485870689795000,3.947795166015625,-0.9105650186538696,4.263697147369385,-4.588440895080566
1759485870699853000,3.95785302734375,-1.3625808954238892,5.351289749145508,-3.608320713043213
1759485870709910000,3.967909912109375,-1.4156265258789062,4.508859634399414,-3.0313072204589844
1759485870719968000,3.977968017578125,-1.111326813697815,2.8720743656158447,-2.7104949951171875
1759485870730025000,3.98802490234375,-0.6214529871940613,0.9213370680809021,-2.3034963607788086
1759485870740082000,3.99808203125,-0.10587642341852188,-0.20822490751743317,-1.5936321020126343
1759485870750140000,4.008139892578125,0.2446911484003067,-0.37292930483818054,-0.6464775800704956
1759485870760196900,4.01819677734375,0.15080033242702484,-0.36219969391822815,0.3744790256023407
1759485870770255000,4.028255126953125,-0.16840237379074097,-0.2614799737930298,1.1327893733978271
1759485870780312000,4.03831201171875,-0.44850194454193115,-0.3233982026576996,1.5748200416564941
1759485870790370000,4.0483701171875,-0.5659031271934509,-0.7737452387809753,1.7003875970840454
1759485870800427000,4.058427001953125,-0.518450915813446,-1.4604295492172241,1.6609430313110352
1759485870810485200,4.0684853515625,-0.3651834726333618,-2.0537919998168945,1.5459007024765015
1759485870820542200,4.078542236328125,-0.23557274043560028,-1.9441869258880615,1.7072478532791138
1759485870830600000,4.088599853515625,-0.10259760916233063,-1.23894202709198,2.064819812774658
1759485870840657000,4.098656982421875,0.013819544576108456,-0.44904494285583496,2.547466993331909
1759485870850715000,4.10871484375,0.08658213168382645,0.097032330930233,3.1075408458709717
1759485870860771800,4.118771728515625,0.21088065207004547,0.4152992367744446,3.5758004188537598
1759485870870830000,4.128830078125,0.3858274817466736,0.469695508480072,3.8959062099456787
1759485870880887000,4.138886962890625,0.6157872080802917,0.20406889915466309,4.103828430175781
1759485870890945000,4.148945068359375,0.8765204548835754,-0.14845411479473114,4.290656089782715
1759485870901002000,4.159001953125,1.2050751447677612,-0.22629991173744202,4.379613399505615
1759485870911060000,4.16906005859375,1.6957331895828247,0.2519698441028595,4.237089157104492
1759485870921117200,4.1791171875,1.9266204833984375,-0.009350959211587906,3.4977023601531982
1759485870931175000,4.1891748046875,2.053044080734253,-0.11968041211366653,3.335773468017578
1759485870941231900,4.19923193359375,2.1878061294555664,0.6477709412574768,3.343334913253784
1759485870951289900,4.209289794921875,2.136659622192383,1.9083151817321777,2.9561798572540283
1759485870961347000,4.21934716796875,1.7951900959014893,2.7274210453033447,2.423264503479004
1759485870971405000,4.229405029296875,1.1710814237594604,3.6361472606658936,2.08158802986145
1759485870981462000,4.2394619140625,0.9118961095809937,4.320257186889648,1.7797240018844604
1759485870991519000,4.24951904296875,2.0001704692840576,3.649106502532959,1.4493149518966675
1759485871001577000,4.259576904296875,3.2388594150543213,2.5426557064056396,0.9984356164932251
1759485871011634200,4.26963427734375,3.3805489540100098,0.9677973389625549,1.1088839769363403
1759485871021692200,4.279692138671875,3.090763807296753,-1.085497260093689,1.2313814163208008
1759485871031749000,4.2897490234375,2.762223958969116,-2.4431469440460205,1.433192253112793
1759485871041806800,4.299806884765625,2.605113983154297,-3.9830455780029297,1.8954118490219116
1759485871051863800,4.30986376953125,2.3240699768066406,-6.398900032043457,2.502612829208374
1759485871061922000,4.319922119140625,1.9499378204345703,-7.063068866729736,2.5356311798095703
1759485871071979000,4.32997900390625,1.2258214950561523,-5.622161388397217,1.6416654586791992
1759485871082037000,4.340037109375,0.8970637917518616,-4.739741325378418,0.909755289554596
1759485871092094000,4.350093994140625,0.7851572632789612,-4.007287502288818,0.3319530487060547
1759485871102152200,4.360152099609375,0.7228595018386841,-3.5773630142211914,-0.22186699509620667
1759485871112209200,4.370209228515625,0.4157666862010956,-3.5322072505950928,-0.5967414379119873
1759485871122267000,4.380266845703125,0.1159844771027565,-3.2076289653778076,-0.8580396175384521
1759485871132324000,4.390323974609375,0.05592825263738632,-2.5076475143432617,-0.9656119346618652
1759485871142381800,4.4003818359375,-0.11993332207202911,-1.5471845865249634,-0.905475378036499
1759485871152439000,4.41043896484375,-0.3105214834213257,-0.38600531220436096,-0.7401590943336487
1759485871162497000,4.4204970703125,-0.5416247248649597,0.7813839316368103,-0.6013040542602539
1759485871172554000,4.430553955078125,-0.6193426251411438,1.6208466291427612,-0.5996953845024109
1759485871182612000,4.440612060546875,-0.42614784836769104,2.3291256427764893,-0.6183044910430908
1759485871192669000,4.4506689453125,-0.11387861520051956,2.800117015838623,-0.5636447668075562
1759485871202727200,4.46072705078125,0.2264307737350464,2.930105447769165,-0.4296451807022095
1759485871212784000,4.4707841796875,0.4538997411727905,2.6946980953216553,-0.332601398229599
1759485871222841900,4.480841796875,0.5457867980003357,2.4030888080596924,-0.2351832240819931
1759485871232899000,4.490899169921875,0.47355687618255615,2.1685500144958496,0.02291916124522686
1759485871242957000,4.50095703125,0.3621949255466461,2.1184630393981934,0.35296258330345154
1759485871253014000,4.511013916015625,0.18722425401210785,2.0545716285705566,-0.1874750703573227
1759485871263072000,4.521072021484375,0.4126456677913666,1.487877368927002,-0.8000380396842957
1759485871273129000,4.53112890625,1.152814269065857,2.6604578495025635,-0.5461557507514954
1759485871283187000,4.54118701171875,0.9272670745849609,2.4259581565856934,-1.1139978170394897
1759485871293244200,4.551244140625,0.31450530886650085,0.8112114667892456,-1.1207019090652466
1759485871303302100,4.56130224609375,-0.9142972230911255,2.1217989921569824,-2.1097075939178467
1759485871313359000,4.571359130859375,-2.7034504413604736,3.4098801612854004,-3.0619399547576904
1759485871323416000,4.581416015625,-3.2906441688537598,3.972010850906372,-2.8970954418182373
1759485871333474000,4.59147412109375,-2.8766989707946777,3.3963801860809326,-2.311647653579712
1759485871343531000,4.601531005859375,-2.3978819847106934,2.671537160873413,-1.989080786705017
1759485871353589000,4.611589111328125,-2.3390934467315674,1.8604934215545654,-2.10284686088562
1759485871363646000,4.62164599609375,-2.6994142532348633,0.9454476833343506,-2.273240566253662
1759485871373704000,4.631703857421875,-3.180022954940796,-0.15071481466293335,-2.267364740371704
1759485871383761000,4.641760986328125,-3.5244481563568115,-1.0121241807937622,-2.2930359840393066
1759485871393819100,4.651819091796875,-3.691725969314575,-2.3115286827087402,-2.5406758785247803
1759485871403876000,4.6618759765625,-3.826979398727417,-3.944350004196167,-3.6146399974823
1759485871413934000,4.67193408203125,-3.6399128437042236,-4.5478692054748535,-5.504512310028076
1759485871423991000,4.681990966796875,-1.9464452266693115,-4.109744071960449,-6.264939785003662
1759485871434048800,4.692048828125,-0.21148517727851868,-2.0084636211395264,-5.881942272186279
1759485871444106000,4.70210595703125,-0.05791611969470978,1.5234644412994385,-4.949178218841553
1759485871454164000,4.7121640625,-0.654624879360199,3.854279041290283,-4.068653106689453
1759485871464221000,4.722220947265625,-1.1975079774856567,4.44920539855957,-3.109727621078491
1759485871474279000,4.73227880859375,-1.289629340171814,4.092477798461914,-2.4091169834136963
1759485871484335900,4.7423359375,-1.0762419700622559,2.313533306121826,-2.0126278400421143
1759485871494394000,4.75239404296875,-0.6458957195281982,-0.38927435874938965,-1.560278296470642
1759485871504451000,4.762451171875,-0.18026411533355713,-2.216639995574951,-0.8342075943946838
1759485871514509000,4.772509033203125,0.024069607257843018,-2.3967437744140625,-0.19258330762386322
1759485871524566000,4.78256591796875,-0.07299675792455673,-1.925811529159546,0.5319157838821411
1759485871534624000,4.7926240234375,-0.29963138699531555,-1.1296905279159546,1.039692759513855
1759485871544681000,4.802680908203125,-0.5486545562744141,-0.5636260509490967,1.2321900129318237
1759485871554739000,4.812739013671875,-0.7033243775367737,-0.6223032474517822,1.3282313346862793
1759485871564796000,4.8227958984375,-0.7163469791412354,-1.2117114067077637,1.3180456161499023
1759485871574854000,4.83285400390625,-0.6130610704421997,-1.9555530548095703,1.2141832113265991
1759485871584911000,4.8429111328125,-0.47092440724372864,-2.05977725982666,1.3696691989898682
1759485871594969000,4.852968994140625,-0.3559759259223938,-1.4313682317733765,1.9234631061553955
1759485871605026000,4.863026123046875,-0.2559356093406677,-0.5441092252731323,2.5722289085388184
1759485871615084000,4.873083984375,-0.16594289243221283,0.2062215358018875,3.1481287479400635
1759485871625141000,4.88314111328125,-0.04073623567819595,0.7686324119567871,3.615921974182129
1759485871635199000,4.893198974609375,0.20317107439041138,1.0882436037063599,3.9560601711273193
1759485871645256000,4.903255859375,0.6051427721977234,1.1337589025497437,4.172390460968018
1759485871655314000,4.91331396484375,1.1821484565734863,0.9623968005180359,4.267162322998047
1759485871665371000,4.923370849609375,1.828876256942749,0.9639521241188049,4.305819988250732
1759485871675429000,4.93342919921875,2.4601686000823975,0.9439003467559814,4.0018510818481445
1759485871685486000,4.943486083984375,2.486854314804077,0.08349297195672989,3.1598665714263916
1759485871695544000,4.9535439453125,2.5811023712158203,0.07342427223920822,3.2243294715881348
1759485871705601000,4.96360107421875,2.80955171585083,0.5696356296539307,3.674492359161377
1759485871715658000,4.973657958984375,2.7147343158721924,0.9520479440689087,3.2371158599853516
1759485871725716200,4.98371630859375,1.9688136577606201,2.1304399967193604,2.4384241104125977
1759485871735773200,4.993773193359375,0.6097608804702759,3.609656572341919,1.8677853345870972
1759485871745831000,5.003830810546875,0.7797827124595642,3.6246588230133057,1.382816195487976
1759485871755887900,5.013887939453125,2.927713394165039,2.8440282344818115,0.6911525726318359
1759485871765945900,5.02394580078125,3.606189727783203,2.374452590942383,0.8949493765830994
1759485871776003000,5.034003173828125,3.2491562366485596,0.37034446001052856,1.1504067182540894
1759485871786061000,5.04406103515625,2.7659711837768555,-1.3668099641799927,1.3703010082244873
1759485871796118000,5.054117919921875,2.374469518661499,-3.235776424407959,1.9091124534606934
1759485871806176000,5.064176025390625,2.0113093852996826,-5.969632148742676,2.6703431606292725
1759485871816233000,5.07423291015625,1.3728771209716797,-7.13026762008667,2.705015182495117
1759485871826291200,5.084291259765625,1.1104869842529297,-6.226229190826416,1.8551870584487915
1759485871836348200,5.09434814453125,0.9083378911018372,-4.800343036651611,1.0991957187652588
1759485871846406000,5.104406005859375,0.6816373467445374,-3.392394542694092,0.48771071434020996
1759485871856462800,5.114462890625,0.4775007963180542,-2.205463171005249,-0.012195732444524765
1759485871866521000,5.12452099609375,0.4094003140926361,-1.9333882331848145,-0.306808739900589
1759485871876578000,5.134578125,0.28493446111679077,-1.8934341669082642,-0.4767671823501587
1759485871886636000,5.144635986328125,0.14398477971553802,-1.5535231828689575,-0.5675439238548279
1759485871896693000,5.15469287109375,-0.03421618789434433,-0.8726629018783569,-0.6734277606010437
1759485871906751000,5.1647509765625,-0.16624265909194946,0.007740326691418886,-0.7330607175827026
1759485871916808200,5.17480810546875,-0.09952670335769653,0.8951717019081116,-0.7588390707969666
1759485871926866200,5.1848662109375,0.16687647998332977,1.8520326614379883,-0.8537874221801758
1759485871936923100,5.194923095703125,0.5521994233131409,2.564520835876465,-0.9431319236755371
1759485871946980900,5.20498095703125,0.7833405137062073,2.7459633350372314,-0.9382628798484802
1759485871957037800,5.215037841796875,0.8009129762649536,2.4273500442504883,-0.7851414680480957
1759485871967096000,5.225095947265625,0.8386443853378296,1.8873026371002197,-0.5916867852210999
1759485871977153000,5.235153076171875,0.7551730275154114,1.5684949159622192,-0.35577309131622314
1759485871987211000,5.2452109375,0.6339973211288452,1.7185124158859253,0.09647079557180405
1759485871997268000,5.25526806640625,0.5207870006561279,2.334014892578125,0.25821712613105774
1759485872007326200,5.265326171875,0.3216667175292969,2.5616116523742676,-0.31933704018592834
1759485872017383200,5.275383056640625,0.24084487557411194,1.5360743999481201,-1.1420602798461914
1759485872027441200,5.285441162109375,0.6902578473091125,1.3948845863342285,-1.1822211742401123
1759485872037498000,5.295498046875,0.9841303825378418,2.219482898712158,-1.664387583732605
1759485872047555800,5.305555908203125,0.5887196660041809,0.22892823815345764,-1.7191461324691772
1759485872057612800,5.31561279296875,-1.0219789743423462,1.8510141372680664,-1.9982519149780273
1759485872067671000,5.325671142578125,-4.177826881408691,3.7944862842559814,-2.5447354316711426
1759485872077728000,5.33572802734375,-5.670271396636963,3.7917048931121826,-2.4352779388427734
1759485872087785000,5.345784912109375,-4.8758320808410645,2.8493897914886475,-1.8205300569534302
1759485872097843000,5.355843017578125,-3.4553141593933105,1.7536221742630005,-1.515251636505127
1759485872107900000,5.36589990234375,-2.46213698387146,0.7345178127288818,-1.8178125619888306
1759485872117958100,5.375958251953125,-2.3140292167663574,0.0001222213904839009,-2.2511825561523438
1759485872128015000,5.38601513671875,-2.6576755046844482,-0.9576817750930786,-2.5106043815612793
1759485872138073000,5.396072998046875,-3.002751350402832,-2.091557741165161,-2.8569183349609375
1759485872148130000,5.406130126953125,-3.083319902420044,-3.1503779888153076,-3.611696720123291
1759485872158188000,5.41618798828125,-2.6201131343841553,-2.731243133544922,-4.970489978790283
1759485872168245000,5.426244873046875,-1.555062174797058,-2.2975399494171143,-5.802773952484131
1759485872178303000,5.436302978515625,-0.4538015127182007,-2.07137131690979,-5.9445295333862305
1759485872188360000,5.44635986328125,-0.37022459506988525,-1.2375863790512085,-5.635818958282471
1759485872198418000,5.45641796875,-1.039292812347412,1.8105255365371704,-4.718021392822266
1759485872208475100,5.46647509765625,-1.2722810506820679,5.064304351806641,-3.5565028190612793
1759485872218533000,5.476533203125,-1.1544815301895142,6.410074234008789,-2.7960205078125
1759485872228590600,5.486590576171875,-1.1441878080368042,4.725555896759033,-2.3471601009368896
1759485872238648300,5.4966484375,-0.883356511592865,1.1578444242477417,-1.6711139678955078
1759485872248705500,5.50670556640625,-0.2426854819059372,-1.6780387163162231,-0.7549231648445129
1759485872258763500,5.516763427734375,0.128029465675354,-3.0779459476470947,0.15226374566555023
1759485872268820500,5.526820556640625,-0.023038074374198914,-2.7943274974823,0.8966958522796631
1759485872278878500,5.53687841796875,-0.26518282294273376,-1.7689836025238037,1.2973958253860474
1759485872288935400,5.546935302734375,-0.4213849604129791,-0.9576672911643982,1.4261844158172607
1759485872298993700,5.55699365234375,-0.5102019906044006,-0.9194608926773071,1.4887759685516357
1759485872309050600,5.567050537109375,-0.5167914032936096,-1.2980231046676636,1.4767882823944092
1759485872319108600,5.577108642578125,-0.4724235236644745,-1.4437013864517212,1.4322412014007568
1759485872329165600,5.58716552734375,-0.37191128730773926,-1.0340811014175415,1.6129217147827148
1759485872339223600,5.5972236328125,-0.29686635732650757,-0.4618372917175293,1.9918065071105957
1759485872349280500,5.607280517578125,-0.2674320340156555,0.08563859760761261,2.4961397647857666
1759485872359338500,5.61733837890625,-0.24123810231685638,0.4878298342227936,3.0055952072143555
1759485872369395500,5.6273955078125,-0.16560032963752747,0.8051201701164246,3.397325277328491
1759485872379452400,5.637452392578125,0.023828977718949318,0.9948288202285767,3.7294299602508545
1759485872389510400,5.647510498046875,0.31370285153388977,1.038117527961731,3.999427556991577
1759485872399567600,5.657567626953125,0.7036744356155396,0.7634727358818054,4.165106773376465
1759485872409625600,5.66762548828125,1.2193905115127563,-0.01464779768139124,4.227344036102295
1759485872419682600,5.6776826171875,1.943387746810913,-0.5984094738960266,3.7965660095214844
1759485872429740500,5.687740478515625,2.4955475330352783,-1.2766762971878052,3.0948336124420166
1759485872439797500,5.697797607421875,2.641575813293457,-0.785923182964325,3.244311809539795
1759485872449855500,5.70785546875,2.8642969131469727,0.23366613686084747,3.802978992462158
1759485872459912400,5.717912353515625,2.9593241214752197,0.6649094223976135,4.182247638702393
1759485872469970400,5.727970458984375,2.5728955268859863,1.2994314432144165,3.5820116996765137
1759485872480027400,5.73802734375,1.010633945465088,3.529259443283081,2.5587844848632812
1759485872490085600,5.748085693359375,0.27927878499031067,4.844040870666504,1.5826067924499512
1759485872500142600,5.758142578125,1.7360929250717163,3.303647756576538,0.8817248344421387
1759485872510200600,5.76820068359375,3.0810487270355225,2.49418306350708,0.5814246535301208
1759485872520257500,5.778257568359375,3.255706310272217,1.0606622695922852,0.7793057560920715
1759485872530315500,5.7883154296875,2.8361825942993164,-0.5971498489379883,0.9015129208564758
1759485872540372700,5.798372802734375,2.444814920425415,-2.081778049468994,1.2165762186050415
1759485872550430500,5.808430419921875,2.2771401405334473,-4.611799240112305,2.1288938522338867
1759485872560487400,5.8184873046875,2.0366427898406982,-7.042110443115234,2.812957763671875
1759485872570545400,5.82854541015625,1.3363914489746094,-6.651451587677002,2.1658289432525635
1759485872580602400,5.838602294921875,0.6937512755393982,-5.479045391082764,1.3451958894729614
1759485872590660600,5.84866064453125,0.2585561275482178,-3.6940078735351562,0.7586394548416138
1759485872600717600,5.858717529296875,0.12614098191261292,-2.419388771057129,0.21255360543727875
1759485872610775600,5.868775634765625,-0.00796568300575018,-2.15437388420105,-0.08152676373720169
1759485872620832500,5.87883251953125,-0.17912431061267853,-2.2460556030273438,-0.27084898948669434
1759485872630889500,5.888889404296875,-0.1886560320854187,-2.2036077976226807,-0.4236542284488678
1759485872640947500,5.898947509765625,-0.25191304087638855,-1.5937989950180054,-0.5341498851776123
1759485872651004700,5.909004638671875,-0.4600638449192047,-0.46095582842826843,-0.6549492478370667
1759485872661062400,5.9190625,-0.43012937903404236,0.5871027112007141,-0.7560902833938599
1759485872671119400,5.929119384765625,-0.09106822311878204,1.4002786874771118,-0.8219103217124939
1759485872681177600,5.939177490234375,0.3485257029533386,2.1804890632629395,-0.803773820400238
1759485872691234600,5.949234619140625,0.6828200221061707,2.6134207248687744,-0.6580345034599304
1759485872701292500,5.95929248046875,0.761834442615509,2.6472115516662598,-0.4293789565563202
1759485872711349500,5.969349609375,0.6872845888137817,2.5003719329833984,-0.2545025050640106
1759485872721407500,5.979407470703125,0.5837342739105225,2.2309415340423584,-0.06426393985748291
1759485872731464700,5.989464599609375,0.43732964992523193,1.90394127368927,0.29177698493003845
1759485872741522400,5.9995224609375,0.3563942313194275,2.0289924144744873,0.27196210622787476
1759485872751579600,6.00957958984375,0.23524782061576843,1.972959041595459,-0.3983968198299408
1759485872761637400,6.019637451171875,0.11977725476026535,1.1776288747787476,-1.2408699989318848
1759485872771694300,6.0296943359375,0.42642533779144287,0.8654576539993286,-1.5068353414535522
1759485872781752600,6.039752685546875,0.7928813695907593,0.7209489345550537,-2.0801749229431152
1759485872791809500,6.0498095703125,0.4445716440677643,-0.13885927200317383,-2.2734858989715576
1759485872801867500,6.059867431640625,-0.6727882623672485,1.4967455863952637,-2.2444024085998535
1759485872811924500,6.069924560546875,-3.2667853832244873,4.226297378540039,-2.9463443756103516
1759485872821981400,6.0799814453125,-5.167396545410156,5.873887538909912,-2.6508285999298096
1759485872832039700,6.090039794921875,-4.540187358856201,5.278711318969727,-1.8893665075302124
1759485872842096600,6.1000966796875,-3.283608913421631,3.5477354526519775,-1.5451844930648804
1759485872852154400,6.110154296875,-2.4034459590911865,2.0049891471862793,-1.820464849472046
1759485872862211600,6.120211669921875,-2.279006004333496,0.6830236911773682,-2.0413131713867188
1759485872872269300,6.130269287109375,-2.7167820930480957,-0.9290942549705505,-2.0186727046966553
1759485872882326500,6.140326416015625,-3.2869598865509033,-2.2869250774383545,-2.0522327423095703
1759485872892384500,6.150384521484375,-3.590606689453125,-3.416989326477051,-2.6021339893341064
1759485872902441500,6.16044140625,-3.1613669395446777,-3.9195497035980225,-4.172665119171143
1759485872912499500,6.17049951171875,-1.9989310503005981,-3.5326693058013916,-5.5922064781188965
1759485872922556400,6.180556396484375,-0.7433153390884399,-2.6451027393341064,-5.997395992279053
1759485872932614700,6.19061474609375,-0.2310275137424469,-0.7281385064125061,-5.9400954246521
1759485872942671600,6.200671630859375,-0.7836754322052002,2.169857978820801,-5.116875648498535
1759485872952729300,6.210729248046875,-1.4901881217956543,4.945788383483887,-3.6344666481018066
1759485872962786600,6.22078662109375,-1.3754868507385254,6.080846786499023,-2.7488577365875244
1759485872972843500,6.230843505859375,-1.172608494758606,4.797101974487305,-2.2785696983337402
1759485872982901500,6.240901611328125,-0.9290391206741333,1.8588963747024536,-1.9095078706741333
1759485872992958500,6.25095849609375,-0.45159634947776794,-0.8180915713310242,-1.3789476156234741
1759485873003016400,6.261016357421875,0.002627935726195574,-2.197977304458618,-0.6617849469184875
1759485873013073400,6.271073486328125,-0.010536601766943932,-2.2714383602142334,0.31444045901298523
1759485873023131600,6.281131591796875,-0.26869794726371765,-1.8402799367904663,0.8963157534599304
1759485873033188600,6.291188720703125,-0.531424880027771,-1.248112678527832,1.0940691232681274
1759485873043246600,6.30124658203125,-0.6535152792930603,-0.9370026588439941,1.3351842164993286
1759485873053303600,6.311303466796875,-0.5989953279495239,-1.0397320985794067,1.5122333765029907
1759485873063361300,6.321361328125,-0.4655537009239197,-1.3763152360916138,1.4881447553634644
1759485873073418500,6.33141845703125,-0.34555965662002563,-1.436383605003357,1.3747495412826538
1759485873083476500,6.3414765625,-0.26032277941703796,-0.6747215390205383,1.5365325212478638
1759485873093533400,6.351533447265625,-0.22000595927238464,0.3543345332145691,1.9699900150299072
1759485873103590400,6.36159033203125,-0.20120324194431305,0.9701166749000549,2.5547637939453125
1759485873113648400,6.3716484375,-0.12194756418466568,1.0629950761795044,3.141817331314087
1759485873123705600,6.38170556640625,0.12308530509471893,0.626224160194397,3.520637273788452
1759485873133763600,6.391763671875,0.5051026940345764,-0.19497908651828766,3.7010138034820557
1759485873143820500,6.401820556640625,0.9758941531181335,-1.1863974332809448,3.7442922592163086
1759485873153878500,6.41187841796875,1.595187783241272,-1.9178465604782104,3.8032429218292236
1759485873163935500,6.421935546875,2.297173023223877,-1.6653270721435547,3.7931571006774902
1759485873173993500,6.431993408203125,2.440859794616699,-1.7861979007720947,3.3386263847351074
1759485873184050400,6.442050537109375,2.4706249237060547,-1.5220571756362915,3.7713539600372314
1759485873194108400,6.4521083984375,2.7437429428100586,-1.147839069366455,4.360949993133545
1759485873204165400,6.462165283203125,2.8197643756866455,-0.5777920484542847,4.598231792449951
1759485873214223600,6.4722236328125,2.101043939590454,1.4559931755065918,4.062100410461426
1759485873224280000,6.482280029296875,0.6939585208892822,4.101235389709473,2.724562644958496
1759485873234337000,6.4923369140625,0.3940330743789673,5.746462821960449,1.7362942695617676
1759485873244395000,6.50239501953125,1.6199350357055664,4.993453025817871,1.1376780271530151
1759485873254452200,6.5124521484375,2.6003291606903076,3.5313167572021484,0.5202723145484924
1759485873264510200,6.52251025390625,2.7770726680755615,2.2779829502105713,0.20351943373680115
1759485873274567200,6.532567138671875,2.625495195388794,0.10045870393514633,0.32654711604118347
1759485873284625200,6.542625244140625,2.1337952613830566,-2.1192190647125244,0.7866113781929016
1759485873294682000,6.55268212890625,1.928812861442566,-4.8592848777771,1.7968791723251343
1759485873304740000,6.562739990234375,1.4853745698928833,-6.2580647468566895,2.6288866996765137
1759485873314797000,6.572797119140625,0.9620383977890015,-5.049978256225586,2.074622869491577
1759485873324855000,6.58285498046875,0.856414258480072,-3.885148048400879,1.306868076324463
1759485873334912000,6.592912109375,0.7165191769599915,-3.174297571182251,0.8866366744041443
1759485873344969000,6.602968994140625,0.4094250798225403,-2.4415197372436523,0.5221032500267029
1759485873355027200,6.613027099609375,0.2531723380088806,-2.2578604221343994,0.3943870961666107
1759485873365084200,6.623084228515625,0.19944816827774048,-2.094271421432495,0.3825770616531372
1759485873375142100,6.63314208984375,0.23025241494178772,-1.8559430837631226,0.24403809010982513
1759485873385199000,6.64319921875,0.08770611137151718,-1.3573771715164185,0.2167438119649887
1759485873395257300,6.65325732421875,0.07773097604513168,-0.4838005006313324,0.19952566921710968
1759485873405314300,6.663314208984375,0.2696215510368347,0.7414740324020386,0.07552778720855713
1759485873415372000,6.6733720703125,0.4756932258605957,1.76275634765625,-0.07661380618810654
1759485873425429000,6.683428955078125,0.5285989046096802,2.6402316093444824,-0.2727597951889038
1759485873435487000,6.693487060546875,0.41977810859680176,3.2373127937316895,-0.44705861806869507
1759485873445544200,6.703544189453125,0.2397940754890442,3.125312089920044,-0.5027963519096375
1759485873455601200,6.71360107421875,0.11740079522132874,2.3805880546569824,-0.45932987332344055
1759485873465659100,6.7236591796875,0.05432828515768051,1.5954622030258179,-0.4064195454120636
1759485873475716000,6.733716064453125,0.016431769356131554,1.322314739227295,-0.3926888108253479
1759485873485774000,6.743774169921875,0.009158503264188766,1.6579290628433228,-0.32973429560661316
1759485873495831300,6.753831298828125,0.0320931151509285,2.0613675117492676,-0.6610608100891113
1759485873505889300,6.76388916015625,0.11440371721982956,1.5296317338943481,-1.5237395763397217
1759485873515946200,6.7739462890625,0.42960160970687866,1.5506185293197632,-1.6284338235855103
1759485873526004000,6.78400390625,0.5781799554824829,1.4300581216812134,-1.914826512336731
1759485873536061000,6.79406103515625,0.1313561201095581,-0.012692089192569256,-1.6053392887115479
1759485873546118100,6.8041181640625,-1.5966979265213013,2.6862235069274902,-2.0406320095062256
1759485873556176100,6.814176025390625,-4.025355815887451,4.551482200622559,-2.6296064853668213
1759485873566233000,6.824233154296875,-4.547465801239014,4.531052589416504,-2.4324285984039307
1759485873576291000,6.834291015625,-3.5993669033050537,3.1669955253601074,-1.9540321826934814
1759485873586348000,6.84434814453125,-2.737060546875,1.4819056987762451,-1.7863761186599731
1759485873596406300,6.85440625,-2.471867322921753,-0.3002670705318451,-1.9591537714004517
1759485873606463200,6.864463134765625,-2.613542318344116,-2.233781337738037,-1.9642064571380615
1759485873616521200,6.874521240234375,-2.857264280319214,-3.922236919403076,-1.8256744146347046
1759485873626578200,6.884578125,-2.9978485107421875,-4.781773090362549,-1.8748058080673218
1759485873636635100,6.89463525390625,-2.348846912384033,-4.418010711669922,-2.842153787612915
1759485873646693000,6.904693115234375,-1.2538655996322632,-3.1391544342041016,-4.239716053009033
1759485873656750000,6.91475,-0.18062745034694672,-2.268306255340576,-5.368807792663574
1759485873666808000,6.92480810546875,0.0075008985586464405,-1.3668016195297241,-5.964224815368652
1759485873676865000,6.934864990234375,-0.6964207291603088,0.7362712621688843,-5.962920188903809
1759485873686923000,6.944923095703125,-1.3198776245117188,3.1102449893951416,-4.899203300476074
1759485873696980200,6.954980224609375,-1.200137734413147,4.1098175048828125,-3.5343570709228516
1759485873707037200,6.965037109375,-0.9281439781188965,3.831479549407959,-2.721236228942871
1759485873717095200,6.97509521484375,-0.6830540895462036,1.815529465675354,-2.2701244354248047
1759485873727152000,6.985152099609375,-0.5637862682342529,0.19386757910251617,-1.9090826511383057
1759485873737210000,6.995210205078125,-0.4558374583721161,-0.86487877368927,-1.2600619792938232
1759485873747267300,7.005267333984375,-0.4333161413669586,-1.6721296310424805,-0.4266059696674347
1759485873757325000,7.015324951171875,-0.592566192150116,-2.3675589561462402,0.23151759803295135
1759485873767382300,7.02538232421875,-0.7891672253608704,-2.2880473136901855,0.7341577410697937
1759485873777440000,7.03543994140625,-0.9070286154747009,-1.4087203741073608,1.220188856124878
1759485873787497000,7.0454970703125,-0.8816078901290894,-0.45245301723480225,1.6263647079467773
1759485873797554000,7.055553955078125,-0.7487435340881348,-0.09328925609588623,1.7963814735412598
1759485873807612200,7.065612060546875,-0.5780014395713806,0.1077754944562912,1.8266241550445557
1759485873817669000,7.075669189453125,-0.3781048357486725,0.4709467887878418,1.836665153503418
1759485873827727000,7.08572705078125,-0.17675895988941193,1.049069881439209,1.8999886512756348
1759485873837784000,7.0957841796875,0.021435629576444626,1.4503241777420044,2.1139798164367676
1759485873847842300,7.10584228515625,0.2122785449028015,1.5065946578979492,2.4682111740112305
1759485873857899300,7.115899169921875,0.3601417541503906,1.1847606897354126,2.883774995803833
1759485873867956200,7.125956298828125,0.6366013288497925,0.05568532273173332,3.1475160121917725
1759485873878014200,7.13601416015625,1.0582460165023804,-1.7001999616622925,3.3345956802368164
1759485873888071200,7.1460712890625,1.368261456489563,-3.221184492111206,3.5861029624938965
1759485873898129200,7.156129150390625,1.7386668920516968,-3.7525880336761475,3.601893424987793
1759485873908186000,7.16618603515625,1.7797582149505615,-3.9957435131073,3.3070266246795654
1759485873918244000,7.176244140625,1.3930152654647827,-3.6920878887176514,3.7371954917907715
1759485873928301000,7.186301025390625,1.3391696214675903,-2.8642420768737793,4.429232597351074
1759485873938358000,7.19635791015625,1.7518982887268066,-2.2582273483276367,4.91982364654541
1759485873948416300,7.206416259765625,2.6081953048706055,-1.533631443977356,5.218812942504883
1759485873958473200,7.21647314453125,2.333448886871338,0.009171349927783012,4.473034381866455
1759485873968531200,7.22653125,0.8578490614891052,2.9780666828155518,3.121213912963867
1759485873978588200,7.236588134765625,0.1792643964290619,5.29834508895874,2.245570421218872
1759485873988646100,7.246646240234375,0.7829923629760742,4.9713287353515625,1.8226078748703003
1759485873998703400,7.256703369140625,1.2083367109298706,3.3047871589660645,1.35108482837677
1759485874008760300,7.26676025390625,1.264197587966919,1.0946619510650635,1.207273006439209
1759485874018818000,7.276818115234375,1.6791192293167114,-0.6621534824371338,1.1873797178268433
1759485874028875000,7.286875,1.8250428438186646,-2.9251794815063477,1.589036464691162
1759485874038933000,7.29693310546875,1.5550752878189087,-4.819202423095703,2.0424482822418213
1759485874048990200,7.306990234375,1.614248275756836,-4.44483757019043,1.6479928493499756
1759485874059048200,7.317048095703125,1.7265825271606445,-3.350100040435791,0.8324034214019775
1759485874069105200,7.327105224609375,1.6067065000534058,-2.587357759475708,0.25125980377197266
1759485874079162000,7.337162109375,0.9914630055427551,-1.498138666152954,-0.1434885710477829
1759485874089220000,7.34722021484375,0.37969017028808594,-0.6316282153129578,-0.43679389357566833
1759485874099277000,7.357277099609375,-0.05472945421934128,-0.4611811339855194,-0.47962525486946106
1759485874109335300,7.367335205078125,-0.038589321076869965,-0.5390247106552124,-0.3795214593410492
1759485874119392300,7.377392333984375,0.00788416899740696,-0.5441510081291199,-0.3167704641819
1759485874129450000,7.387449951171875,-0.15635408461093903,-0.03164341300725937,-0.3476594388484955
1759485874139507000,7.3975068359375,-0.21863903105258942,0.6628661155700684,-0.45898887515068054
1759485874149564000,7.40756396484375,-0.08510009944438934,1.3563895225524902,-0.5308992862701416
1759485874159622100,7.4176220703125,0.07315824180841446,1.6806997060775757,-0.4690995216369629
1759485874169679000,7.42767919921875,0.21264420449733734,1.7930731773376465,-0.2675763964653015
1759485874179737000,7.437737060546875,0.3254282474517822,1.8636327981948853,0.007064755540341139
1759485874189794000,7.4477939453125,0.37341123819351196,1.6976639032363892,0.3563934564590454
1759485874199851000,7.45785107421875,0.4069361686706543,1.213940978050232,0.7611438632011414
1759485874209909200,7.4679091796875,0.5015753507614136,0.8480015993118286,1.3518155813217163
1759485874219966200,7.47796630859375,0.5727019906044006,1.4324448108673096,1.2001674175262451
1759485874230024700,7.488024658203125,0.5559229850769043,1.663710594177246,0.30749544501304626
1759485874240081700,7.49808154296875,0.4455637037754059,1.1840193271636963,-0.41192927956581116
1759485874250139600,7.5081396484375,0.4718012809753418,0.9035452604293823,-0.9140483140945435
1759485874260196600,7.518196533203125,0.64327073097229,0.6272153854370117,-1.1020300388336182
1759485874270253600,7.528253662109375,0.5499002933502197,0.25862473249435425,-1.8196451663970947
1759485874280311800,7.538311767578125,0.013451751321554184,-1.1515628099441528,-1.9359208345413208
1759485874290368800,7.54836865234375,-1.061991572380066,0.5750940442085266,-2.095926284790039
1759485874300426800,7.5584267578125,-3.5026023387908936,3.455543041229248,-2.717817783355713
1759485874310483700,7.568483642578125,-5.974444389343262,4.546885013580322,-3.0876095294952393
1759485874320540700,7.578540771484375,-5.17622709274292,3.4379122257232666,-2.5989558696746826
1759485874330599000,7.588598876953125,-2.8322901725769043,1.2055593729019165,-1.8742167949676514
1759485874340655900,7.59865576171875,-1.777657151222229,-0.716733992099762,-1.7305551767349243
1759485874350713900,7.6087138671875,-1.639670968055725,-1.9747061729431152,-1.855891227722168
1759485874360770800,7.618770751953125,-1.6726864576339722,-2.6317896842956543,-2.3324406147003174
1759485874370827800,7.628827880859375,-1.3621861934661865,-2.8459532260894775,-3.392090320587158
1759485874380885800,7.6388857421875,-0.7000226378440857,-2.923307418823242,-4.868364334106445
1759485874390942700,7.648942626953125,-0.18188613653182983,-2.3234975337982178,-6.170069694519043
1759485874401000700,7.659000732421875,0.14799855649471283,-0.9208530783653259,-6.614043235778809
1759485874411057700,7.6690576171875,-0.041209347546100616,1.6302891969680786,-6.2674760818481445
1759485874421116000,7.679115966796875,-0.7142407894134521,3.482840061187744,-5.702995300292969
1759485874431172900,7.6891728515625,-1.1013425588607788,4.427486419677734,-5.121423244476318
1759485874441229800,7.699229736328125,-1.0574404001235962,4.934154033660889,-4.217580318450928
1759485874451287800,7.709287841796875,-0.6655064225196838,3.4095473289489746,-2.910214424133301
1759485874461344800,7.7193447265625,-0.20359599590301514,1.5240739583969116,-1.8468334674835205
1759485874471402800,7.72940283203125,-0.038079530000686646,0.3820117712020874,-1.075468897819519
1759485874481460000,7.7394599609375,-0.3664531409740448,-0.4353155493736267,-0.4550429582595825
1759485874491517000,7.749516845703125,-0.8471176624298096,-1.3330037593841553,0.07543407380580902
1759485874501574700,7.75957470703125,-1.1400470733642578,-1.5645997524261475,0.8230617046356201
1759485874511631600,7.769631591796875,-1.2006640434265137,-1.1830434799194336,1.4171333312988281
1759485874521689600,7.779689697265625,-0.9825085997581482,-0.42179539799690247,1.8169829845428467
1759485874531746800,7.789746826171875,-0.7717052698135376,0.05758291855454445,1.9409550428390503
1759485874541803800,7.7998037109375,-0.6039109230041504,0.4073691666126251,1.9497854709625244
1759485874551861800,7.80986181640625,-0.40308478474617004,0.8204203844070435,1.9454185962677002
1759485874561918700,7.819918701171875,-0.1639305204153061,1.3719083070755005,1.9891455173492432
1759485874571976700,7.829976806640625,0.0507168173789978,1.6167746782302856,2.0650548934936523
1759485874582034000,7.840033935546875,0.22614429891109467,1.4109458923339844,2.252913475036621
1759485874592091000,7.8500908203125,0.3734109699726105,0.9660668969154358,2.5243730545043945
1759485874602148900,7.86014892578125,0.5148125886917114,0.4480122923851013,2.7974488735198975
1759485874612205800,7.870205810546875,0.6905887126922607,-0.25399747490882874,2.966078042984009
1759485874622263600,7.880263671875,0.8690436482429504,-1.2668250799179077,3.071556806564331
1759485874632320800,7.89032080078125,0.9924461841583252,-2.314309597015381,3.180393695831299
1759485874642377700,7.900377685546875,1.2923327684402466,-2.7874813079833984,3.1150856018066406
1759485874652435700,7.910435791015625,1.6576305627822876,-2.6143832206726074,2.71890926361084
1759485874662492700,7.92049267578125,1.4630370140075684,-2.2168335914611816,3.004018545150757
1759485874672550700,7.930550537109375,1.3755784034729004,-1.6665250062942505,3.658332347869873
1759485874682607600,7.940607666015625,1.527647614479065,-1.444336175918579,4.196420192718506
1759485874692664800,7.950664794921875,2.194849967956543,-1.8872212171554565,4.972938060760498
1759485874702722800,7.960722900390625,2.337024211883545,-1.547664999961853,5.034727573394775
1759485874712779800,7.97077978515625,0.99740070104599,1.288169503211975,3.8015079498291016
1759485874722836700,7.980836669921875,0.0163725633174181,4.514562129974365,2.347212791442871
1759485874732894700,7.990894775390625,0.44215789437294006,4.962867736816406,1.7548991441726685
1759485874742952000,8.000951904296874,1.1812360286712646,3.6448843479156494,1.1401163339614868
1759485874753010000,8.011010009765625,1.5977810621261597,1.7569445371627808,0.7902342677116394
1759485874763067000,8.02106689453125,2.10491681098938,-0.10168443620204926,0.527411937713623
1759485874773123800,8.031123779296875,2.3250198364257812,-1.5884770154953003,0.49578940868377686
1759485874783181600,8.041181640625,1.9377059936523438,-3.2346925735473633,1.2794605493545532
1759485874793238500,8.051238525390625,1.7197160720825195,-4.186450004577637,1.647682785987854
1759485874803296800,8.061296875,1.4425406455993652,-4.141088008880615,1.1157424449920654
1759485874813353700,8.071353759765625,1.3618137836456299,-3.674543619155884,0.5395264625549316
1759485874823410700,8.08141064453125,0.8797290921211243,-2.8409457206726074,0.08034930378198624
1759485874833468700,8.09146875,0.29114627838134766,-1.6037588119506836,-0.359096497297287
1759485874843525600,8.101525634765625,-0.05820481479167938,-1.0368062257766724,-0.6503658890724182
1759485874853584000,8.111583984375,-0.039616670459508896,-0.9948447942733765,-0.7851285338401794
1759485874863640800,8.121640869140625,-0.1484059989452362,-1.1778984069824219,-0.6979838013648987
1759485874873697800,8.13169775390625,-0.3284320831298828,-0.8861728310585022,-0.6063030958175659
1759485874883755800,8.141755859375,-0.4551476836204529,-0.1937727928161621,-0.6456259489059448
1759485874893812700,8.151812744140624,-0.4026479125022888,0.26368311047554016,-0.6743476986885071
1759485874903870000,8.161869873046875,-0.19541457295417786,0.2751147449016571,-0.46985259652137756
1759485874913927700,8.171927734375,0.008473332971334457,0.07740786671638489,-0.06762395799160004
1759485874923984600,8.181984619140625,0.12696588039398193,0.19075092673301697,0.22930732369422913
1759485874934042600,8.192042724609376,0.11140011996030807,0.4689214825630188,0.38226211071014404
1759485874944099600,8.202099609375,0.05661170184612274,0.7162362337112427,0.4859541654586792
1759485874954156800,8.21215673828125,0.05792634189128876,0.5952751040458679,0.6653682589530945
1759485874964214800,8.22221484375,0.15024828910827637,0.4541214108467102,0.7702859044075012
1759485874974271700,8.232271728515625,0.24706728756427765,0.7957703471183777,0.6882696151733398
1759485874984328700,8.24232861328125,0.2873779535293579,1.2931162118911743,0.2696981430053711
1759485874994386700,8.25238671875,0.479331910610199,1.415406584739685,-0.2392367124557495
1759485875004443600,8.262443603515624,0.6718581914901733,1.59138822555542,-0.8342319130897522
1759485875014502000,8.272501953125,0.9224264621734619,2.1333398818969727,-1.3372528553009033
1759485875024558800,8.282558837890624,1.3453750610351562,2.316150426864624,-1.753458857536316
1759485875034615800,8.29261572265625,1.1749345064163208,1.2327241897583008,-2.2130181789398193
1759485875044673800,8.302673828125,0.31300315260887146,0.9743157029151917,-2.3942763805389404
1759485875054730800,8.312730712890625,-1.8582186698913574,3.2275779247283936,-2.5488712787628174
1759485875064788000,8.3227880859375,-3.3336098194122314,5.347757816314697,-1.9776192903518677
1759485875074845700,8.332845703125,-2.5017263889312744,4.805615425109863,-1.2729203701019287
1759485875084902700,8.342902587890626,-1.2564209699630737,2.8964216709136963,-0.8703325390815735
1759485875094960600,8.352960693359375,-0.9809544682502747,0.9669767022132874,-0.947404682636261
1759485875105017600,8.363017578125,-1.3432021141052246,-0.5616620779037476,-1.2344015836715698
1759485875115074800,8.37307470703125,-2.09230375289917,-1.9942065477371216,-1.3283302783966064
1759485875125132800,8.3831328125,-2.882223606109619,-3.0341596603393555,-1.2301385402679443
1759485875135189800,8.393189697265624,-3.2695486545562744,-3.0452845096588135,-1.4687854051589966
1759485875145246700,8.403246826171875,-2.724729537963867,-2.3207194805145264,-2.230397939682007
1759485875155304700,8.4133046875,-1.4366731643676758,-2.7913918495178223,-3.4054696559906006
1759485875165361700,8.423361572265625,-0.4109156131744385,-4.165717124938965,-4.909780502319336
1759485875175420000,8.433419921875,0.04049331694841385,-4.148270606994629,-6.078445911407471
1759485875185476900,8.443476806640625,-0.064729243516922,-1.936421513557434,-6.444067001342773
1759485875195533800,8.453533935546876,-0.6175112128257751,1.8076499700546265,-5.813941955566406
1759485875205591600,8.463591552734375,-0.9435793161392212,4.223573684692383,-4.421982765197754
1759485875215648800,8.473648681640626,-0.7146368622779846,4.392543315887451,-3.340651273727417
1759485875225705700,8.483705810546875,-0.46736207604408264,3.230419635772705,-2.735156297683716
1759485875235763500,8.493763427734375,-0.19159892201423645,1.0708281993865967,-2.1645801067352295
1759485875245820400,8.5038203125,0.05193011835217476,-0.565589427947998,-1.6942501068115234
1759485875255877400,8.51387744140625,0.14025288820266724,-0.6799116134643555,-1.3226181268692017
1759485875265935400,8.523935302734374,0.031246772035956383,-0.27872738242149353,-0.8567894697189331
1759485875275992300,8.533992431640625,-0.24461886286735535,-0.9791302680969238,-0.44974374771118164
1759485875286050600,8.544050537109374,-0.5883879661560059,-1.9214985370635986,0.1127811074256897
1759485875296107500,8.554107421875,-0.8786561489105225,-2.1358563899993896,0.8138686418533325
1759485875306164500,8.56416455078125,-1.044502854347229,-1.241191029548645,1.456568717956543
1759485875316222500,8.574222412109375,-0.9225184321403503,-0.3156111240386963,1.7593977451324463
1759485875326279400,8.584279541015626,-0.6059138774871826,0.08922211080789566,1.9323512315750122
1759485875336336600,8.594336669921875,-0.30172809958457947,0.10100983828306198,2.038191795349121
1759485875346394600,8.60439453125,-0.06785701215267181,-0.06669607013463974,2.1490111351013184
1759485875356451600,8.61445166015625,0.11763627827167511,-0.18469563126564026,2.3101754188537598
1759485875366508500,8.624508544921875,0.28230220079421997,-0.19379831850528717,2.516111135482788
1759485875376566500,8.63456640625,0.3148714005947113,-0.1114455983042717,2.8208909034729004
1759485875386623700,8.644623779296875,0.3247293531894684,-0.4629117250442505,2.9690604209899902
1759485875396680700,8.6546806640625,0.46914806962013245,-0.966310977935791,2.9602253437042236
1759485875406738400,8.664738525390625,0.7499914765357971,-1.1210910081863403,2.8171448707580566
1759485875416795400,8.67479541015625,1.0612977743148804,-0.9186468720436096,2.462183713912964
1759485875426853400,8.684853271484375,0.9057285785675049,-1.149505853652954,2.8807013034820557
1759485875436910300,8.694910400390626,0.7182782888412476,-1.8135206699371338,3.727351665496826
1759485875446967600,8.704967529296875,0.7256224751472473,-1.8031305074691772,4.2913818359375
1759485875457025500,8.715025634765626,0.8290101885795593,-1.1562598943710327,4.652817249298096
1759485875467082500,8.72508251953125,0.8003114461898804,-0.5790871381759644,4.715651035308838
1759485875477139500,8.735139404296875,0.2600517272949219,0.8685705065727234,4.341231822967529
1759485875487197400,8.745197509765624,-0.22086216509342194,2.9832184314727783,3.74306058883667
1759485875497254700,8.755254638671875,0.3957584798336029,4.855765342712402,3.077054738998413
1759485875507311600,8.7653115234375,1.473895788192749,5.131024360656738,2.339996337890625
1759485875517369600,8.77536962890625,1.7276891469955444,3.947763681411743,1.5814522504806519
1759485875527426600,8.785426513671876,1.4381343126296997,2.6939969062805176,1.048644781112671
1759485875537483500,8.7954833984375,1.1262283325195312,0.9290933609008789,1.082525610923767
1759485875547541500,8.80554150390625,0.913364827632904,-1.287388563156128,1.3009109497070312
1759485875557598500,8.815598388671875,0.6985117197036743,-2.530536651611328,1.8968290090560913
1759485875567655700,8.82565576171875,0.7316291928291321,-1.777978777885437,1.7875359058380127
1759485875577713400,8.83571337890625,1.0669872760772705,-1.405640959739685,0.9167343974113464
1759485875587770400,8.845770263671875,1.0426875352859497,-2.7003321647644043,0.48207616806030273
1759485875597827300,8.855827392578124,0.9506297707557678,-3.545523166656494,0.2103021889925003
1759485875607885600,8.865885498046875,0.8594109416007996,-3.072675943374634,-0.1622926890850067
1759485875617942500,8.875942626953124,0.8476589322090149,-2.6515581607818604,-0.46827977895736694
1759485875627999500,8.88599951171875,0.5832719802856445,-2.785888671875,-0.5534309148788452
1759485875638057500,8.896057373046874,0.3743283152580261,-2.6046314239501953,-0.5683063864707947
1759485875648114400,8.906114501953125,0.18558184802532196,-2.1079185009002686,-0.48225855827331543
1759485875658171400,8.91617138671875,-0.11180271953344345,-0.8502874374389648,-0.4462885856628418
1759485875668229600,8.926229736328125,-0.39083781838417053,0.2892419099807739,-0.4232117533683777
1759485875678286600,8.93628662109375,-0.5188249945640564,0.9976570010185242,-0.3531492054462433
1759485875688343600,8.946343505859375,-0.6030187010765076,1.1468530893325806,-0.19421708583831787
1759485875698401500,8.956401611328126,-0.6364884972572327,0.9950639009475708,0.04702119901776314
1759485875708458500,8.96645849609375,-0.6227803826332092,0.9239329695701599,0.22540079057216644
1759485875718515500,8.976515380859375,-0.43109607696533203,0.9746195673942566,0.2250770479440689
1759485875728573400,8.986573486328124,-0.07699497789144516,1.1730901002883911,0.11106365919113159
1759485875738630700,8.996630615234375,0.24852731823921204,1.3661882877349854,-0.011176569387316704
1759485875748687600,9.0066875,0.4804026186466217,1.6497608423233032,-0.10373446345329285
1759485875758745300,9.016745361328125,0.7257100343704224,2.1895558834075928,-0.1876181811094284
1759485875768802300,9.02680224609375,0.915597677230835,2.8440287113189697,-0.11828010529279709
1759485875778860500,9.036860595703125,1.0415840148925781,2.8681883811950684,-0.33338290452957153
1759485875788917500,9.04691748046875,1.1062889099121094,1.587310791015625,-0.8300392627716064
1759485875798974500,9.056974365234375,1.2587165832519531,0.8821847438812256,-0.5366306900978088
1759485875809031400,9.067031494140625,0.8684089779853821,-1.0434287786483765,-1.3442734479904175
1759485875819089400,9.07708935546875,0.06996721029281616,-1.2371312379837036,-1.3566640615463257
1759485875829146600,9.087146728515625,-1.8000876903533936,1.2664461135864258,-1.629062533378601
1759485875839203600,9.09720361328125,-2.9869232177734375,3.233383893966675,-1.5066181421279907
1759485875849261600,9.107261474609375,-2.3446123600006104,3.0847203731536865,-1.0477261543273926
1759485875859318500,9.117318603515624,-1.3268520832061768,2.289294481277466,-0.893469512462616
1759485875869375500,9.12737548828125,-0.8955234289169312,2.1308603286743164,-1.2713228464126587
1759485875879433500,9.13743359375,-1.1391716003417969,1.5045267343521118,-1.6160598993301392
1759485875889490700,9.14749072265625,-1.8185391426086426,0.0869755819439888,-1.7051674127578735
1759485875899547600,9.157547607421876,-2.657017707824707,-1.4207868576049805,-1.7278066873550415
1759485875909605400,9.16760546875,-3.1779870986938477,-2.4574406147003174,-1.7696393728256226
1759485875919662600,9.17766259765625,-2.774165153503418,-3.1337404251098633,-1.993620753288269
1759485875929719600,9.187719482421874,-1.3417670726776123,-3.649339199066162,-3.1490478515625
1759485875939777500,9.197777587890625,-0.10635218024253845,-4.237990379333496,-4.575375080108643
1759485875949834500,9.20783447265625,0.45445311069488525,-3.522981882095337,-5.60844612121582
1759485875959891500,9.217891357421875,0.45154890418052673,-1.866841197013855,-6.007811069488525
1759485875969949400,9.227949462890624,-0.1573578417301178,1.1762138605117798,-5.612020015716553
1759485875980006400,9.23800634765625,-0.8478798866271973,4.4730000495910645,-4.353814601898193
1759485875990063400,9.2480634765625,-0.795376181602478,4.958832740783691,-3.338055372238159
1759485876000121600,9.25812158203125,-0.4415743350982666,3.3048970699310303,-2.534973621368408
1759485876010178600,9.268178466796876,0.032843831926584244,0.9518565535545349,-1.7823431491851807
1759485876020235500,9.278235595703125,0.2504999339580536,-0.005877075716853142,-1.4627622365951538
1759485876030293500,9.28829345703125,0.21031416952610016,0.09805198758840561,-1.3263593912124634
1759485876040350500,9.2983505859375,0.06342095136642456,0.21120445430278778,-0.9311094880104065
1759485876050407400,9.308407470703125,-0.15156486630439758,0.03733758628368378,-0.4886481761932373
1759485876060465700,9.318465576171874,-0.4479769468307495,-0.5280181169509888,-0.07126312702894211
1759485876070522600,9.328522705078125,-0.7821637392044067,-1.0859743356704712,0.2735837399959564
1759485876080579600,9.33857958984375,-0.9731898307800293,-1.3602406978607178,0.6450468897819519
1759485876090636500,9.348636474609375,-0.8904158473014832,-1.2067855596542358,1.0650625228881836
1759485876100694500,9.358694580078126,-0.6404371857643127,-0.888900876045227,1.3825836181640625
1759485876110751500,9.36875146484375,-0.4613460302352905,-0.5257466435432434,1.6005675792694092
1759485876120808700,9.37880859375,-0.26353615522384644,-0.025786874815821648,1.8384445905685425
1759485876130866400,9.388866455078125,-0.025300955399870872,0.26057538390159607,2.1262550354003906
1759485876140923400,9.39892333984375,0.2685687243938446,0.1416330188512802,2.3283607959747314
1759485876150980400,9.40898046875,0.5182901620864868,-0.3262700140476227,2.4844350814819336
1759485876161038300,9.419038330078125,0.5927996635437012,-1.0139411687850952,2.580793619155884
1759485876171095600,9.429095458984374,0.6088258028030396,-1.8149253129959106,2.5346181392669678
1759485876181152500,9.439152587890625,0.6221087574958801,-2.52299165725708,2.344520092010498
1759485876191210500,9.44921044921875,0.7743792533874512,-2.7114033699035645,2.1988577842712402
1759485876201267500,9.459267333984375,1.081617832183838,-2.328282594680786,2.2059619426727295
1759485876211324400,9.469324462890626,1.1181758642196655,-2.284714698791504,2.398020029067993
1759485876221381000,9.479381103515625,1.004511833190918,-1.9415760040283203,2.8841750621795654
1759485876231439000,9.489439208984376,1.0004761219024658,-1.3659074306488037,3.3455746173858643
1759485876241496000,9.49949609375,1.226564645767212,-1.306687593460083,4.07420539855957
1759485876251553000,9.509552978515625,1.2124749422073364,-1.6605849266052246,4.526647567749023
1759485876261611300,9.519611328125,0.5547924041748047,-0.9647649526596069,4.361719131469727
1759485876271668200,9.529668212890625,-0.37675103545188904,0.6644217371940613,3.7708842754364014
1759485876281725200,9.53972509765625,0.108480304479599,1.8199290037155151,3.3936662673950195
1759485876291783200,9.549783203125,1.350094199180603,2.823687791824341,2.983549118041992
1759485876301840100,9.559840087890626,1.729670524597168,3.1352055072784424,2.4239914417266846
1759485876311897000,9.56989697265625,1.402494192123413,2.8454363346099854,1.814152479171753
1759485876321955300,9.579955322265626,1.0890803337097168,1.8977723121643066,1.3019721508026123
1759485876332012300,9.59001220703125,0.7567536234855652,0.38610029220581055,0.9667078256607056
1759485876342069200,9.6000693359375,0.4195478558540344,-1.1488726139068604,1.2014071941375732
1759485876352126200,9.610126220703124,0.3731822371482849,-0.8592942953109741,1.3094375133514404
1759485876362184000,9.620183837890625,0.7051371932029724,0.5298954844474792,0.7464666366577148
1759485876372241000,9.630240966796874,0.6714119911193848,0.31102171540260315,0.0858207643032074
1759485876382298000,9.640298095703125,0.5176275372505188,-1.9769697189331055,-0.2591482698917389
1759485876392356000,9.650356201171874,0.44466811418533325,-3.0400376319885254,-0.38043367862701416
1759485876402413000,9.6604130859375,0.5356088280677795,-2.752030372619629,-0.4067004919052124
1759485876412470000,9.670469970703126,0.5141171216964722,-1.9673970937728882,-0.7322288155555725
1759485876422527000,9.68052685546875,0.4582945704460144,-1.863632082939148,-1.103502869606018
1759485876432585200,9.690585205078126,0.19152280688285828,-1.9430826902389526,-1.133470058441162
1759485876442642200,9.70064208984375,-0.09823843836784363,-1.3571263551712036,-1.026702880859375
1759485876452699100,9.71069921875,-0.30673426389694214,-0.4052467346191406,-0.8675850629806519
1759485876462757000,9.720757080078124,-0.5782260894775391,0.3906187117099762,-0.6722514629364014
1759485876472814000,9.73081396484375,-0.7623264193534851,0.9555470943450928,-0.4966421127319336
1759485876482871000,9.74087109375,-0.8577130436897278,1.04539155960083,-0.29514628648757935
1759485876492929300,9.75092919921875,-0.948617696762085,0.4625917971134186,-0.022271348163485527
1759485876502986200,9.760986328125,-0.9390870332717896,-0.4526694416999817,0.2593558132648468
1759485876513043200,9.771043212890625,-0.8427053689956665,-1.0478177070617676,0.49919477105140686
1759485876523100200,9.78110009765625,-0.6294123530387878,-1.202310562133789,0.6834983825683594
1759485876533158100,9.791158203125,-0.3510233461856842,-0.8978307843208313,0.9113717675209045
1759485876543215000,9.801215087890625,-0.05095003545284271,-0.18488968908786774,1.3332558870315552
1759485876553272300,9.811272216796874,0.7267489433288574,1.518478274345398,2.367051362991333
1759485876563330000,9.821330078125,1.7829766273498535,4.537310600280762,2.6584489345550537
1759485876573387300,9.83138720703125,2.392334461212158,6.188027381896973,0.546587347984314
1759485876583444200,9.8414443359375,2.3445420265197754,4.298690319061279,-1.3082534074783325
1759485876593501200,9.851501220703126,1.9321494102478027,3.181730270385742,-0.6163398027420044
1759485876603559000,9.861558837890625,1.272653341293335,-0.6933836340904236,-0.5049850940704346
1759485876613616000,9.8716162109375,0.533866286277771,-2.330543041229248,-0.2502041757106781
1759485876623673000,9.881673095703125,-0.7664775848388672,-0.8969684839248657,-0.36969712376594543
1759485876633731000,9.89173095703125,-2.0364668369293213,0.7142980098724365,-0.49840158224105835
1759485876643788000,9.9017880859375,-1.805630087852478,1.7388527393341064,-0.2111702859401703
1759485876653845000,9.911844970703125,-0.9645369648933411,1.8346208333969116,0.11751225590705872
1759485876663902000,9.92190185546875,-0.4911339581012726,1.6167523860931396,-0.28269678354263306
1759485876673960200,9.931960205078125,-0.4577115774154663,1.2674888372421265,-0.744823694229126
1759485876684017200,9.94201708984375,-0.6949481964111328,0.626228392124176,-1.020143747329712
1759485876694074000,9.95207421875,-1.0086978673934937,-0.24881333112716675,-1.1047635078430176
1759485876704131000,9.962131103515626,-1.1876188516616821,-1.0820938348770142,-1.1368988752365112
1759485876714189000,9.97218896484375,-1.1606236696243286,-1.6174490451812744,-1.2038819789886475
1759485876724246000,9.98224609375,-1.1459312438964844,-2.079052686691284,-1.4632148742675781
1759485876734303200,9.99230322265625,-0.9365038275718689,-2.4164559841156006,-2.088146686553955
1759485876744361200,10.002361328125,-0.6468052864074707,-2.7790794372558594,-2.8882951736450195
1759485876754418200,10.012418212890625,-0.3910270035266876,-2.5283994674682617,-3.64050555229187
1759485876764475100,10.02247509765625,-0.18869474530220032,-1.5739915370941162,-4.201154708862305
1759485876774532000,10.032531982421874,-0.10230712592601776,0.052729859948158264,-4.413667678833008
1759485876784590300,10.04259033203125,-0.17472299933433533,2.0298075675964355,-3.8857173919677734
1759485876794647300,10.052647216796874,-0.2299005091190338,3.267679452896118,-2.822434663772583
1759485876804704300,10.062704345703125,-0.22839288413524628,3.34799861907959,-1.9226027727127075
1759485876814762200,10.07276220703125,-0.2697773575782776,2.6034696102142334,-1.4305132627487183
1759485876824819200,10.082819091796875,-0.36563196778297424,1.7829217910766602,-1.2648574113845825
1759485876834876200,10.092876220703126,-0.5053600668907166,1.3875893354415894,-1.5121816396713257
1759485876844933000,10.10293310546875,-0.537261426448822,1.6716970205307007,-1.9329880475997925
1759485876854991000,10.1129912109375,-0.47490403056144714,2.098206043243408,-2.164142608642578
1759485876865048000,10.123048095703124,-0.5008445382118225,2.1061880588531494,-2.1237735748291016
1759485876875105000,10.13310498046875,-0.6470428109169006,1.6165409088134766,-1.880523920059204
1759485876885162200,10.143162353515624,-0.8601101636886597,0.9439585208892822,-1.5604804754257202
1759485876895220000,10.153219970703125,-1.1121405363082886,0.5000559091567993,-1.2216094732284546
1759485876905277200,10.163277099609376,-1.3215290307998657,0.41423118114471436,-0.9223010540008545
1759485876915334100,10.173334228515625,-1.3712371587753296,0.5144789814949036,-0.7244819402694702
1759485876925391000,10.18339111328125,-1.3260680437088013,0.5861886143684387,-0.5042921304702759
1759485876935449000,10.193448974609375,-1.2284739017486572,0.6776442527770996,-0.242238387465477
1759485876945506000,10.203506103515625,-1.0978045463562012,0.8522239923477173,0.018474610522389412
1759485876955563000,10.21356298828125,-0.9356876015663147,1.2075642347335815,0.2632473409175873
1759485876965621200,10.223621337890625,-0.6670686602592468,1.4861011505126953,0.4500645101070404
1759485876975678200,10.23367822265625,-0.31952881813049316,1.5187257528305054,0.5987977981567383
1759485876985735200,10.243735107421875,0.051104191690683365,1.2835603952407837,0.8066032528877258
1759485876995792100,10.253792236328126,0.44208285212516785,0.7422018051147461,1.0161361694335938
1759485877005850000,10.26385009765625,0.798132598400116,0.25707074999809265,1.1234301328659058
1759485877015907000,10.273906982421876,1.116787314414978,0.05244624614715576,1.2525180578231812
1759485877025964000,10.283964111328125,1.2442371845245361,0.49950289726257324,1.4512832164764404
1759485877036021200,10.294021240234375,1.425552487373352,0.277532160282135,1.821808099746704
1759485877046079200,10.304079345703125,1.6385000944137573,-1.442618489265442,1.9964094161987305
1759485877056136200,10.31413623046875,1.650188684463501,-2.4102609157562256,1.5098106861114502
1759485877066193200,10.324193115234374,1.343531608581543,-1.944210171699524,1.3498477935791016
1759485877076250000,10.33425,0.8131341338157654,-1.0083175897598267,2.098205804824829
1759485877086308400,10.344308349609374,0.4059313237667084,-0.16926045715808868,3.0318188667297363
1759485877096365300,10.354365234375,0.7804300785064697,0.35393381118774414,3.4697537422180176
1759485877106422300,10.36442236328125,1.6941848993301392,0.5809112787246704,3.4116556644439697
1759485877116479200,10.374479248046875,2.195230484008789,0.5995782017707825,3.1328892707824707
1759485877126537000,10.384536865234375,1.954353928565979,0.6197531223297119,2.7833361625671387
1759485877136594200,10.39459423828125,1.175577163696289,0.6124792098999023,2.3165347576141357
1759485877146651100,10.404651123046875,0.5210432410240173,0.4312698543071747,1.9602116346359253
1759485877156708400,10.414708251953124,0.3131906986236572,0.14655236899852753,1.8166406154632568
1759485877166766000,10.42476611328125,0.2969842851161957,-0.25015124678611755,1.8192280530929565
1759485877176823000,10.434822998046876,0.26330649852752686,-0.5245958566665649,1.8153403997421265
1759485877186880000,10.4448798828125,0.10997805744409561,-0.41478231549263,1.8325648307800293
1759485877196937000,10.45493701171875,-0.015656830742955208,0.08155873417854309,1.7986270189285278
1759485877206995200,10.4649951171875,-0.02367107942700386,0.858887255191803,1.5751897096633911
1759485877217052200,10.47505224609375,0.03546707332134247,1.3836474418640137,1.1669158935546875
1759485877227109000,10.485109130859374,0.11038445681333542,1.52922523021698,0.6628244519233704
1759485877237166000,10.495166015625,0.20046241581439972,1.2198995351791382,0.2766781151294708
1759485877247224000,10.50522412109375,0.1535293459892273,0.7497010231018066,0.046911727637052536
1759485877257281000,10.515281005859375,0.09198129177093506,0.4734947383403778,-0.055504392832517624
1759485877267338000,10.525337890625,-0.009163451381027699,0.4212755262851715,-0.06210194528102875
1759485877277395200,10.535395263671875,-0.18153974413871765,0.17135250568389893,-0.026573777198791504
1759485877287453200,10.545453125,-0.3586019277572632,-0.24410071969032288,-0.06889485567808151
1759485877297510100,10.55551025390625,-0.42645367980003357,-0.6843851804733276,-0.21362407505512238
1759485877307567000,10.565567138671875,-0.48515084385871887,-1.3363451957702637,-0.4393240213394165
1759485877317624000,10.5756240234375,-0.5254668593406677,-2.002159833908081,-0.7040116190910339
1759485877327682000,10.58568212890625,-0.49730411171913147,-2.518923759460449,-0.9272817969322205
1759485877337739300,10.5957392578125,-0.3900255858898163,-2.8856213092803955,-1.0619373321533203
1759485877347796200,10.605796142578125,-0.25177690386772156,-3.187670946121216,-1.1179463863372803
1759485877357853200,10.615853271484376,-0.11727716028690338,-3.4129281044006348,-1.0222853422164917
1759485877367911200,10.6259111328125,-0.09499980509281158,-3.454608678817749,-0.8618583083152771
1759485877377968000,10.635968017578126,-0.126016303896904,-3.3966636657714844,-0.6964752078056335
1759485877388025000,10.646025146484375,-0.12706546485424042,-3.2015817165374756,-0.5576483607292175
1759485877398082000,10.65608203125,-0.07121444493532181,-2.7270548343658447,-0.4760826528072357
1759485877408140300,10.666140380859375,0.05546196177601814,-1.8303675651550293,-0.4215725362300873
1759485877418197200,10.676197265625,0.37238582968711853,-0.9535399079322815,-0.2702791690826416
1759485877428254200,10.686254150390624,0.7229490876197815,-0.3784645199775696,-0.20817597210407257
1759485877438311200,10.696311279296875,0.9243788719177246,0.04161582887172699,-0.2288583517074585
1759485877448369200,10.706369140625,1.0206371545791626,0.5204012989997864,-0.283618301153183
1759485877458426000,10.716426025390625,1.089898705482483,0.8264472484588623,-0.3686506450176239
1759485877468483300,10.7264833984375,1.217547059059143,0.8296323418617249,-0.42738834023475647
1759485877478540300,10.736540283203125,1.431913137435913,0.6202468872070312,-0.43193939328193665
1759485877488598000,10.746597900390626,1.5423403978347778,0.21247492730617523,-0.29661184549331665
1759485877498655000,10.756655029296875,1.2616688013076782,-0.06596522778272629,-0.030400924384593964
1759485877508712000,10.7667119140625,0.6840450167655945,0.141555055975914,0.29066598415374756
1759485877518769200,10.77676904296875,0.2543184161186218,0.5413565635681152,0.5499348044395447
1759485877528826000,10.786826171875,-0.10509735345840454,0.37787100672721863,0.6111915707588196
1759485877538884000,10.796884033203124,-0.42217516899108887,-0.3213203549385071,0.47189173102378845
1759485877548941000,10.806941162109375,-0.6556196212768555,-1.0175237655639648,0.3179967999458313
1759485877558998000,10.816998046875,-0.7361466884613037,-1.4932132959365845,0.24203304946422577
1759485877569055000,10.827054931640625,-0.694831132888794,-1.6945637464523315,0.2120206505060196
1759485877579113200,10.83711328125,-0.6107953190803528,-1.596566081047058,0.16870459914207458
1759485877589170200,10.847170166015625,-0.5143947005271912,-1.2883414030075073,0.0863066241145134
1759485877599227100,10.85722705078125,-0.417203426361084,-0.8645304441452026,-0.05743855983018875
1759485877609284000,10.8672841796875,-0.3208584189414978,-0.4112652838230133,-0.22739338874816895
1759485877619341000,10.877341064453125,-0.252325177192688,-0.01931852288544178,-0.3797067701816559
1759485877629399000,10.88739892578125,-0.19209860265254974,0.2614019215106964,-0.47573789954185486
1759485877639456000,10.8974560546875,-0.151412695646286,0.3589487075805664,-0.5266056060791016
1759485877649513200,10.90751318359375,-0.10121756047010422,0.3326367735862732,-0.5521268844604492
1759485877659570200,10.917570068359375,-0.021653225645422935,0.23096074163913727,-0.5550779104232788
1759485877669628200,10.927628173828126,0.04798191785812378,0.11369726061820984,-0.5201159715652466
1759485877679685000,10.93768505859375,0.07785912603139877,0.04303507134318352,-0.45622485876083374
1759485877689742000,10.9477421875,0.07790204882621765,-0.0009812877979129553,-0.34491807222366333
1759485877699799000,10.957799072265624,0.05038120597600937,0.00008371026342501864,-0.2139057219028473
1759485877709857300,10.967857177734375,0.025650080293416977,0.06790768355131149,-0.08126573264598846
1759485877719914200,10.977914306640624,0.01874770224094391,0.20469322800636292,0.0147236417979002
1759485877729971200,10.98797119140625,0.031064486131072044,0.3111294209957123,0.04542822018265724
1759485877740028200,10.998028076171876,0.04753853380680084,0.4540868401527405,0.04245586693286896
1759485877750085000,11.008085205078125,0.04162529855966568,0.583285391330719,0.029502764344215393
1759485877760143000,11.01814306640625,0.010211184620857239,0.6523145437240601,0.02678047865629196
1759485877770200300,11.028200439453125,-0.055706627666950226,0.5920589566230774,0.03752501681447029
1759485877780257300,11.03825732421875,-0.12307395040988922,0.3294941484928131,0.05321742594242096
1759485877790314200,11.048314208984374,-0.15672369301319122,-0.06663810461759567,0.05485011637210846
1759485877800371200,11.05837109375,-0.19068938493728638,-0.4522033631801605,0.034011151641607285
1759485877810429200,11.06842919921875,-0.25713127851486206,-0.7153235077857971,-0.020181190222501755
1759485877820486100,11.078486083984375,-0.33412137627601624,-0.8775238990783691,-0.08627791702747345
1759485877830543000,11.088543212890626,-0.4299473166465759,-0.9885244965553284,-0.13745975494384766
1759485877840600300,11.098600341796875,-0.5131295919418335,-1.0015007257461548,-0.1535513699054718
1759485877850658300,11.108658203125,-0.5281445384025574,-0.8935837745666504,-0.14019370079040527
1759485877860715300,11.11871533203125,-0.3833463788032532,-0.6835301518440247,-0.056817326694726944
1759485877870772200,11.128772216796875,-0.3129987120628357,-0.3394463062286377,0.09829940646886826
1759485877880829200,11.1388291015625,-0.27463987469673157,-0.10821813344955444,0.21699756383895874
1759485877890886100,11.14888623046875,-0.2381855994462967,-0.07908905297517776,0.23885342478752136
1759485877900944100,11.158944091796876,-0.18821272253990173,-0.17758925259113312,0.19529317319393158
1759485877911001000,11.1690009765625,-0.120989590883255,-0.39015018939971924,0.13081111013889313
1759485877921058300,11.179058349609376,-0.0745757520198822,-0.5595277547836304,0.06827130168676376
1759485877931115300,11.189115234375,-0.08521807193756104,-0.5884793996810913,0.04685034975409508
1759485877941172200,11.199172119140625,-0.1330130249261856,-0.4521884024143219,0.06664908677339554
1759485877951230000,11.20922998046875,-0.17906610667705536,-0.22385263442993164,0.10957396030426025
1759485877961287000,11.219286865234375,-0.1848217248916626,0.00700961472466588,0.1519661545753479
1759485877971344100,11.22934423828125,-0.12740549445152283,0.08851183950901031,0.18787768483161926
1759485877981401000,11.239401123046875,-0.06679540872573853,0.0687655657529831,0.16218005120754242
1759485877991458300,11.249458251953126,-0.057828716933727264,0.043030813336372375,0.08452238142490387
1759485878001516000,11.25951611328125,-0.06489967554807663,0.05212710425257683,-0.019220519810914993
1759485878011573000,11.269572998046876,-0.044885024428367615,0.037539467215538025,-0.12328249216079712
1759485878021630000,11.2796298828125,0.011864008381962776,-0.028297338634729385,-0.21385712921619415
1759485878031687000,11.28968701171875,0.02424757182598114,-0.1354285478591919,-0.3208830654621124
1759485878041744100,11.299744140625,0.06578648835420609,-0.16762669384479523,-0.4013310372829437
1759485878051802000,11.309802001953125,0.08089441806077957,-0.17236456274986267,-0.46335428953170776
1759485878061859000,11.319859130859374,0.026819199323654175,-0.21015003323554993,-0.578853189945221
1759485878071916000,11.329916015625,-0.02322893962264061,-0.2314462959766388,-0.6740810871124268
1759485878081973000,11.339972900390626,-0.07927782833576202,-0.2279655486345291,-0.7904207706451416
1759485878092030000,11.350030029296875,-0.21026520431041718,-0.21528081595897675,-0.8404185175895691
1759485878102088200,11.360088134765626,-0.42066690325737,-0.23951424658298492,-0.7820425033569336
1759485878112145200,11.370145263671875,-0.5829870104789734,-0.3919072151184082,-0.6239956617355347
1759485878122202000,11.3802021484375,-0.6846193671226501,-0.6512653231620789,-0.395183801651001
1759485878132259000,11.390259033203124,-0.915242075920105,-0.8601440191268921,-0.12088489532470703
1759485878142316000,11.40031591796875,-1.2566330432891846,-0.925990641117096,0.19816340506076813
1759485878152374000,11.4103740234375,-1.2992359399795532,-0.7701117396354675,0.45278388261795044
1759485878162431200,11.42043115234375,-1.0611895322799683,-0.4642857313156128,0.5986822843551636
1759485878172488200,11.43048828125,-0.7097769975662231,-0.10325144976377487,0.6406354904174805
1759485878182545200,11.440545166015625,-0.39819222688674927,0.27328038215637207,0.6067579388618469
1759485878192602000,11.45060205078125,-0.27393072843551636,0.806181788444519,0.4877186417579651
1759485878202659000,11.4606591796875,-0.3564101457595825,1.335797667503357,0.33463478088378906
1759485878212717000,11.470717041015625,-0.5366346836090088,1.5941308736801147,0.20546574890613556
1759485878222774300,11.480774169921874,-0.6925914883613586,1.6688780784606934,0.0954500287771225
1759485878232831200,11.490831298828125,-0.7433274388313293,1.5478956699371338,-0.008361092768609524
1759485878242888200,11.50088818359375,-0.6623212695121765,1.3166837692260742,-0.11351414769887924
1759485878252945200,11.510945068359375,-0.4820632338523865,1.0857263803482056,-0.20084045827388763
1759485878263003400,11.52100341796875,-0.3320987820625305,0.7754204869270325,-0.23888185620307922
1759485878273060400,11.531060302734375,-0.2429066002368927,0.40284237265586853,-0.22454684972763062
1759485878283117300,11.541117431640625,-0.21015851199626923,0.07899214327335358,-0.18808045983314514
1759485878293174300,11.55117431640625,-0.19356082379817963,-0.0773465558886528,-0.15249750018119812
1759485878303231200,11.561231201171875,-0.19906452298164368,-0.06721855700016022,-0.13029606640338898
1759485878313288200,11.5712880859375,-0.22880852222442627,-0.008540966548025608,-0.10970047861337662
1759485878323346400,11.581346435546875,-0.23828750848770142,0.017390765249729156,-0.08655308187007904
1759485878333403400,11.5914033203125,-0.1868840754032135,-0.10095105320215225,-0.04281359165906906
1759485878343460400,11.60146044921875,-0.10408186912536621,-0.2810784876346588,0.006558483466506004
1759485878353517300,11.611517333984375,-0.09566710889339447,-0.41672608256340027,0.04469754546880722
1759485878363574300,11.62157421875,-0.09636379033327103,-0.5134915113449097,0.06479296088218689
1759485878373631200,11.63163134765625,-0.1298661231994629,-0.5620794892311096,0.0587315559387207
1759485878383689500,11.641689453125,-0.09486660361289978,-0.4513396918773651,-0.0010817092843353748
1759485878393746400,11.651746337890625,-0.07781192660331726,-0.27665501832962036,-0.06826480478048325
1759485878403803400,11.661803466796876,-0.06534620374441147,-0.040457386523485184,-0.1354355812072754
1759485878413860400,11.6718603515625,-0.07139988988637924,0.1791122853755951,-0.17338769137859344
1759485878423917300,11.681917236328125,-0.10552190989255905,0.37302157282829285,-0.17726606130599976
1759485878433975300,11.691975341796875,-0.13659292459487915,0.5304391384124756,-0.1416776031255722
1759485878444032300,11.7020322265625,-0.1950216144323349,0.6239496469497681,-0.04857669025659561
1759485878454089500,11.71208935546875,-0.2377578467130661,0.7285565733909607,0.062268685549497604
1759485878464146400,11.722146484375,-0.22468864917755127,0.8595575094223022,0.15766258537769318
1759485878474203400,11.732203369140626,-0.1944884955883026,0.9739718437194824,0.22208112478256226
1759485878484260400,11.74226025390625,-0.16821429133415222,1.0305798053741455,0.25296393036842346
1759485878494318300,11.752318359375,-0.15908141434192657,0.9724631309509277,0.25373271107673645
1759485878504375300,11.762375244140625,-0.12328773736953735,0.8295666575431824,0.21710491180419922
1759485878514432300,11.772432373046875,-0.06493715941905975,0.6331191658973694,0.13850687444210052
1759485878524489500,11.782489501953124,-0.04902690649032593,0.33322060108184814,0.07378938794136047
1759485878534546400,11.79254638671875,0.011550158262252808,0.07731479406356812,0.004830291494727135
1759485878544603400,11.802603271484376,0.14410074055194855,-0.23620423674583435,-0.02167455293238163
1759485878554661400,11.812661376953125,0.3059019148349762,-0.6234515905380249,0.008429978042840958
1759485878564718300,11.82271826171875,0.38847029209136963,-1.0242775678634644,0.07089947909116745
1759485878574775300,11.832775390625,0.36397671699523926,-1.311948299407959,0.1232621967792511
1759485878584832300,11.842832275390625,0.286394327878952,-1.3936713933944702,0.13160453736782074
1759485878594889500,11.852889404296874,0.18399368226528168,-1.241404414176941,0.08159793168306351
1759485878604946400,11.862946533203125,0.024622920900583267,-0.8904120326042175,0.01094586681574583
1759485878615003400,11.87300341796875,-0.15797041356563568,-0.5123828053474426,-0.03334849327802658
1759485878625061400,11.883061279296875,-0.18997521698474884,-0.17677578330039978,-0.03641006350517273
1759485878635118300,11.893118408203126,-0.09332206845283508,0.10615333914756775,-0.0037211370654404163
1759485878645175300,11.90317529296875,0.02175286039710045,0.36713674664497375,0.04046230390667915
1759485878655232300,11.913232177734375,0.06279678642749786,0.5729460120201111,0.09291145950555801
1759485878665289500,11.92328955078125,0.03140850365161896,0.7161316871643066,0.12825746834278107
1759485878675346400,11.933346435546875,-0.020922716706991196,0.7585241794586182,0.1352737545967102
1759485878685404400,11.943404296875,-0.04474016651511192,0.6755824089050293,0.11554211378097534
1759485878695461400,11.95346142578125,-0.023115992546081543,0.4871789216995239,0.08169369399547577
1759485878705518300,11.963518310546876,0.044625770300626755,0.27395960688591003,0.03432990983128548
1759485878715575300,11.9735751953125,0.12591895461082458,0.11506522446870804,-0.01572260819375515
1759485878725632300,11.98363232421875,0.13668131828308105,-0.008320888504385948,-0.056257784366607666
1759485878735689500,11.993689453125,0.0881246030330658,-0.0843362808227539,-0.08479668200016022
1759485878745746400,12.003746337890625,0.038161568343639374,-0.11305820941925049,-0.10728707909584045
1759485878755804400,12.013804443359374,0.00825158879160881,-0.12825164198875427,-0.1121961697936058
1759485878765861400,12.023861328125,-0.02351433038711548,-0.19478566944599152,-0.08281830698251724
1759485878775918300,12.03391845703125,-0.035684797912836075,-0.2611847519874573,-0.03587530180811882
1759485878785975300,12.043975341796875,-0.028629017993807793,-0.2467043250799179,-0.005884913261979818
1759485878796032300,12.0540322265625,-0.05337868258357048,-0.17678387463092804,0.009904810227453709
1759485878806089500,12.06408935546875,-0.07615270465612411,-0.05410457029938698,0.003234923118725419
1759485878816147200,12.074147216796876,-0.11871572583913803,0.09116373211145401,-0.012492595240473747
1759485878826204400,12.084204345703125,-0.14926831424236298,0.2323669195175171,-0.031979210674762726
1759485878836261400,12.094261474609375,-0.15920114517211914,0.3130904734134674,-0.042670488357543945
1759485878846318300,12.104318359375,-0.14287437498569489,0.29758742451667786,-0.0342615582048893
1759485878856375300,12.114375244140625,-0.10979597270488739,0.2074543535709381,-0.009486924856901169
1759485878866432300,12.124432373046876,-0.0732821673154831,0.10406084358692169,0.013637302443385124
1759485878876489500,12.134489501953125,-0.06169140711426735,0.03575911745429039,0.019900429993867874
1759485878886546400,12.14454638671875,-0.05170775204896927,0.035973500460386276,0.0021424712613224983
1759485878896604400,12.1546044921875,-0.05200598016381264,0.09254863113164902,-0.032916825264692307
1759485878906661400,12.164661376953125,-0.05371014028787613,0.1309998780488968,-0.06617385149002075
1759485878916718300,12.17471826171875,-0.05630551651120186,0.09432443976402283,-0.07055722177028656
1759485878926775300,12.184775390625,-0.04347626864910126,0.006233994849026203,-0.061634838581085205
1759485878936832300,12.194832275390626,-0.03406941145658493,-0.08204615861177444,-0.04851578548550606
1759485878946889500,12.204889404296875,-0.03039718046784401,-0.1271374672651291,-0.04117904230952263
1759485878956946400,12.214946533203126,-0.03527870029211044,-0.10500020533800125,-0.03556334972381592
1759485878967004400,12.22500439453125,-0.026633281260728836,-0.01182684674859047,-0.03340645506978035
1759485878977061400,12.235061279296875,-0.017158476635813713,0.14176492393016815,-0.030961647629737854
1759485878987118300,12.245118408203124,-0.01713930070400238,0.30735495686531067,-0.0194418802857399
1759485878997175300,12.25517529296875,-0.03849007934331894,0.38134756684303284,0.00871698185801506
1759485879007232300,12.265232177734376,-0.06277251243591309,0.30787068605422974,0.05462002381682396
1759485879017289500,12.27528955078125,-0.05260545760393143,0.1716838777065277,0.08585071563720703
1759485879027346400,12.285346435546876,-0.0343974269926548,0.05920075625181198,0.07977444678544998
1759485879037404400,12.295404296875,-0.0263869296759367,0.0011953101493418217,0.038997262716293335
1759485879047461400,12.30546142578125,-0.021840913221240044,-0.027314094826579094,-0.008950287476181984
1759485879057518300,12.315518310546874,-0.0068329982459545135,-0.055215608328580856,-0.04372981935739517
1759485879067575300,12.3255751953125,0.008327845484018326,-0.08905933052301407,-0.05822407081723213
1759485879077632300,12.33563232421875,0.003895023837685585,-0.11373208463191986,-0.05582553893327713
1759485879087689500,12.345689453125,0.001156761310994625,-0.1137070506811142,-0.050062455236911774
1759485879097746400,12.355746337890626,0.004703420680016279,-0.09984881430864334,-0.03490778058767319
1759485879107803400,12.365803466796875,0.010090462863445282,-0.07870996743440628,-0.016732506453990936
1759485879117860400,12.3758603515625,0.010512152686715126,-0.06168089807033539,0.008390720002353191
1759485879127918300,12.38591845703125,0.008318772539496422,-0.05092385783791542,0.031314410269260406
1759485879137975300,12.395975341796875,0.0077979243360459805,-0.03757971152663231,0.051033228635787964
1759485879148032300,12.4060322265625,-0.0058664889074862,-0.04434414207935333,0.05974283069372177
1759485879158089500,12.41608935546875,-0.028463752940297127,-0.02612575888633728,0.07302305102348328
1759485879168146400,12.426146484375,-0.03211654722690582,0.11780611425638199,0.11328818649053574
1759485879178203400,12.436203369140625,-0.010537615045905113,0.30222848057746887,0.15481090545654297
1759485879188260400,12.44626025390625,-0.004952433053404093,0.40036436915397644,0.15973535180091858
1759485879198317300,12.4563173828125,-0.027453219518065453,0.39620980620384216,0.14087000489234924
1759485879208375300,12.466375244140625,-0.044430602341890335,0.408782035112381,0.1569957137107849
1759485879218432300,12.476432373046874,-0.04230480641126633,0.5064871311187744,0.2309916466474533
1759485879228488700,12.48648876953125,-0.026456866413354874,0.46602654457092285,0.23172640800476074
1759485879238545700,12.496545654296876,-0.007765672169625759,0.11910518258810043,0.06465964019298553
1759485879248603000,12.506602783203125,-0.0059768264181911945,-0.31860610842704773,-0.20257657766342163
1759485879258659800,12.516659912109375,0.022700093686580658,-0.5056847929954529,-0.39821621775627136
1759485879268716800,12.526716796875,0.03504171222448349,-0.5149675011634827,-0.4743109941482544
