time,seconds_elapsed,z,y,x
1759162714215459800,0.0424599609375,-0.011545151472091675,0.03324499726295471,0.11016648262739182
1759162714225516800,0.052516845703125,-0.011277936398983002,0.09357213973999023,0.1157497763633728
1759162714235573800,0.06257373046875,-0.01488572172820568,0.12179499119520187,0.11114303767681122
1759162714245629700,0.072629638671875,-0.019410360604524612,0.11593906581401825,0.09950488060712814
1759162714255686700,0.082686767578125,-0.01765160821378231,0.09300525486469269,0.08144332468509674
1759162714265743600,0.09274365234375,-0.016517359763383865,0.07271367311477661,0.05863738805055618
1759162714275800800,0.10280078125,-0.012710902839899063,0.055469170212745667,0.03562501072883606
1759162714285856800,0.112856689453125,-0.015299098566174507,0.03345651924610138,0.0157955102622509
1759162714295913700,0.122913818359375,-0.019363347440958023,-0.0030857801903039217,0.0029665310867130756
1759162714305971000,0.132970947265625,-0.028756292536854744,-0.05002623423933983,-0.0016047116369009018
1759162714316028000,0.14302783203125,-0.037257637828588486,-0.10214349627494812,0.0028856443241238594
1759162714326084900,0.1530849609375,-0.043247781693935394,-0.1352512240409851,0.006138138007372618
1759162714336140800,0.163140869140625,-0.03779469430446625,-0.13820333778858185,0.006797004025429487
1759162714346197800,0.17319775390625,-0.03480315953493118,-0.12035873532295227,0.013231508433818817
1759162714356254700,0.183254638671875,-0.039146773517131805,-0.09967289865016937,0.01535884104669094
1759162714366311700,0.193311767578125,-0.045970529317855835,-0.08553580939769745,0.02010144665837288
1759162714376367900,0.203367919921875,-0.052355460822582245,-0.07694418728351593,0.02529194951057434
1759162714386424800,0.2134248046875,-0.05383715778589249,-0.06454341858625412,0.020946282893419266
1759162714396481800,0.223481689453125,-0.052561771124601364,-0.05016954243183136,0.014021797105669975
1759162714406538800,0.233538818359375,-0.05562269315123558,-0.035718079656362534,0.0036198128946125507
1759162714416595700,0.243595703125,-0.06674086302518845,-0.028459634631872177,-0.009288262575864792
1759162714426651600,0.253651611328125,-0.08618684113025665,-0.026302123442292213,-0.01860782504081726
1759162714436708600,0.26370849609375,-0.107082799077034,-0.0269431471824646,-0.02925700694322586
1759162714446765800,0.273765869140625,-0.12520599365234375,-0.02888750657439232,-0.04363330081105232
1759162714456822800,0.28382275390625,-0.14421749114990234,-0.01644575037062168,-0.06593940407037735
1759162714466879000,0.29387890625,-0.1728992611169815,0.021659843623638153,-0.08409567922353745
1759162714476936000,0.30393603515625,-0.21551276743412018,0.08646627515554428,-0.0995502695441246
1759162714486993000,0.313992919921875,-0.24906057119369507,0.14929009974002838,-0.11099519580602646
1759162714497049900,0.3240498046875,-0.25844234228134155,0.20019935071468353,-0.12709294259548187
1759162714507106800,0.33410693359375,-0.25291746854782104,0.2278914749622345,-0.1439695507287979
1759162714517162800,0.344162841796875,-0.22936472296714783,0.2262512445449829,-0.15305839478969574
1759162714527219700,0.3542197265625,-0.2171311229467392,0.20366083085536957,-0.1555604338645935
1759162714537276700,0.364276611328125,-0.1854030191898346,0.15945768356323242,-0.1599208265542984
1759162714547333600,0.374333740234375,-0.13770446181297302,0.11384625732898712,-0.1649644672870636
1759162714557390600,0.384390625,-0.10739476978778839,0.06622520834207535,-0.16900713741779327
1759162714567446800,0.39444677734375,-0.08351361751556396,0.010596507228910923,-0.16660664975643158
1759162714577503700,0.404503662109375,-0.058708399534225464,-0.02518998458981514,-0.14566408097743988
1759162714587561000,0.41456103515625,-0.020502528175711632,-0.046425580978393555,-0.10863607376813889
1759162714597618000,0.424617919921875,0.02493819035589695,-0.08477243781089783,-0.05224230885505676
1759162714607675000,0.4346748046875,0.06297969818115234,-0.09966112673282623,0.02181343547999859
1759162714617730800,0.444730712890625,0.12003019452095032,-0.12884777784347534,0.11396626383066177
1759162714627787800,0.454787841796875,0.18847918510437012,-0.13841977715492249,0.2173912674188614
1759162714637844700,0.4648447265625,0.2010919153690338,-0.12183947116136551,0.3132341504096985
1759162714647901700,0.474901611328125,0.21665550768375397,-0.1377101093530655,0.3741908073425293
1759162714657958700,0.484958740234375,0.29951632022857666,-0.15937678515911102,0.41542771458625793
1759162714668015600,0.495015625,0.66471266746521,-0.14495114982128143,0.378682941198349
1759162714678071800,0.50507177734375,1.6000527143478394,-0.07550017535686493,0.2863468825817108
1759162714688128800,0.515128662109375,2.496291399002075,-0.05664760619401932,0.20678740739822388
1759162714698185700,0.525185791015625,3.2678639888763428,0.2792414426803589,0.09502571821212769
1759162714708243000,0.535242919921875,3.6625843048095703,0.986549973487854,-0.1939215064048767
1759162714718300000,0.5452998046875,3.63846492767334,1.8299591541290283,-0.5949139595031738
1759162714728355800,0.55535595703125,3.2287893295288086,2.7135770320892334,-0.9855144023895264
1759162714738412800,0.565412841796875,2.4668233394622803,3.5902259349823,-1.2893824577331543
1759162714748469800,0.5754697265625,1.470729947090149,4.3812737464904785,-1.4216375350952148
1759162714758526700,0.585526611328125,0.6639723777770996,4.5723724365234375,-1.3455630540847778
1759162714768583700,0.595583740234375,0.25424325466156006,4.161437034606934,-1.0330278873443604
1759162714778640600,0.605640625,0.20461922883987427,3.0706286430358887,-0.5809255838394165
1759162714788696800,0.61569677734375,0.24890895187854767,1.7352876663208008,-0.1082870215177536
1759162714798753800,0.62575390625,0.22123204171657562,0.5823763012886047,0.24334238469600677
1759162714808810800,0.635810791015625,0.042075373232364655,-0.2464980185031891,0.43546342849731445
1759162714818867700,0.64586767578125,-0.15012548863887787,-0.7452953457832336,0.5098716020584106
1759162714828925000,0.655925048828125,-0.2555062174797058,-0.9738358855247498,0.5153994560241699
1759162714838982000,0.66598193359375,-0.30694839358329773,-0.9244520664215088,0.4906634986400604
1759162714849038800,0.676038818359375,-0.32505738735198975,-0.6977584362030029,0.45332422852516174
1759162714859094800,0.6860947265625,-0.31438982486724854,-0.3946308195590973,0.4019281566143036
1759162714869151700,0.69615185546875,-0.28014305233955383,-0.1243986114859581,0.30502378940582275
1759162714879208700,0.706208740234375,-0.19564440846443176,0.0074709998443722725,0.16940976679325104
1759162714889265700,0.716265625,-0.08951334655284882,0.06717468053102493,0.020222561433911324
1759162714899322600,0.726322509765625,-0.027005495503544807,0.13680170476436615,-0.10921399295330048
1759162714909379800,0.7363798828125,-0.0013096202164888382,0.1876680552959442,-0.16397762298583984
1759162714919435800,0.746435791015625,0.004456655588001013,0.23216629028320312,-0.1390131562948227
1759162714929492700,0.75649267578125,0.005345055367797613,0.31171494722366333,-0.06678640097379684
1759162714939549700,0.7665498046875,-0.0028867751825600863,0.3983963131904602,0.013503638096153736
1759162714949607000,0.77660693359375,-0.00495570432394743,0.43785643577575684,0.06431201845407486
1759162714959663900,0.786663818359375,-0.0007862593047320843,0.4389864206314087,0.07757163047790527
1759162714969720800,0.796720947265625,0.008636204525828362,0.411441445350647,0.05420759320259094
1759162714979777800,0.80677783203125,0.020459040999412537,0.3708343505859375,0.01161751989275217
1759162714989833700,0.816833740234375,0.031701549887657166,0.3335283696651459,-0.03321026265621185
1759162714999890700,0.826890625,0.029637333005666733,0.3018343448638916,-0.07086150348186493
1759162715009948000,0.836947998046875,0.01746480166912079,0.2793770134449005,-0.09290942549705505
1759162715020004900,0.8470048828125,0.004003854002803564,0.2619788646697998,-0.10072819888591766
1759162715030061800,0.857061767578125,-0.00985516607761383,0.23957586288452148,-0.09770438820123672
1759162715040118800,0.867118896484375,-0.023433025926351547,0.20010408759117126,-0.09028349071741104
1759162715050176000,0.877176025390625,-0.03155641257762909,0.14143557846546173,-0.072067029774189
1759162715060233000,0.88723291015625,-0.04534227028489113,0.06644867360591888,-0.04982616752386093
1759162715070289000,0.897288818359375,-0.07039648294448853,-0.01045409869402647,-0.03502361848950386
1759162715080345900,0.907345947265625,-0.0992603525519371,-0.07932504266500473,-0.029221389442682266
1759162715090402800,0.91740283203125,-0.11412162333726883,-0.15469661355018616,-0.02464538812637329
1759162715100459800,0.927459716796875,-0.1286478340625763,-0.1803838610649109,-0.029223095625638962
1759162715110516700,0.937516845703125,-0.13880521059036255,-0.18513153493404388,-0.02351617068052292
1759162715120573700,0.94757373046875,-0.1329566389322281,-0.16096308827400208,-0.022833602502942085
1759162715130631000,0.957630859375,-0.12828071415424347,-0.10742247849702835,-0.0237974114716053
1759162715140688000,0.96768798828125,-0.1308770328760147,-0.08761628717184067,-0.02216755598783493
1759162715150744000,0.977744140625,-0.13132812082767487,-0.11577822268009186,-0.015629639849066734
1759162715160801000,0.987801025390625,-0.13800892233848572,-0.16592741012573242,-0.013450641185045242
1759162715170858000,0.99785791015625,-0.1375989317893982,-0.21089477837085724,-0.015171181410551071
1759162715180915000,1.0079150390625,-0.131989523768425,-0.23465897142887115,-0.022612852975726128
1759162715190972000,1.017971923828125,-0.1260148286819458,-0.24492697417736053,-0.03583578020334244
1759162715201028900,1.02802880859375,-0.11712200939655304,-0.2585429251194,-0.046417053788900375
1759162715211085800,1.0380859375,-0.10392124205827713,-0.25852277874946594,-0.05573912709951401
1759162715221142800,1.048142822265625,-0.08636142313480377,-0.22602766752243042,-0.058008141815662384
1759162715231200000,1.058199951171875,-0.06874106824398041,-0.16729426383972168,-0.047932110726833344
1759162715241257000,1.068257080078125,-0.05008801817893982,-0.10972524434328079,-0.025316277518868446
1759162715251313000,1.07831298828125,-0.027481067925691605,-0.0714164525270462,-0.0005411747843027115
1759162715261369900,1.088369873046875,-0.003432990750297904,-0.050233129411935806,0.02095106616616249
1759162715271426800,1.0984267578125,0.018963783979415894,-0.056310661137104034,0.03408164530992508
1759162715281483800,1.10848388671875,0.022869575768709183,-0.06737928837537766,0.046144433319568634
1759162715291540700,1.118540771484375,0.031567543745040894,-0.09219882637262344,0.05938297137618065
1759162715301598000,1.128597900390625,0.03709360584616661,-0.1273972988128662,0.06901562213897705
1759162715311655000,1.138655029296875,0.03502757102251053,-0.16772489249706268,0.07846569269895554
1759162715321711900,1.1487119140625,0.02985997311770916,-0.21241886913776398,0.08982913196086884
1759162715331769000,1.15876904296875,0.02351800911128521,-0.23960116505622864,0.10516108572483063
1759162715341826000,1.168825927734375,0.014939965680241585,-0.26038339734077454,0.11859726905822754
1759162715351883000,1.178883056640625,0.0010459497570991516,-0.24615345895290375,0.133612260222435
1759162715361940000,1.18893994140625,-0.0032348153181374073,-0.19974307715892792,0.14538343250751495
1759162715371996000,1.198995849609375,0.0032421210780739784,-0.14925488829612732,0.16078831255435944
1759162715382052900,1.209052978515625,0.01206544041633606,-0.10079599916934967,0.1761201173067093
1759162715392109800,1.21910986328125,0.02067640610039234,-0.053824134171009064,0.18546031415462494
1759162715402166800,1.229166748046875,0.032430004328489304,-0.021854218095541,0.184709832072258
1759162715412223700,1.2392236328125,0.044060323387384415,0.0005531135248020291,0.17638354003429413
1759162715422280700,1.24928076171875,0.054509237408638,0.02779299020767212,0.16172923147678375
1759162715432337700,1.259337646484375,0.06133021041750908,0.05391190946102142,0.1480022519826889
1759162715442395000,1.269394775390625,0.06746533513069153,0.09593819081783295,0.13543665409088135
1759162715452451800,1.279451904296875,0.06715276837348938,0.14908367395401,0.1254974901676178
1759162715462508800,1.2895087890625,0.061295412480831146,0.19542427361011505,0.11813517659902573
1759162715472566000,1.29956591796875,0.058242060244083405,0.21839550137519836,0.10875634104013443
1759162715482623000,1.309623046875,0.048009127378463745,0.22427602112293243,0.09687970578670502
1759162715492680000,1.319679931640625,0.04280412942171097,0.20845909416675568,0.08007925748825073
1759162715502737000,1.32973681640625,0.04082327336072922,0.17699570953845978,0.0655682235956192
1759162715512792800,1.339792724609375,0.04352477192878723,0.14597289264202118,0.05246987193822861
1759162715522849800,1.349849853515625,0.04946894571185112,0.12105715274810791,0.05501026287674904
1759162715532906800,1.35990673828125,0.0538037046790123,0.11495392769575119,0.07596195489168167
1759162715542964000,1.3699638671875,0.06423743814229965,0.1115512102842331,0.11029276251792908
1759162715553021000,1.38002099609375,0.09048987179994583,0.07377475500106812,0.1341158002614975
1759162715563078000,1.390077880859375,0.12287789583206177,0.07092197984457016,0.1499355137348175
1759162715573134800,1.400134765625,0.15965765714645386,0.12694843113422394,0.17085276544094086
1759162715583191800,1.41019189453125,0.22211703658103943,0.13351738452911377,0.20060986280441284
1759162715593248800,1.420248779296875,0.30957725644111633,0.1595209240913391,0.23787784576416016
1759162715603305700,1.4303056640625,0.41722437739372253,0.28094324469566345,0.3011004626750946
1759162715613362700,1.44036279296875,0.5470274686813354,0.48877108097076416,0.3937464952468872
1759162715623419600,1.450419677734375,0.6851645708084106,0.7704001069068909,0.5043803453445435
1759162715633476900,1.460476806640625,0.820949137210846,1.0080463886260986,0.6243411302566528
1759162715643533800,1.470533935546875,0.9212989211082458,1.118435263633728,0.7401540279388428
1759162715653591000,1.480591064453125,0.956214189529419,1.1490569114685059,0.8749741315841675
1759162715663648000,1.49064794921875,0.9473469257354736,1.0945478677749634,1.005315899848938
1759162715673705000,1.500705078125,0.904512345790863,1.0320264101028442,1.1611210107803345
1759162715683762000,1.510761962890625,0.8584846258163452,0.8932362198829651,1.3223633766174316
1759162715693819000,1.52081884765625,0.8349255919456482,0.5992287993431091,1.4694139957427979
1759162715703875800,1.530875732421875,0.8106170892715454,0.25622326135635376,1.5948187112808228
1759162715713933000,1.54093310546875,0.7990374565124512,0.023563319817185402,1.6657123565673828
1759162715723990000,1.550989990234375,0.8284555673599243,-0.03319743275642395,1.6960763931274414
1759162715734047000,1.561046875,0.8577277660369873,-0.13685838878154755,1.71311616897583
1759162715744104000,1.57110400390625,0.8796796798706055,-0.20787370204925537,1.7139809131622314
1759162715754161000,1.581160888671875,0.8888188004493713,-0.16778111457824707,1.6806284189224243
1759162715764217900,1.5912177734375,0.9632070064544678,-0.019898176193237305,1.6042015552520752
1759162715774273800,1.601273681640625,1.1093883514404297,0.26752105355262756,1.497453212738037
1759162715784330800,1.611330810546875,1.261861801147461,0.4754899740219116,1.3995710611343384
1759162715794387700,1.6213876953125,1.3792533874511719,0.5963456630706787,1.3483139276504517
1759162715804444700,1.631444580078125,1.4230951070785522,0.6149518489837646,1.3582086563110352
1759162715814502000,1.641501953125,1.3885332345962524,0.46681851148605347,1.454219937324524
1759162715824558800,1.651558837890625,1.3295258283615112,0.19020342826843262,1.6175966262817383
1759162715834616000,1.661615966796875,1.2952234745025635,-0.08651977777481079,1.7646929025650024
1759162715844673000,1.671673095703125,1.282684564590454,-0.3007412850856781,1.8321665525436401
1759162715854730000,1.68172998046875,1.260970950126648,-0.5087922811508179,1.874586820602417
1759162715864787000,1.691786865234375,1.3502217531204224,-0.45893287658691406,1.8057491779327393
1759162715874844000,1.701843994140625,1.3944329023361206,-0.46420416235923767,1.7370370626449585
1759162715884900900,1.71190087890625,1.39910089969635,-0.6051709055900574,1.7485110759735107
1759162715894957800,1.721957763671875,1.3033983707427979,-0.8547257781028748,1.8240798711776733
1759162715905015000,1.73201513671875,1.1494401693344116,-1.0057238340377808,1.8630656003952026
1759162715915072000,1.742072021484375,1.163378119468689,-0.8052472472190857,1.7937490940093994
1759162715925129000,1.75212890625,1.056008219718933,-0.9259222745895386,1.7766236066818237
1759162715935186000,1.76218603515625,0.8524042367935181,-1.0951991081237793,1.788780927658081
1759162715945243000,1.772242919921875,0.7285009026527405,-1.0852857828140259,1.747668981552124
1759162715955299800,1.7822998046875,0.6188697814941406,-1.026925802230835,1.6621129512786865
1759162715965356800,1.792356689453125,0.5520156621932983,-0.9465600848197937,1.5741183757781982
1759162715975413800,1.802413818359375,0.42030149698257446,-1.0046273469924927,1.5106755495071411
1759162715985470700,1.812470703125,0.3387565612792969,-0.9830294251441956,1.3983039855957031
1759162715995528000,1.82252783203125,0.2730347216129303,-0.9437417387962341,1.2750937938690186
1759162716005585000,1.8325849609375,0.23381514847278595,-0.8466772437095642,1.1377931833267212
1759162716015643000,1.842642822265625,0.23073738813400269,-0.7222124338150024,0.9994180202484131
1759162716025699800,1.852699951171875,0.23358884453773499,-0.5558873414993286,0.8480939865112305
1759162716035756800,1.8627568359375,0.23716670274734497,-0.45343586802482605,0.6950183510780334
1759162716045813800,1.872813720703125,0.2598206102848053,-0.29997095465660095,0.5124432444572449
1759162716055870700,1.88287060546875,0.29001522064208984,-0.2137753814458847,0.3602442443370819
1759162716065928000,1.892927978515625,0.25698322057724,-0.2006308138370514,0.24401752650737762
1759162716075985000,1.90298486328125,0.2680583596229553,-0.10335159301757812,0.12460161745548248
1759162716086041900,1.913041748046875,0.2721599042415619,0.045660264790058136,-0.016407694667577744
1759162716096098800,1.923098876953125,0.32366999983787537,0.2612984776496887,-0.19241005182266235
1759162716106156000,1.933156005859375,0.3062950074672699,0.27511680126190186,-0.2937057912349701
1759162716116213000,1.943212890625,0.2975238561630249,0.3067754805088043,-0.3958335816860199
1759162716126270000,1.95327001953125,0.3065716624259949,0.29403573274612427,-0.4605044424533844
1759162716136327000,1.963326904296875,0.3337728679180145,0.2712287902832031,-0.43644753098487854
1759162716146384100,1.973384033203125,0.37159642577171326,0.20601731538772583,-0.35381361842155457
1759162716156441000,1.983441162109375,0.3802567422389984,0.13698561489582062,-0.3532249927520752
1759162716166498000,1.993498046875,0.30801743268966675,-0.0633179247379303,-0.4091116786003113
1759162716176555000,2.003554931640625,0.18319304287433624,-0.25343799591064453,-0.45613348484039307
1759162716186612000,2.013612060546875,0.08156335353851318,-0.3688617944717407,-0.4720296263694763
1759162716196669200,2.023669189453125,0.022043172270059586,-0.4234936237335205,-0.5157292485237122
1759162716206726100,2.03372607421875,0.013070451095700264,-0.42706093192100525,-0.624150276184082
1759162716216783000,2.043783203125,0.02470346912741661,-0.3899652659893036,-0.6904113292694092
1759162716226840000,2.053840087890625,-0.008945038542151451,-0.3687015175819397,-0.6015080809593201
1759162716236897000,2.06389697265625,-0.09277534484863281,-0.39749184250831604,-0.5505179762840271
1759162716246954000,2.0739541015625,-0.13125109672546387,-0.5056886076927185,-0.6476397514343262
1759162716257011000,2.084010986328125,-0.2464011013507843,-0.36004868149757385,-0.8287178874015808
1759162716267068000,2.09406787109375,-0.254751980304718,-0.24196013808250427,-0.9226710200309753
1759162716277124900,2.104124755859375,-0.26697838306427,-0.08186951279640198,-1.092860221862793
1759162716287182000,2.11418212890625,-0.3410952389240265,0.04008940979838371,-1.2786937952041626
1759162716297239000,2.124239013671875,-0.44182831048965454,0.09444074332714081,-1.4179776906967163
1759162716307297000,2.134297119140625,-0.5117978453636169,0.1259848177433014,-1.5719741582870483
1759162716317354000,2.14435400390625,-0.5675405263900757,0.27649351954460144,-1.7227277755737305
1759162716327411000,2.154410888671875,-0.6276562809944153,0.4674009084701538,-1.8669099807739258
1759162716337468000,2.164468017578125,-0.7193418741226196,0.603706419467926,-1.9622617959976196
1759162716347524900,2.17452490234375,-0.8413423299789429,0.7044934630393982,-2.0286900997161865
1759162716357582000,2.18458203125,-0.9953127503395081,0.8516266942024231,-2.096801996231079
1759162716367639000,2.19463916015625,-1.099187970161438,0.9905001521110535,-2.107233762741089
1759162716377696000,2.204696044921875,-1.1359226703643799,1.1168882846832275,-2.0662872791290283
1759162716387753000,2.2147529296875,-1.1291112899780273,1.167267084121704,-2.004288673400879
1759162716397810000,2.224809814453125,-1.0670675039291382,1.140156626701355,-1.9106802940368652
1759162716407867000,2.234866943359375,-0.9646514654159546,1.0748116970062256,-1.8196794986724854
1759162716417923800,2.244923828125,-0.8340376615524292,1.023168683052063,-1.776802897453308
1759162716427980800,2.254980712890625,-0.7533340454101562,1.0323117971420288,-1.798336386680603
1759162716438038000,2.2650380859375,-0.6942948698997498,1.0784733295440674,-1.8439873456954956
1759162716448095000,2.275094970703125,-0.6683154702186584,1.119529366493225,-1.894400715827942
1759162716458153000,2.285153076171875,-0.6977577209472656,1.1536520719528198,-1.9490282535552979
1759162716468210000,2.2952099609375,-0.7875416874885559,1.1522001028060913,-1.989052176475525
1759162716478267000,2.305266845703125,-0.8704794049263,1.1163787841796875,-1.9872030019760132
1759162716488323800,2.31532373046875,-0.9119471907615662,1.0243202447891235,-1.9507075548171997
1759162716498380800,2.325380859375,-0.8860885500907898,0.8807358145713806,-1.8696409463882446
1759162716508438000,2.33543798828125,-0.81559818983078,0.7026553153991699,-1.743935465812683
1759162716518495000,2.345494873046875,-0.7431023120880127,0.4347967803478241,-1.5893449783325195
1759162716528552000,2.355552001953125,-0.6618255972862244,0.09661421924829483,-1.3926262855529785
1759162716538609200,2.365609130859375,-0.6198596358299255,-0.2559804916381836,-1.1744611263275146
1759162716548666000,2.375666015625,-0.6037155389785767,-0.6153455972671509,-0.9629662036895752
1759162716558723000,2.38572314453125,-0.6114069223403931,-0.9110730886459351,-0.7877753376960754
1759162716568780000,2.395780029296875,-0.6327481865882874,-1.1793771982192993,-0.6549467444419861
1759162716578838000,2.405838134765625,-0.6443607807159424,-1.3900933265686035,-0.6042923331260681
1759162716588895000,2.41589501953125,-0.5863861441612244,-1.4657436609268188,-0.6222654581069946
1759162716598952000,2.425951904296875,-0.502791702747345,-1.4360778331756592,-0.6796847581863403
1759162716609009200,2.436009033203125,-0.41149669885635376,-1.3306553363800049,-0.7740421295166016
1759162716619066000,2.446066162109375,-0.3122718036174774,-1.154369831085205,-0.88334721326828
1759162716629123000,2.456123046875,-0.2610706686973572,-0.894497275352478,-0.9656814932823181
1759162716639180000,2.466179931640625,-0.2682834267616272,-0.5735863447189331,-1.0275400876998901
1759162716649237000,2.476237060546875,-0.3125869631767273,-0.2545233964920044,-1.048173427581787
1759162716659294000,2.4862939453125,-0.3942803740501404,-0.07099379599094391,-1.035353660583496
1759162716669351200,2.49635107421875,-0.4434322118759155,-0.08108504861593246,-1.0151971578598022
1759162716679409200,2.5064091796875,-0.45029422640800476,-0.12989944219589233,-0.9854563474655151
1759162716689466000,2.516466064453125,-0.4449828267097473,-0.23205910623073578,-0.9364304542541504
1759162716699523000,2.526523193359375,-0.4314173460006714,-0.24377836287021637,-0.8958426117897034
1759162716709580000,2.536580078125,-0.2915284335613251,-0.16644923388957977,-0.8984679579734802
1759162716719637000,2.546636962890625,0.05015111342072487,-0.035861480981111526,-1.0591294765472412
1759162716729694000,2.55669384765625,0.37450602650642395,0.23718230426311493,-1.2958959341049194
1759162716739751200,2.566751220703125,0.48179230093955994,0.6272644400596619,-1.4288243055343628
1759162716749808000,2.57680810546875,0.37238937616348267,0.9190760850906372,-1.3528395891189575
1759162716759865000,2.586864990234375,0.18193389475345612,0.9211924076080322,-1.0873255729675293
1759162716769922000,2.596922119140625,-0.005701242946088314,0.80037921667099,-0.8184024095535278
1759162716779980000,2.60697998046875,-0.10085087269544601,0.6652339100837708,-0.6529366374015808
1759162716790037000,2.617037109375,-0.07772557437419891,0.4571385085582733,-0.6050564646720886
1759162716800094000,2.627093994140625,-0.02212337963283062,0.22779661417007446,-0.5818808078765869
1759162716810151200,2.637151123046875,-0.010121045634150505,0.1764519363641739,-0.5495277047157288
1759162716820208000,2.6472080078125,0.004580946173518896,0.21210163831710815,-0.4741620123386383
1759162716830265000,2.65726513671875,0.03412898629903793,0.23726904392242432,-0.3938511908054352
1759162716840322000,2.667322021484375,0.03894771635532379,0.23410139977931976,-0.32233619689941406
1759162716850379000,2.67737890625,0.021817466244101524,0.24266479909420013,-0.24962125718593597
1759162716860436000,2.68743603515625,-0.0007025660015642643,0.2704325020313263,-0.14829225838184357
1759162716870494000,2.697493896484375,0.025417452678084373,0.294025182723999,-0.06672310084104538
1759162716880551200,2.70755126953125,0.07715193182229996,0.3111196458339691,-0.04965990036725998
1759162716890608000,2.717608154296875,0.0854191780090332,0.30961841344833374,-0.0922936499118805
1759162716900665000,2.7276650390625,0.042161401361227036,0.23769448697566986,-0.14184391498565674
1759162716910722000,2.73772216796875,-0.05644506588578224,0.1542685627937317,-0.18903139233589172
1759162716920779000,2.747779052734375,-0.1428917497396469,0.10864841938018799,-0.19302769005298615
1759162716930836000,2.7578359375,-0.19208139181137085,0.12297995388507843,-0.13106419146060944
1759162716940893000,2.767892822265625,-0.19775210320949554,0.22057154774665833,-0.01554000936448574
1759162716950951200,2.777951171875,-0.16622480750083923,0.3418380618095398,0.10276453197002411
1759162716961008000,2.788008056640625,-0.12389948219060898,0.3934206962585449,0.18400105834007263
1759162716971065000,2.798065185546875,-0.12192688137292862,0.3824410140514374,0.18446284532546997
1759162716981122000,2.8081220703125,-0.1651260256767273,0.3269922733306885,0.09324625134468079
1759162716991179000,2.818178955078125,-0.2438402771949768,0.2428765892982483,-0.043542224913835526
1759162717001236000,2.828236083984375,-0.3488811254501343,0.16878199577331543,-0.1952211856842041
1759162717011293000,2.83829296875,-0.4784678816795349,0.1278577446937561,-0.34922993183135986
1759162717021351200,2.84835107421875,-0.6144428253173828,0.1186145544052124,-0.4732126295566559
1759162717031408000,2.858408203125,-0.7045232057571411,0.13503746688365936,-0.5789475440979004
1759162717041465000,2.868465087890625,-0.6791862845420837,0.12777335941791534,-0.6961498260498047
1759162717051522000,2.87852197265625,-0.5490218997001648,0.10861005634069443,-0.8242641091346741
1759162717061579000,2.8885791015625,-0.4165772497653961,0.0853310227394104,-0.8977362513542175
1759162717071636000,2.898635986328125,-0.41845107078552246,0.06116284057497978,-0.8906629085540771
1759162717081693000,2.90869287109375,-0.5469313263893127,0.049885641783475876,-0.8329156041145325
1759162717091751200,2.918751220703125,-0.6924623847007751,0.058847978711128235,-0.7548554539680481
1759162717101808000,2.92880810546875,-0.8219978213310242,0.09170282632112503,-0.6864697933197021
1759162717111865000,2.938864990234375,-0.9016202092170715,0.057830341160297394,-0.621033787727356
1759162717121922000,2.948922119140625,-0.9873389005661011,0.03151220455765724,-0.5591197609901428
1759162717131979000,2.95897900390625,-1.1008198261260986,0.058792028576135635,-0.4728935658931732
1759162717142036000,2.969035888671875,-1.147741675376892,0.1228460818529129,-0.33983585238456726
1759162717152093000,2.979093017578125,-1.0806905031204224,0.269677072763443,-0.1576615273952484
1759162717162151200,2.989151123046875,-0.932144045829773,0.4635707139968872,0.06311902403831482
1759162717172208000,2.9992080078125,-0.7141541242599487,0.5792717337608337,0.32033270597457886
1759162717182265000,3.00926513671875,-0.5578917860984802,0.6520297527313232,0.5519799590110779
1759162717192322000,3.019322021484375,-0.37999477982521057,0.6755052804946899,0.7764814496040344
1759162717202379000,3.02937890625,-0.252864807844162,0.7251167297363281,0.9665555357933044
1759162717212436000,3.03943603515625,-0.1346398890018463,0.7737918496131897,1.1556713581085205
1759162717222493000,3.049492919921875,0.02032380923628807,0.7375872135162354,1.3986109495162964
1759162717232551200,3.05955126953125,0.1769150197505951,0.6476826071739197,1.6704014539718628
1759162717242608000,3.069608154296875,0.3141968548297882,0.5552775859832764,1.9406626224517822
1759162717252665000,3.0796650390625,0.4448525905609131,0.45443591475486755,2.1769983768463135
1759162717262722000,3.08972216796875,0.5485506057739258,0.42670345306396484,2.315572500228882
1759162717272779000,3.099779052734375,0.6032434105873108,0.4941336214542389,2.3341546058654785
1759162717282836000,3.1098359375,0.6559392213821411,0.6490961313247681,2.267165422439575
1759162717292894000,3.11989404296875,0.7833006381988525,0.7827261090278625,2.19205904006958
1759162717302951200,3.129951171875,0.9067090153694153,0.894490659236908,2.132478713989258
1759162717313008000,3.140008056640625,0.973763108253479,1.0394867658615112,2.0905308723449707
1759162717323065000,3.150065185546875,0.9692240357398987,1.2474486827850342,2.0683484077453613
1759162717333122000,3.1601220703125,0.9168772101402283,1.5213196277618408,2.0335495471954346
1759162717343179000,3.170178955078125,0.7734315991401672,1.75696861743927,1.9299124479293823
1759162717353237000,3.180237060546875,0.6199272871017456,2.014394760131836,1.8516035079956055
1759162717363294000,3.1902939453125,0.4962277412414551,2.348519802093506,1.8991717100143433
1759162717373351200,3.20035107421875,0.3584458827972412,2.7024648189544678,2.010122060775757
1759162717383408000,3.210408203125,0.327067494392395,2.677750825881958,2.0970687866210938
1759162717393465000,3.220465087890625,0.44983869791030884,2.085226058959961,1.990786075592041
1759162717403522000,3.23052197265625,0.6607435941696167,0.9546361565589905,1.703895092010498
1759162717413580000,3.240580078125,1.0338889360427856,0.24159687757492065,1.3653700351715088
1759162717423637000,3.250636962890625,1.4930636882781982,0.2545207738876343,1.062549114227295
1759162717433694000,3.26069384765625,1.9098968505859375,0.9030724167823792,0.8604184985160828
1759162717443751200,3.270751220703125,2.296194314956665,1.6716855764389038,0.8027151823043823
1759162717453808000,3.28080810546875,2.5969667434692383,2.102494716644287,0.8285472989082336
1759162717463865000,3.290864990234375,2.819242477416992,1.8990345001220703,0.9509446024894714
1759162717473923000,3.300923095703125,2.857924222946167,1.2631819248199463,1.1453205347061157
1759162717483980000,3.31097998046875,2.7196919918060303,0.4891267716884613,1.321318507194519
1759162717494037000,3.321037109375,2.5296878814697266,-0.15489216148853302,1.3960223197937012
1759162717504094000,3.331093994140625,2.336045503616333,-0.515997588634491,1.41707181930542
1759162717514151200,3.341151123046875,2.1015243530273438,-0.734754204750061,1.4523651599884033
1759162717524209000,3.351208984375,1.9958919286727905,-0.9421084523200989,1.5281352996826172
1759162717534266000,3.36126611328125,1.962626338005066,-1.0950562953948975,1.5955744981765747
1759162717544323000,3.371322998046875,1.9183284044265747,-1.408977746963501,1.7088068723678589
1759162717554380000,3.381380126953125,1.8198763132095337,-1.7279621362686157,1.827805995941162
1759162717564437000,3.39143701171875,1.686521053314209,-1.8211688995361328,1.9405180215835571
1759162717574494000,3.401493896484375,1.5938884019851685,-1.6974084377288818,1.9335144758224487
1759162717584552000,3.411552001953125,1.4731019735336304,-1.7356301546096802,1.8685600757598877
1759162717594609000,3.42160888671875,1.291933536529541,-1.950677514076233,1.8436864614486694
1759162717604666000,3.431666015625,1.1600788831710815,-1.9691004753112793,1.7639634609222412
1759162717614723000,3.44172314453125,1.0077944993972778,-1.9079968929290771,1.6590615510940552
1759162717624780000,3.451780029296875,0.9385912418365479,-1.6388376951217651,1.4795823097229004
1759162717634838000,3.461838134765625,0.7041569352149963,-1.7452046871185303,1.4165570735931396
1759162717644895000,3.47189501953125,0.5624583959579468,-1.5420125722885132,1.2251596450805664
1759162717654952000,3.481951904296875,0.5240142941474915,-1.191388487815857,0.9344828128814697
1759162717665009000,3.4920087890625,0.40414026379585266,-1.1755987405776978,0.7217246294021606
1759162717675066000,3.502066162109375,0.32959118485450745,-1.0427453517913818,0.5096731185913086
1759162717685123800,3.512123779296875,0.2804936468601227,-0.84439617395401,0.32517942786216736
1759162717695180800,3.522180908203125,0.26051196455955505,-0.5972484350204468,0.12725913524627686
1759162717705238000,3.532238037109375,0.2647072672843933,-0.3502393364906311,-0.07555653899908066
1759162717715295000,3.542294921875,0.29557621479034424,-0.10704372078180313,-0.26880696415901184
1759162717725352000,3.55235205078125,0.3238830864429474,0.09595274180173874,-0.4517075717449188
1759162717735410000,3.562409912109375,0.3314531147480011,0.2439991980791092,-0.6184560656547546
1759162717745467000,3.572466796875,0.3163963556289673,0.33109456300735474,-0.7757677435874939
1759162717755523800,3.58252392578125,0.2706022262573242,0.3592984974384308,-0.9117999076843262
1759162717765580800,3.592580810546875,0.21049536764621735,0.352280855178833,-1.008927345275879
1759162717775638000,3.602637939453125,0.13153795897960663,0.3086886405944824,-1.0462596416473389
1759162717785696000,3.612696044921875,0.036854203790426254,0.2699609696865082,-1.0136759281158447
1759162717795753000,3.6227529296875,-0.03658592700958252,0.26976096630096436,-0.8950057625770569
1759162717805810000,3.632809814453125,-0.041946057230234146,0.25206249952316284,-0.8033866286277771
1759162717815867000,3.642866943359375,-0.0003107287921011448,0.09976857155561447,-0.769926130771637
1759162717825923800,3.652923828125,0.060459960252046585,-0.13277269899845123,-0.8448589444160461
1759162717835982000,3.662982177734375,0.003453398123383522,-0.29805541038513184,-0.9825230836868286
1759162717846039000,3.6730390625,-0.21339283883571625,-0.49992650747299194,-0.8711513876914978
1759162717856096000,3.683095947265625,-0.4474385976791382,-0.2895490229129791,-0.7731854319572449
1759162717866153000,3.693153076171875,-0.575495719909668,-0.27917027473449707,-0.724232017993927
1759162717876210000,3.7032099609375,-0.570724368095398,-0.30306094884872437,-0.782658040523529
1759162717886268000,3.713267822265625,-0.6184351444244385,-0.5272934436798096,-0.8133136630058289
1759162717896325000,3.7233251953125,-0.76028972864151,-0.6862109303474426,-0.8305901288986206
1759162717906382000,3.733382080078125,-0.8054101467132568,-0.5272889733314514,-1.06379234790802
1759162717916439000,3.74343896484375,-0.8352721333503723,-0.3673917353153229,-1.4131364822387695
1759162717926496000,3.75349609375,-0.7781086564064026,-0.2055303007364273,-1.6689231395721436
1759162717936554000,3.763553955078125,-0.7365841269493103,-0.027088388800621033,-1.8259260654449463
1759162717946611000,3.77361083984375,-0.740025520324707,0.15266714990139008,-1.9728573560714722
1759162717956668000,3.78366796875,-0.8070775270462036,0.3446083664894104,-2.107607364654541
1759162717966725000,3.79372509765625,-0.9470815062522888,0.5253883004188538,-2.194312810897827
1759162717976782000,3.803781982421875,-1.091796875,0.7031625509262085,-2.252270221710205
1759162717986840000,3.813840087890625,-1.2052291631698608,0.7787657380104065,-2.2450177669525146
1759162717996897000,3.82389697265625,-1.276432991027832,0.8698242902755737,-2.2028274536132812
1759162718006954000,3.8339541015625,-1.3069549798965454,0.9018740057945251,-2.132520914077759
1759162718017011000,3.844010986328125,-1.2480370998382568,0.9037904143333435,-2.0123424530029297
1759162718027069200,3.854069091796875,-1.1650487184524536,0.9274128079414368,-1.886104702949524
1759162718037126100,3.864126220703125,-1.0958623886108398,0.8886515498161316,-1.7780519723892212
1759162718047183000,3.87418310546875,-1.044624924659729,0.8358896374702454,-1.6845998764038086
1759162718057240000,3.884239990234375,-0.9934083223342896,0.7425546646118164,-1.5766465663909912
1759162718067297000,3.894297119140625,-0.9373398423194885,0.64557284116745,-1.4943358898162842
1759162718077355000,3.90435498046875,-0.9049347639083862,0.5519193410873413,-1.415985345840454
1759162718087411700,3.91441162109375,-0.8942959308624268,0.4371151924133301,-1.344295620918274
1759162718097469000,3.924468994140625,-0.8767382502555847,0.2834167182445526,-1.2768864631652832
1759162718107526000,3.93452587890625,-0.8810366988182068,0.15446032583713531,-1.2078007459640503
1759162718117582800,3.944582763671875,-0.9191643595695496,0.03136955201625824,-1.1344006061553955
1759162718127640800,3.954640869140625,-0.9466286897659302,-0.1201617643237114,-1.0508790016174316
1759162718137697800,3.96469775390625,-0.9533683657646179,-0.3248448669910431,-0.9533562064170837
1759162718147754800,3.974754638671875,-0.9772639274597168,-0.5655641555786133,-0.8570678234100342
1759162718157811700,3.984811767578125,-1.015275001525879,-0.8349874019622803,-0.737834632396698
1759162718167869700,3.99486962890625,-1.0333120822906494,-1.0694551467895508,-0.617743730545044
1759162718177926700,4.0049267578125,-0.971179723739624,-1.2519463300704956,-0.5198081135749817
1759162718187984000,4.01498388671875,-0.8346651196479797,-1.3714520931243896,-0.46478569507598877
1759162718198040800,4.025040771484375,-0.7266853451728821,-1.4391149282455444,-0.4373495280742645
1759162718208097800,4.035097900390625,-0.6182181239128113,-1.524436116218567,-0.43725642561912537
1759162718218155800,4.04515576171875,-0.5315405130386353,-1.6447124481201172,-0.5357835292816162
1759162718228212700,4.055212646484375,-0.45027869939804077,-1.5872390270233154,-0.71639484167099
1759162718238269700,4.065269775390625,-0.2814137935638428,-1.347398042678833,-0.8966735601425171
1759162718248326700,4.07532666015625,-0.13290345668792725,-0.9529095888137817,-1.0319828987121582
1759162718258384600,4.085384521484375,-0.061484936624765396,-0.5452861785888672,-1.1522337198257446
1759162718268441600,4.095441650390625,0.01261527556926012,-0.14835034310817719,-1.2861086130142212
1759162718278498600,4.10549853515625,-0.031972434371709824,0.22075872123241425,-1.32649564743042
1759162718288555800,4.1155556640625,-0.13055458664894104,0.42252200841903687,-1.2412984371185303
1759162718298612700,4.12561279296875,-0.16412505507469177,0.426771879196167,-1.080359697341919
1759162718308670700,4.135670654296875,-0.07419157773256302,0.34699469804763794,-0.9398934841156006
1759162718318727700,4.145727783203125,0.28021231293678284,0.38710322976112366,-1.0145013332366943
1759162718328784600,4.15578466796875,0.7794226408004761,0.556454598903656,-1.2858564853668213
1759162718338841600,4.165841552734375,0.9977541565895081,0.8883454203605652,-1.5087910890579224
1759162718348899800,4.17589990234375,0.9319882392883301,1.1569466590881348,-1.4920817613601685
1759162718358956800,4.185956787109375,0.6656050086021423,1.1453064680099487,-1.1762433052062988
1759162718369013800,4.196013671875,0.33892491459846497,0.8154856562614441,-0.7368178367614746
1759162718379070700,4.20607080078125,0.06561053544282913,0.431307315826416,-0.46568936109542847
1759162718389128700,4.216128662109375,-0.08930779993534088,0.3320460021495819,-0.4579804539680481
1759162718399185700,4.226185546875,-0.14251083135604858,0.360393226146698,-0.5705770254135132
1759162718409242600,4.23624267578125,-0.0977373793721199,0.2559128403663635,-0.5871018171310425
1759162718419299800,4.2462998046875,0.009431418031454086,0.043314043432474136,-0.5521555542945862
1759162718429357800,4.25635791015625,0.07157790660858154,-0.034456320106983185,-0.46405231952667236
1759162718439414800,4.266414794921875,0.11026883870363235,0.02009453997015953,-0.35645607113838196
1759162718449471700,4.2764716796875,0.13940130174160004,0.020421992987394333,-0.21917663514614105
1759162718459528700,4.28652880859375,0.12939633429050446,0.10503994673490524,-0.10442794114351273
1759162718469585700,4.296585693359375,0.07844645529985428,0.25062400102615356,-0.0022833342663943768
1759162718479644000,4.306643798828125,0.03086802363395691,0.35394027829170227,0.015064496546983719
1759162718489700900,4.316700927734375,-0.040896981954574585,0.3625466227531433,-0.07183633744716644
1759162718499757800,4.3267578125,-0.15455324947834015,0.2969167232513428,-0.22871489822864532
1759162718509814800,4.336814697265625,-0.2921791672706604,0.19569286704063416,-0.3790089190006256
1759162718519872800,4.346872802734375,-0.38855603337287903,0.11797250062227249,-0.46658965945243835
1759162718529929700,4.3569296875,-0.4250573515892029,0.06740056723356247,-0.4587235152721405
1759162718539987000,4.366987060546875,-0.41955500841140747,0.0584384985268116,-0.3677811026573181
1759162718550044000,4.3770439453125,-0.3955328166484833,0.09214335680007935,-0.24804940819740295
1759162718560101600,4.3871015625,-0.356816828250885,0.11156898736953735,-0.1761738806962967
1759162718570158800,4.397158935546875,-0.36843419075012207,0.11663483083248138,-0.1966875195503235
1759162718580215800,4.4072158203125,-0.450141578912735,0.09403125196695328,-0.30392611026763916
1759162718590272800,4.417272705078125,-0.6010748744010925,0.03684668987989426,-0.4567340016365051
1759162718600330800,4.427330810546875,-0.7284184694290161,-0.05581134185194969,-0.6089813113212585
1759162718610387700,4.4373876953125,-0.776923418045044,-0.14178475737571716,-0.7211781740188599
1759162718620444700,4.447444580078125,-0.7771170139312744,-0.10624487698078156,-0.7584102153778076
1759162718630501600,4.457501708984375,-0.7669907808303833,0.050487760454416275,-0.7069270610809326
1759162718640559600,4.4675595703125,-0.7412167191505432,0.23593592643737793,-0.6127979159355164
1759162718650616600,4.477616455078125,-0.712482750415802,0.4505466818809509,-0.5101408958435059
1759162718660673800,4.487673828125,-0.6694018840789795,0.574869692325592,-0.39681702852249146
1759162718670730800,4.497730712890625,-0.6445861458778381,0.5202167630195618,-0.2841593325138092
1759162718680788700,4.507788818359375,-0.6312322616577148,0.3517380356788635,-0.1506606638431549
1759162718690845700,4.517845703125,-0.6411831378936768,0.25026726722717285,0.00999055989086628
1759162718700902700,4.527902587890625,-0.6532912254333496,0.29390209913253784,0.19535881280899048
1759162718710959600,4.537959716796875,-0.6399357914924622,0.43480151891708374,0.3775562644004822
1759162718721017900,4.548017822265625,-0.5767472386360168,0.5543614625930786,0.5543385148048401
1759162718731074800,4.55807470703125,-0.49505236744880676,0.5837515592575073,0.7168892621994019
1759162718741131800,4.5681318359375,-0.40307557582855225,0.5278344750404358,0.8670617341995239
1759162718751188700,4.578188720703125,-0.31572669744491577,0.45334067940711975,1.0170854330062866
1759162718761246700,4.588246826171875,-0.2168070375919342,0.4003230035305023,1.193258285522461
1759162718771303700,4.5983037109375,-0.09690951555967331,0.37117552757263184,1.4020881652832031
1759162718781361000,4.60836083984375,0.06090168654918671,0.3451029360294342,1.6293647289276123
1759162718791417900,4.61841796875,0.24169783294200897,0.31118544936180115,1.8577337265014648
1759162718801475800,4.628475830078125,0.4214710593223572,0.36973264813423157,2.038851737976074
1759162718811532800,4.63853271484375,0.5824565887451172,0.5675768852233887,2.1272664070129395
1759162718821589800,4.64858984375,0.7038688063621521,0.8673204779624939,2.1153059005737305
1759162718831646700,4.658646728515625,0.792456865310669,1.0809473991394043,1.9996838569641113
1759162718841705000,4.668705078125,0.8833436369895935,1.1185773611068726,1.851968765258789
1759162718851762000,4.678761962890625,1.020963191986084,1.0105730295181274,1.730285882949829
1759162718861819000,4.68881884765625,1.1079415082931519,0.8385392427444458,1.6679977178573608
1759162718871875800,4.698875732421875,1.1744781732559204,0.6537460088729858,1.6890966892242432
1759162718881933600,4.70893359375,1.186837077140808,0.6458401679992676,1.7186369895935059
1759162718891990800,4.71899072265625,1.1129932403564453,0.8237643241882324,1.7318557500839233
1759162718902047700,4.7290478515625,0.9751254320144653,1.157051920890808,1.7451175451278687
1759162718912105000,4.73910498046875,0.7929813265800476,1.636884093284607,1.8189748525619507
1759162718922162700,4.74916259765625,0.6394509077072144,2.0353100299835205,1.9170500040054321
1759162718932219600,4.7592197265625,0.5591977834701538,2.217909336090088,1.93140709400177
1759162718942276600,4.769276611328125,0.59407639503479,1.980879545211792,1.7688571214675903
1759162718952333600,4.77933349609375,0.753844678401947,1.3411719799041748,1.4877674579620361
1759162718962391800,4.789391845703125,0.9776506423950195,0.5813230872154236,1.122026801109314
1759162718972448800,4.79944873046875,1.2761826515197754,0.35552719235420227,0.7859695553779602
1759162718982505700,4.809505615234375,1.725820541381836,0.9155111312866211,0.5530577301979065
1759162718992562700,4.819562744140625,2.2510266304016113,1.6839184761047363,0.4194560647010803
1759162719002620700,4.82962060546875,2.6042773723602295,2.266601085662842,0.3365135192871094
1759162719012677600,4.839677734375,2.578235626220703,2.2514455318450928,0.36022311449050903
1759162719022734600,4.849734619140625,2.3594582080841064,1.6570247411727905,0.519079864025116
1759162719032791800,4.859791748046875,2.1538290977478027,0.8443503975868225,0.7385478019714355
1759162719042849800,4.869849853515625,1.9589792490005493,0.07132609933614731,0.9503242373466492
1759162719052906800,4.87990673828125,1.8289828300476074,-0.2943693697452545,1.042890191078186
1759162719062963700,4.889963623046875,1.7708662748336792,-0.4919103980064392,1.1051315069198608
1759162719073020700,4.900020751953125,1.723027229309082,-0.7000954747200012,1.160677194595337
1759162719083079000,4.910078857421875,1.6590015888214111,-0.9311513304710388,1.2168878316879272
1759162719093135400,4.92013525390625,1.6210721731185913,-1.1042543649673462,1.2400263547897339
1759162719103192300,4.9301923828125,1.613533616065979,-1.2300764322280884,1.2119446992874146
1759162719113249300,4.940249267578125,1.6768107414245605,-1.3172295093536377,1.1909193992614746
1759162719123307500,4.9503076171875,1.5935454368591309,-1.7163218259811401,1.3648555278778076
1759162719133364500,4.960364501953125,1.5197269916534424,-1.8531643152236938,1.556355357170105
1759162719143421400,4.97042138671875,1.4764697551727295,-1.6904842853546143,1.6314538717269897
1759162719153479400,4.9804794921875,1.44060480594635,-1.4960123300552368,1.6207515001296997
1759162719163536400,4.990536376953125,1.4080474376678467,-1.2688268423080444,1.483623743057251
1759162719173593300,5.00059326171875,1.2655158042907715,-1.3016693592071533,1.3645399808883667
1759162719183650300,5.010650390625,1.1265894174575806,-1.4354372024536133,1.3467284440994263
1759162719193708500,5.02070849609375,1.0281282663345337,-1.2894011735916138,1.219520092010498
1759162719203765500,5.030765625,0.950027585029602,-1.1739128828048706,1.0980721712112427
1759162719213822500,5.040822509765625,0.8674173355102539,-1.1575748920440674,1.024154543876648
1759162719223879400,5.05087939453125,0.7600173950195312,-1.1078674793243408,0.9393752813339233
1759162719233937200,5.060937255859375,0.758110523223877,-0.7860503196716309,0.7434720993041992
1759162719243994400,5.070994384765625,0.6028999090194702,-0.9335617423057556,0.7407074570655823
1759162719254051300,5.08105126953125,0.48500728607177734,-0.7829404473304749,0.6855780482292175
1759162719264108500,5.091108642578125,0.41372936964035034,-0.5616365671157837,0.5599101185798645
1759162719274166300,5.101166259765625,0.3676427900791168,-0.37721532583236694,0.4273967444896698
1759162719284223200,5.11122314453125,0.31782594323158264,-0.2504808008670807,0.27534860372543335
1759162719294280200,5.1212802734375,0.29125016927719116,-0.12176918983459473,0.1125137135386467
1759162719304337200,5.131337158203125,0.278262734413147,0.008199994452297688,-0.05018545314669609
1759162719314395400,5.1413955078125,0.2610979676246643,0.0755084902048111,-0.19335761666297913
1759162719324452400,5.151452392578125,0.23538382351398468,0.11135809868574142,-0.30992522835731506
1759162719334509300,5.16150927734375,0.19000118970870972,0.11480832099914551,-0.4016939699649811
1759162719344567300,5.1715673828125,0.1369989514350891,0.12941895425319672,-0.48653456568717957
1759162719354624300,5.181624267578125,0.09125985950231552,0.14699429273605347,-0.5659675002098083
1759162719364681500,5.191681396484375,0.057912830263376236,0.16675573587417603,-0.6508035659790039
1759162719374738400,5.201738525390625,0.006322694942355156,0.1671915501356125,-0.7326125502586365
1759162719384796400,5.21179638671875,-0.06019241362810135,0.11151842772960663,-0.794666588306427
1759162719394853400,5.221853271484375,-0.14263243973255157,0.021183116361498833,-0.8425340056419373
1759162719404910300,5.231910400390625,-0.22662054002285004,-0.07090632617473602,-0.8840638399124146
1759162719414967300,5.24196728515625,-0.32298707962036133,-0.11215817928314209,-0.9234532117843628
1759162719425025500,5.252025634765625,-0.3897320330142975,-0.108260378241539,-0.9989564418792725
1759162719435082500,5.26208251953125,-0.3386572003364563,-0.050356969237327576,-1.106760025024414
1759162719445139500,5.272139404296875,-0.15608976781368256,0.12406090646982193,-1.139937162399292
1759162719455196400,5.282196533203125,0.06524810194969177,0.20264454185962677,-1.1290018558502197
1759162719465254400,5.29225439453125,0.22189204394817352,0.5143179893493652,-1.3592946529388428
1759162719475311400,5.302311279296875,-0.06584644317626953,0.41276630759239197,-1.3398582935333252
1759162719485368600,5.31236865234375,-0.4644574522972107,0.07155650109052658,-0.988232433795929
1759162719495425500,5.322425537109375,-0.6418310403823853,-0.25921061635017395,-0.8405272960662842
1759162719505483300,5.332483154296875,-0.7059171199798584,-0.6179323196411133,-0.7730355858802795
1759162719515540500,5.34254052734375,-0.732665479183197,-0.7675018310546875,-0.8072081208229065
1759162719525597400,5.352597412109375,-0.8135073184967041,-0.7481715679168701,-0.8953169584274292
1759162719535655200,5.3626552734375,-0.9459917545318604,-0.6424129009246826,-0.9991880655288696
1759162719545712400,5.37271240234375,-1.0966987609863281,-0.5760634541511536,-1.1754752397537231
1759162719555769300,5.382769287109375,-1.1790651082992554,-0.4994908273220062,-1.3887630701065063
1759162719565826300,5.392826416015625,-1.1850804090499878,-0.33427444100379944,-1.5691312551498413
1759162719575884300,5.40288427734375,-1.168357253074646,-0.2163221389055252,-1.6657909154891968
1759162719585941200,5.412941162109375,-1.1385419368743896,-0.0568736232817173,-1.7173652648925781
1759162719595998200,5.422998291015625,-1.1375365257263184,0.06226702034473419,-1.786260962486267
1759162719606055200,5.43305517578125,-1.1964534521102905,0.16709409654140472,-1.8281886577606201
1759162719616113400,5.443113525390625,-1.2845942974090576,0.28224995732307434,-1.8485398292541504
1759162719626170400,5.45317041015625,-1.3287668228149414,0.3399449586868286,-1.8337258100509644
1759162719636227300,5.463227294921875,-1.331682562828064,0.3665655255317688,-1.7668975591659546
1759162719646285300,5.473285400390625,-1.3232712745666504,0.4301849901676178,-1.697800874710083
1759162719656342300,5.48334228515625,-1.3035097122192383,0.5122469663619995,-1.6241178512573242
1759162719666399500,5.4933994140625,-1.248547077178955,0.6086576581001282,-1.542543649673462
1759162719676456400,5.50345654296875,-1.1624610424041748,0.6708251237869263,-1.437050700187683
1759162719686514400,5.513514404296875,-1.0671257972717285,0.6356722116470337,-1.3496782779693604
1759162719696571400,5.5235712890625,-0.9666646718978882,0.4897686839103699,-1.2756906747817993
1759162719706628400,5.53362841796875,-0.8974520564079285,0.3514406383037567,-1.1997783184051514
1759162719716685300,5.543685302734375,-0.8488656282424927,0.1481776088476181,-1.0933068990707397
1759162719726743600,5.55374365234375,-0.8192312717437744,-0.05338107794523239,-0.9745038151741028
1759162719736800500,5.563800537109375,-0.8263293504714966,-0.21465232968330383,-0.8606542348861694
1759162719746857500,5.573857421875,-0.8733354210853577,-0.41148871183395386,-0.7326321005821228
1759162719756914400,5.58391455078125,-1.0314744710922241,-0.6901428699493408,-0.6124131083488464
1759162719766972400,5.593972412109375,-1.1427950859069824,-0.9548733234405518,-0.4913887083530426
1759162719777029400,5.604029296875,-1.1796891689300537,-1.2316079139709473,-0.3680937588214874
1759162719787086600,5.614086669921875,-1.143809199333191,-1.4141396284103394,-0.2921220362186432
1759162719797144300,5.624144287109375,-1.09053373336792,-1.555605173110962,-0.25726258754730225
1759162719807201300,5.634201171875,-0.9904950857162476,-1.620029091835022,-0.25884371995925903
1759162719817258200,5.64425830078125,-0.8575151562690735,-1.6234041452407837,-0.3020547330379486
1759162719827315500,5.6543154296875,-0.7293521165847778,-1.549887776374817,-0.39258915185928345
1759162719837373200,5.664373291015625,-0.5991690754890442,-1.4552099704742432,-0.49747323989868164
1759162719847430400,5.674430419921875,-0.4890865087509155,-1.3560525178909302,-0.6170771718025208
1759162719857487400,5.6844873046875,-0.39215150475502014,-1.1896649599075317,-0.7229999899864197
1759162719867544300,5.69454443359375,-0.28367429971694946,-1.0213550329208374,-0.8225483894348145
1759162719877602300,5.704602294921875,-0.10780197381973267,-0.7613587975502014,-0.920062243938446
1759162719887659300,5.7146591796875,0.044928181916475296,-0.3956447243690491,-1.0248820781707764
1759162719897716200,5.72471630859375,0.15037353336811066,0.0985632836818695,-1.1040970087051392
1759162719907774500,5.7347744140625,0.17815536260604858,0.5725566744804382,-1.1462458372116089
1759162719917831400,5.74483154296875,0.17959514260292053,0.7921738028526306,-1.1846369504928589
1759162719927888400,5.754888427734375,0.18537500500679016,0.737819492816925,-1.1311370134353638
1759162719937945300,5.7649453125,0.259117990732193,0.5363045930862427,-0.9855338335037231
1759162719948003300,5.77500341796875,0.514309287071228,0.2800634503364563,-1.0016456842422485
1759162719958060300,5.785060302734375,0.751957893371582,0.10711485147476196,-1.0899442434310913
1759162719968117500,5.795117431640625,0.7328984141349792,-0.013740195892751217,-1.0999172925949097
1759162719978174500,5.805174560546875,0.5885783433914185,0.07051034271717072,-1.0146291255950928
1759162719988232400,5.815232421875,0.4496241807937622,0.21478097140789032,-0.8481333255767822
1759162719998289400,5.825289306640625,0.26720696687698364,0.2206413447856903,-0.6765382289886475
1759162720008346400,5.835346435546875,0.07272747904062271,0.21262575685977936,-0.5873529314994812
1759162720018404600,5.845404541015625,-0.08859635144472122,0.30115771293640137,-0.5650259256362915
1759162720028461600,5.855461669921875,-0.1653989851474762,0.3591991662979126,-0.5429270267486572
1759162720038518500,5.8655185546875,-0.15079592168331146,0.2508455812931061,-0.44004344940185547
1759162720048575500,5.875575439453125,-0.09582988172769547,0.11721134930849075,-0.32250404357910156
1759162720058633200,5.88563330078125,-0.016213571652770042,0.11447744816541672,-0.219013512134552
1759162720068690200,5.895690185546875,0.0837353989481926,0.16416537761688232,-0.14898356795310974
1759162720078747400,5.905747314453125,0.18964101374149323,0.19634194672107697,-0.08368025720119476
1759162720088804600,5.9158046875,0.2728874385356903,0.2620983123779297,-0.045735009014606476
1759162720098862300,5.9258623046875,0.29984578490257263,0.32384470105171204,-0.06119147315621376
1759162720108919300,5.935919189453125,0.23547853529453278,0.34964460134506226,-0.0907866507768631
1759162720118976300,5.945976318359375,0.12501545250415802,0.3834620416164398,-0.10899725556373596
1759162720129034500,5.956034423828125,-0.03622882440686226,0.38161808252334595,-0.12964315712451935
1759162720139091500,5.966091552734375,-0.209867924451828,0.3342078924179077,-0.14621959626674652
1759162720149148400,5.9761484375,-0.345151424407959,0.2863522171974182,-0.1466371864080429
1759162720159205400,5.986205322265625,-0.40550193190574646,0.2777818739414215,-0.13664031028747559
1759162720169263400,5.996263427734375,-0.41841214895248413,0.29103320837020874,-0.1432095319032669
1759162720179320300,6.0063203125,-0.4395245909690857,0.2983860373497009,-0.20425103604793549
1759162720189377300,6.016377197265625,-0.5169512629508972,0.31139716506004333,-0.29150471091270447
1759162720199434500,6.0264345703125,-0.6438348889350891,0.292080819606781,-0.4083583652973175
1759162720209492500,6.036492431640625,-0.7954614162445068,0.25965842604637146,-0.5488294363021851
1759162720219549400,6.046549560546875,-0.9171752333641052,0.23180268704891205,-0.7230725288391113
1759162720229606400,6.0566064453125,-0.9532871842384338,0.1794619858264923,-0.8803588151931763
1759162720239664400,6.066664306640625,-0.9473239183425903,0.14230570197105408,-0.9452157020568848
1759162720249721600,6.0767216796875,-0.9357583522796631,0.1201748326420784,-0.8973885178565979
1759162720259778600,6.086778564453125,-0.9152851700782776,0.11312823742628098,-0.779832124710083
1759162720269835500,6.09683544921875,-0.905844509601593,0.23189003765583038,-0.6659998297691345
1759162720279893500,6.1068935546875,-0.8926384449005127,0.3826223909854889,-0.5753378868103027
1759162720289950500,6.116950439453125,-0.8705267906188965,0.36292725801467896,-0.49207282066345215
1759162720300007400,6.12700732421875,-0.867127537727356,0.1692735105752945,-0.3830164968967438
1759162720310064400,6.137064453125,-0.9026432037353516,0.08322250843048096,-0.2416207641363144
1759162720320122400,6.147122314453125,-0.8997188806533813,0.15898659825325012,-0.03587587550282478
1759162720330179300,6.157179443359375,-0.8109956383705139,0.2888396680355072,0.23759375512599945
1759162720340236500,6.167236572265625,-0.7167363166809082,0.4731960892677307,0.49208176136016846
1759162720350294300,6.177294189453125,-0.523225724697113,0.6437374353408813,0.7367437481880188
1759162720360351200,6.187351318359375,-0.36302709579467773,0.7983794808387756,0.8986064195632935
1759162720370408200,6.197408203125,-0.13277071714401245,0.8365204334259033,1.0685451030731201
1759162720380465400,6.20746533203125,0.0713244080543518,0.7639133930206299,1.23493492603302
1759162720390523400,6.2175234375,0.24955087900161743,0.693084180355072,1.3880459070205688
1759162720400580400,6.227580322265625,0.4062309265136719,0.6068456172943115,1.544758677482605
1759162720410637300,6.23763720703125,0.5421122908592224,0.5194912552833557,1.704232931137085
1759162720420694300,6.2476943359375,0.6726949214935303,0.4917956590652466,1.8593878746032715
1759162720430752500,6.25775244140625,0.787414014339447,0.6041038036346436,2.005847692489624
1759162720440809500,6.2678095703125,0.8534595370292664,0.8624282479286194,2.100389242172241
1759162720450866400,6.277866455078125,0.89876788854599,1.2788593769073486,2.0794565677642822
1759162720460924400,6.28792431640625,0.9183775186538696,1.756220817565918,1.956544280052185
1759162720470981400,6.2979814453125,1.0009608268737793,2.1940550804138184,1.7700189352035522
1759162720481038300,6.308038330078125,1.1354397535324097,2.3489296436309814,1.6042762994766235
1759162720491095300,6.31809521484375,1.2949692010879517,2.256459951400757,1.4972460269927979
1759162720501153500,6.328153564453125,1.408965826034546,2.0238542556762695,1.4585963487625122
1759162720511210500,6.33821044921875,1.4143826961517334,1.8499330282211304,1.4596352577209473
1759162720521267500,6.348267333984375,1.2804062366485596,1.7043471336364746,1.4595102071762085
1759162720531324400,6.358324462890625,1.044854760169983,1.6380141973495483,1.4200294017791748
1759162720541382400,6.36838232421875,0.8000979423522949,1.68808114528656,1.381608009338379
1759162720551439600,6.378439697265625,0.6238390207290649,1.7907679080963135,1.3297057151794434
1759162720561496600,6.38849658203125,0.5957084894180298,1.600906491279602,1.2278958559036255
1759162720571554300,6.39855419921875,0.7539476156234741,1.0234605073928833,1.1324361562728882
1759162720581611500,6.408611572265625,1.0539758205413818,0.5097951889038086,0.987007200717926
1759162720591668500,6.41866845703125,1.458664894104004,0.42074495553970337,0.8666555285453796
1759162720601725400,6.428725341796875,1.926264762878418,0.7655043005943298,0.7712608575820923
1759162720611783400,6.438783447265625,2.2801084518432617,1.1920840740203857,0.7306870222091675
1759162720621840400,6.44884033203125,2.4576313495635986,1.4501879215240479,0.6950603127479553
1759162720631897300,6.4588974609375,2.554551362991333,1.471761703491211,0.6668035984039307
1759162720641954300,6.468954345703125,2.642888069152832,1.2466596364974976,0.6666390895843506
1759162720652012300,6.47901220703125,2.694596290588379,0.8733736276626587,0.7278484106063843
1759162720662069200,6.4890693359375,2.5836920738220215,0.4116845428943634,0.8470458984375
1759162720672126500,6.49912646484375,2.4142906665802,-0.26839491724967957,1.0590896606445312
1759162720682184400,6.509184326171875,2.2366738319396973,-0.7107792496681213,1.2595559358596802
1759162720692241400,6.519241455078125,2.1742451190948486,-0.8733737468719482,1.3690283298492432
1759162720702298400,6.52929833984375,2.145411968231201,-0.8252973556518555,1.4094035625457764
1759162720712355300,6.539355224609375,2.1679763793945312,-0.5866208672523499,1.35017728805542
1759162720722413300,6.549413330078125,2.0920510292053223,-0.9148277044296265,1.464892029762268
1759162720732470500,6.559470458984375,1.9929624795913696,-1.316001534461975,1.620740532875061
1759162720742527500,6.569527587890625,1.8447498083114624,-1.4646296501159668,1.6964356899261475
1759162720752584400,6.57958447265625,1.8000845909118652,-1.28724205493927,1.6002353429794312
1759162720762642400,6.589642333984375,1.6535714864730835,-1.561270833015442,1.6551834344863892
1759162720772699400,6.599699462890625,1.4483698606491089,-1.8967561721801758,1.8090555667877197
1759162720782756400,6.60975634765625,1.2238242626190186,-1.9158751964569092,1.8185662031173706
1759162720792814600,6.619814697265625,1.0733665227890015,-1.9038143157958984,1.7504990100860596
1759162720802871600,6.62987158203125,0.9622145891189575,-1.6359148025512695,1.5384669303894043
1759162720812928500,6.639928466796875,0.7847349047660828,-1.647476315498352,1.3639116287231445
1759162720822985500,6.6499853515625,0.5617997646331787,-1.6601778268814087,1.2423990964889526
1759162720833043500,6.66004345703125,0.43164896965026855,-1.4062047004699707,1.026437520980835
1759162720843100400,6.670100341796875,0.3216659724712372,-1.1527684926986694,0.8085289597511292
1759162720853157600,6.68015771484375,0.2563713788986206,-0.914282500743866,0.5844625234603882
1759162720863214600,6.690214599609375,0.21468967199325562,-0.6731629967689514,0.33472663164138794
1759162720873272300,6.700272216796875,0.1972654014825821,-0.3943580090999603,0.08113403618335724
1759162720883329300,6.710329345703125,0.21812450885772705,-0.0973682701587677,-0.17983871698379517
1759162720893386200,6.72038623046875,0.24772769212722778,0.1223643571138382,-0.4158749282360077
1759162720903444500,6.730444580078125,0.271072655916214,0.2732349932193756,-0.6276346445083618
1759162720913501400,6.74050146484375,0.2766743302345276,0.3910582959651947,-0.8222757577896118
1759162720923558400,6.750558349609375,0.25314605236053467,0.4846813678741455,-0.9918957948684692
1759162720933615400,6.760615478515625,0.19585347175598145,0.5299441814422607,-1.1062220335006714
1759162720943673300,6.77067333984375,0.11264511197805405,0.5046566128730774,-1.1775681972503662
1759162720953730300,6.780730224609375,0.0047300951555371284,0.44328027963638306,-1.2081854343414307
1759162720963787300,6.790787353515625,-0.09917159378528595,0.3964065909385681,-1.2212212085723877
1759162720973844500,6.800844482421875,-0.22756657004356384,0.2773835361003876,-1.2692034244537354
1759162720983902500,6.81090234375,-0.3870563209056854,0.1540573537349701,-1.3622372150421143
1759162720993959400,6.82095947265625,-0.4796581566333771,0.03068375401198864,-1.4825763702392578
1759162721004016400,6.831016357421875,-0.36675235629081726,0.14039331674575806,-1.4541696310043335
1759162721014074400,6.841074462890625,-0.0993880107998848,0.6428819894790649,-1.1840497255325317
1759162721024131300,6.85113134765625,0.3117695152759552,1.0077940225601196,-1.4645556211471558
1759162721034188500,6.8611884765625,-0.1052657961845398,0.3385629653930664,-1.3664013147354126
1759162721044245500,6.87124560546875,-0.6806204915046692,-0.10951744765043259,-0.7874104976654053
1759162721054303500,6.881303466796875,-0.802419900894165,-0.6284969449043274,-0.49315088987350464
1759162721064360400,6.8913603515625,-0.8390365242958069,-1.22550368309021,-0.31226828694343567
1759162721074417400,6.90141748046875,-0.8548927307128906,-1.536677598953247,-0.3148078918457031
1759162721084474400,6.911474365234375,-0.9084392786026001,-1.4300777912139893,-0.39279869198799133
1759162721094532600,6.92153271484375,-1.004549503326416,-1.2559689283370972,-0.5637563467025757
1759162721104589800,6.93158984375,-1.1127901077270508,-1.0347676277160645,-0.8451281189918518
1759162721114646800,6.941646728515625,-1.143118143081665,-0.7278487682342529,-1.0953948497772217
1759162721124704000,6.9517041015625,-1.113853931427002,-0.31956762075424194,-1.3814749717712402
1759162721134761700,6.96176171875,-1.0783995389938354,0.0417996384203434,-1.6407384872436523
1759162721144818700,6.971818603515625,-1.0437625646591187,0.4071659743785858,-1.8641719818115234
1759162721154875600,6.981875732421875,-1.0987530946731567,0.7275729775428772,-2.023813247680664
1759162721164933600,6.99193359375,-1.2321158647537231,0.9529253840446472,-2.128453254699707
1759162721174990800,7.001990966796875,-1.368701696395874,1.1505154371261597,-2.207761526107788
1759162721185047800,7.0120478515625,-1.4811979532241821,1.2671102285385132,-2.2096922397613525
1759162721195104800,7.022104736328125,-1.5718543529510498,1.2645500898361206,-2.1377575397491455
1759162721205162800,7.032162841796875,-1.6087172031402588,1.164800763130188,-2.0214555263519287
1759162721215219700,7.0422197265625,-1.588744878768921,1.0636059045791626,-1.8529539108276367
1759162721225276700,7.052276611328125,-1.5430998802185059,0.9339442253112793,-1.653408169746399
1759162721235333600,7.062333740234375,-1.4118106365203857,0.7356532216072083,-1.446288824081421
1759162721245392000,7.072391845703125,-1.222129225730896,0.4943346679210663,-1.2614033222198486
1759162721255448800,7.08244873046875,-1.073382019996643,0.24856002628803253,-1.118884801864624
1759162721265505800,7.092505859375,-1.017726182937622,0.0417456328868866,-1.027183175086975
1759162721275563800,7.102563720703125,-1.0146297216415405,-0.12454187870025635,-0.9714126586914062
1759162721285620700,7.112620849609375,-1.0507456064224243,-0.27565473318099976,-0.9387591481208801
1759162721295678000,7.122677978515625,-1.1069161891937256,-0.37439674139022827,-0.894450306892395
1759162721305735000,7.13273486328125,-1.1678036451339722,-0.5026771426200867,-0.8295680284500122
1759162721315793000,7.14279296875,-1.203365683555603,-0.6739226579666138,-0.7338193655014038
1759162721325849900,7.152849853515625,-1.1788818836212158,-0.9099108576774597,-0.5834367275238037
1759162721335906800,7.16290673828125,-1.0945467948913574,-1.0942975282669067,-0.3944377899169922
1759162721345963800,7.1729638671875,-1.0748955011367798,-1.3290553092956543,-0.20330163836479187
1759162721356021800,7.183021728515625,-1.0473675727844238,-1.3942335844039917,-0.0882677212357521
1759162721366079000,7.193078857421875,-1.031602144241333,-1.3882232904434204,-0.08059093356132507
1759162721376136000,7.203135986328125,-0.9826378226280212,-1.335192322731018,-0.1449510008096695
1759162721386193000,7.21319287109375,-0.8932985067367554,-1.2945713996887207,-0.2533717155456543
1759162721396250600,7.223250732421875,-0.7173442840576172,-1.3409212827682495,-0.35837802290916443
1759162721406307600,7.2333076171875,-0.4985627233982086,-1.351194977760315,-0.42348411679267883
1759162721416364800,7.24336474609375,-0.30115193128585815,-1.3149458169937134,-0.5051693320274353
1759162721426422800,7.2534228515625,-0.19649334251880646,-1.2929022312164307,-0.6253670454025269
1759162721436479700,7.263479736328125,-0.0772004947066307,-1.179990530014038,-0.7510074973106384
1759162721446536700,7.27353662109375,0.04234043136239052,-0.99889075756073,-0.9012312889099121
1759162721456593700,7.28359375,0.1982613205909729,-0.6934090852737427,-1.1113799810409546
1759162721466651600,7.293651611328125,0.23445214331150055,-0.49326658248901367,-1.2371116876602173
1759162721476708900,7.303708984375,0.13304083049297333,-0.3095649182796478,-1.1900110244750977
1759162721486765800,7.313765869140625,0.04023308679461479,-0.29663947224617004,-1.0538570880889893
1759162721496822800,7.32382275390625,0.04210289195179939,-0.3109992444515228,-0.894667387008667
1759162721506880800,7.333880859375,0.24640649557113647,-0.2882021367549896,-0.8718920350074768
1759162721516937700,7.343937744140625,0.6204504370689392,-0.10732556134462357,-1.1145539283752441
1759162721526994700,7.35399462890625,0.8538262844085693,0.19520603120326996,-1.3207178115844727
1759162721537051600,7.3640517578125,0.8018059730529785,0.5366587042808533,-1.3996368646621704
1759162721547110000,7.37410986328125,0.5287129282951355,0.8577172756195068,-1.2704700231552124
1759162721557166800,7.384166748046875,0.08648119121789932,0.8895947337150574,-0.961015522480011
1759162721567223800,7.394223876953125,-0.2616631090641022,0.5827877521514893,-0.6710773706436157
1759162721577280800,7.40428076171875,-0.4522716701030731,0.2867683172225952,-0.5905486941337585
1759162721587338800,7.4143388671875,-0.47609490156173706,0.021637167781591415,-0.6296555399894714
1759162721597396000,7.42439599609375,-0.31116560101509094,-0.16397051513195038,-0.6774100661277771
1759162721607453000,7.434452880859375,-0.21106432378292084,-0.10684359073638916,-0.6321019530296326
1759162721617511000,7.444510986328125,-0.17990906536579132,-0.09568973630666733,-0.49473851919174194
1759162721627567900,7.45456787109375,-0.15021634101867676,-0.03891253471374512,-0.3869917094707489
1759162721637624800,7.464624755859375,-0.1359117180109024,0.03527035191655159,-0.31916046142578125
1759162721647681800,7.474681884765625,-0.15487246215343475,0.05909648537635803,-0.26159152388572693
1759162721657739800,7.48473974609375,-0.16952303051948547,0.09716024249792099,-0.2037079781293869
1759162721667796700,7.494796630859375,-0.14991328120231628,0.15078149735927582,-0.13598370552062988
1759162721677853700,7.504853759765625,-0.12325610220432281,0.22743047773838043,-0.06942731887102127
1759162721687911000,7.514910888671875,-0.09044944494962692,0.23906749486923218,-0.04266657307744026
1759162721697968600,7.52496875,-0.07719995081424713,0.18652333319187164,-0.08162648975849152
1759162721708025600,7.535025634765625,-0.08155098557472229,0.13330255448818207,-0.1608957052230835
1759162721718082800,7.545082763671875,-0.13569943606853485,0.09274981170892715,-0.23735666275024414
1759162721728139800,7.555139892578125,-0.2892968952655792,0.09980075061321259,-0.2687717080116272
1759162721738197800,7.56519775390625,-0.4504644572734833,0.1280084252357483,-0.2704273760318756
1759162721748254700,7.575254638671875,-0.5592741370201111,0.17713430523872375,-0.25171586871147156
1759162721758311700,7.585311767578125,-0.6325334310531616,0.2721225917339325,-0.23383460938930511
1759162721768368600,7.59536865234375,-0.6854007244110107,0.3308500647544861,-0.2366856038570404
1759162721778427000,7.605427001953125,-0.6880138516426086,0.2923772633075714,-0.2750073969364166
1759162721788483800,7.61548388671875,-0.6249409914016724,0.1303333342075348,-0.38415780663490295
1759162721798540800,7.625540771484375,-0.508262038230896,-0.07200592756271362,-0.5277777910232544
1759162721808597800,7.63559765625,-0.4170587658882141,-0.23704640567302704,-0.6312928795814514
1759162721818655700,7.64565576171875,-0.4301314055919647,-0.29864028096199036,-0.6700160503387451
1759162721828712700,7.655712646484375,-0.5344038009643555,-0.2539047598838806,-0.6517898440361023
1759162721838769700,7.665769775390625,-0.6048374772071838,-0.15352514386177063,-0.6163588762283325
1759162721848827000,7.675826904296875,-0.6214216351509094,-0.06260770559310913,-0.5763229131698608
1759162721858884900,7.685884765625,-0.6516826152801514,-0.03593055158853531,-0.512881338596344
1759162721868941800,7.69594189453125,-0.6952476501464844,-0.01124909333884716,-0.4195415675640106
1759162721878998800,7.705998779296875,-0.7860414385795593,-0.02357766591012478,-0.2830292582511902
1759162721889055700,7.7160556640625,-0.8693215847015381,-0.030841300264000893,-0.1131383553147316
1759162721899114000,7.726114013671875,-0.9109174609184265,0.08693459630012512,0.06936221569776535
1759162721909171000,7.7361708984375,-0.9139679670333862,0.2845207750797272,0.2602790594100952
1759162721919228000,7.746227783203125,-0.8084460496902466,0.4438507854938507,0.46791666746139526
1759162721929286000,7.756285888671875,-0.6192179918289185,0.5024635791778564,0.6441583633422852
1759162721939342800,7.7663427734375,-0.3808879852294922,0.49471139907836914,0.8149088025093079
1759162721949399800,7.77639990234375,-0.18854878842830658,0.43454593420028687,0.9715770483016968
1759162721959456800,7.786456787109375,-0.022924136370420456,0.3540082275867462,1.128313660621643
1759162721969514800,7.7965146484375,0.10108219087123871,0.32581955194473267,1.2843098640441895
1759162721979571700,7.80657177734375,0.22271859645843506,0.33717235922813416,1.44968581199646
1759162721989628700,7.816628662109375,0.3387680947780609,0.3552754819393158,1.6067160367965698
1759162721999686000,7.826685791015625,0.4670403301715851,0.38516944646835327,1.7369390726089478
1759162722009743600,7.83674365234375,0.6025332808494568,0.45514318346977234,1.836134433746338
1759162722019800800,7.84680078125,0.7475261688232422,0.5977725386619568,1.8755860328674316
1759162722029857800,7.85685791015625,0.8938697576522827,0.7396571636199951,1.8411935567855835
1759162722039914800,7.866914794921875,0.9637454748153687,0.9615594744682312,1.7592214345932007
1759162722049972700,7.87697265625,1.0657376050949097,1.1851104497909546,1.6786142587661743
1759162722060029700,7.88702978515625,1.1929935216903687,1.3223249912261963,1.6374993324279785
1759162722070086700,7.897086669921875,1.2945011854171753,1.2983429431915283,1.6881306171417236
1759162722080143600,7.9071435546875,1.4006086587905884,1.172620177268982,1.8168593645095825
1759162722090201900,7.917201904296875,1.473702311515808,1.1025992631912231,1.962299108505249
1759162722100258300,7.92725830078125,1.4012824296951294,1.088492512702942,2.036360025405884
1759162722110315300,7.937315185546875,1.1627057790756226,1.183072566986084,2.0165393352508545
1759162722120372200,7.947372314453125,0.8848339915275574,1.4463361501693726,1.9221532344818115
1759162722130430200,7.95743017578125,0.6198037266731262,1.6986736059188843,1.734254240989685
1759162722140487200,7.967487060546875,0.48473989963531494,1.8021034002304077,1.5101902484893799
1759162722150544100,7.977544189453125,0.5550913214683533,1.7155697345733643,1.2796889543533325
1759162722160601000,7.98760107421875,0.7746745347976685,1.3837242126464844,1.075171709060669
1759162722170659300,7.997659423828125,1.145688533782959,1.0423619747161865,0.9334105849266052
1759162722180716300,8.00771630859375,1.6180081367492676,1.0310789346694946,0.7869319319725037
1759162722190773200,8.017773193359375,2.1810572147369385,1.2551506757736206,0.6826794743537903
1759162722200830200,8.027830322265626,2.565873861312866,1.645462155342102,0.6898638606071472
1759162722210888200,8.03788818359375,2.618661880493164,1.8207037448883057,0.7453640699386597
1759162722220945400,8.0479453125,2.577409505844116,1.558410882949829,0.7857969999313354
1759162722231002400,8.05800244140625,2.5506458282470703,1.0969109535217285,0.8281272649765015
1759162722241059300,8.068059326171875,2.5483217239379883,0.718542754650116,0.916629433631897
1759162722251117300,8.078117431640624,2.4900498390197754,0.46932730078697205,1.0264286994934082
1759162722261174300,8.08817431640625,2.386828899383545,0.3391605317592621,1.1041862964630127
1759162722271231200,8.098231201171876,2.3308334350585938,-0.035066232085227966,1.2031807899475098
1759162722281288200,8.1082880859375,2.33263897895813,-0.45261284708976746,1.2757741212844849
1759162722291345400,8.118345458984376,2.4288318157196045,-0.5223259925842285,1.190260887145996
1759162722301403400,8.1284033203125,2.4381775856018066,-0.9070132374763489,1.2894012928009033
1759162722311460400,8.13846044921875,2.4309942722320557,-0.9407908320426941,1.368503451347351
1759162722321517300,8.148517333984374,2.4026403427124023,-1.072312831878662,1.5264099836349487
1759162722331574300,8.15857421875,2.421617269515991,-1.1211400032043457,1.6305702924728394
1759162722341632300,8.16863232421875,2.4038925170898438,-1.1736739873886108,1.6052649021148682
1759162722351689200,8.178689208984375,2.2218844890594482,-1.7010772228240967,1.742110252380371
1759162722361746400,8.188746337890626,1.99545156955719,-1.9734538793563843,1.8449326753616333
1759162722371803400,8.198803466796875,1.8126466274261475,-2.0180585384368896,1.834808349609375
1759162722381861000,8.208861083984376,1.6907662153244019,-1.8134312629699707,1.680387020111084
1759162722391918000,8.21891796875,1.4400134086608887,-2.0864686965942383,1.6606837511062622
1759162722401975000,8.22897509765625,1.1740806102752686,-2.087428569793701,1.551099419593811
1759162722412032300,8.2390322265625,0.9443787932395935,-1.9698578119277954,1.3609224557876587
1759162722422090200,8.24909033203125,0.7493306994438171,-1.833538293838501,1.1515332460403442
1759162722432147200,8.259147216796874,0.5815815329551697,-1.6720802783966064,0.9309738278388977
1759162722442204200,8.2692041015625,0.43507513403892517,-1.4539785385131836,0.6906677484512329
1759162722452261000,8.27926123046875,0.32265907526016235,-1.226091742515564,0.4779204726219177
1759162722462319000,8.289319091796875,0.24494855105876923,-0.9821435213088989,0.29023924469947815
1759162722472376300,8.299376220703126,0.193851038813591,-0.7528846859931946,0.11645819246768951
1759162722482433300,8.309433349609375,0.15687678754329681,-0.5416815876960754,-0.057143956422805786
1759162722492490200,8.319490234375,0.13923752307891846,-0.37259340286254883,-0.22130022943019867
1759162722502548200,8.32954833984375,0.11121760308742523,-0.21659530699253082,-0.38578346371650696
1759162722512605200,8.339605224609375,0.07271238416433334,-0.08739284425973892,-0.5504801869392395
1759162722522662100,8.349662109375,0.03203872963786125,0.0355253629386425,-0.6806418895721436
1759162722532719000,8.359718994140625,-0.03269483894109726,0.1629846841096878,-0.7763869166374207
1759162722542777300,8.36977734375,-0.10603350400924683,0.275410532951355,-0.822396993637085
1759162722552834300,8.379834228515625,-0.16217990219593048,0.35161036252975464,-0.8546287417411804
1759162722562891300,8.389891357421876,-0.19837012887001038,0.4086161255836487,-0.8886194229125977
1759162722572948200,8.3999482421875,-0.21848686039447784,0.4486938714981079,-0.8960750102996826
1759162722583005200,8.410005126953125,-0.23355503380298615,0.4535392224788666,-0.8914374113082886
1759162722593063400,8.4200634765625,-0.24296042323112488,0.40288013219833374,-0.9063405990600586
1759162722603120400,8.430120361328125,-0.25889065861701965,0.32142573595046997,-0.9365779161453247
1759162722613177300,8.44017724609375,-0.3002283573150635,0.2544373571872711,-0.9496994018554688
1759162722623234300,8.450234375,-0.3530116677284241,0.2060706466436386,-0.9404305219650269
1759162722633292300,8.460292236328126,-0.40523117780685425,0.1721474826335907,-0.9202360510826111
1759162722643349200,8.470349365234375,-0.44370347261428833,0.14846238493919373,-0.8966476321220398
1759162722653406200,8.48040625,-0.4885702133178711,0.13064813613891602,-0.9103841185569763
1759162722663463400,8.49046337890625,-0.5361047387123108,0.15944676101207733,-0.9012092351913452
1759162722673521400,8.500521484375,-0.5822970867156982,0.20035429298877716,-0.8563969135284424
1759162722683578400,8.510578369140624,-0.5795412659645081,0.1876227855682373,-0.8740137219429016
1759162722693635300,8.52063525390625,-0.41094374656677246,0.1527002453804016,-0.9061687588691711
1759162722703692300,8.5306923828125,-0.1408528834581375,0.2314120978116989,-0.7880157232284546
1759162722713749200,8.540749267578125,0.040119752287864685,0.12537448108196259,-0.7617056965827942
1759162722723807200,8.55080712890625,-0.1026158332824707,-0.06001029908657074,-0.8285643458366394
1759162722733864200,8.5608642578125,-0.36811912059783936,-0.1706467866897583,-0.7376546263694763
1759162722743921200,8.570921142578126,-0.6106942296028137,-0.6634663343429565,-0.6079235076904297
1759162722753978400,8.580978271484375,-0.8100816607475281,-1.06832754611969,-0.5704033970832825
1759162722764036000,8.5910361328125,-0.8850272297859192,-1.1331619024276733,-0.7351158857345581
1759162722774093000,8.601093017578124,-1.0343153476715088,-1.0089917182922363,-0.8738468885421753
1759162722784150300,8.611150390625,-1.1690499782562256,-0.7433393597602844,-1.0900652408599854
1759162722794207200,8.621207275390624,-1.2222734689712524,-0.6868789196014404,-1.3485214710235596
1759162722804265200,8.63126513671875,-1.2355892658233643,-0.6501967906951904,-1.5590044260025024
1759162722814322200,8.641322265625,-1.1679733991622925,-0.5720555782318115,-1.5918043851852417
1759162722824379100,8.651379150390625,-0.9261801242828369,-0.5757147669792175,-1.572907567024231
1759162722834436000,8.66143603515625,-1.082782506942749,-0.4898960292339325,-1.6546846628189087
1759162722844493000,8.6714931640625,-1.0875247716903687,-0.39261049032211304,-1.63716721534729
1759162722854551300,8.68155126953125,-1.056457281112671,-0.2501921057701111,-1.5791934728622437
1759162722864608300,8.691608154296874,-1.00790274143219,-0.06878158450126648,-1.5762637853622437
1759162722874665200,8.701665283203125,-0.8296108841896057,-0.056120432913303375,-1.4802603721618652
1759162722884722200,8.71172216796875,-0.9187878966331482,0.03917572647333145,-1.447852373123169
1759162722894780200,8.7217802734375,-1.0528889894485474,0.2215166538953781,-1.4524739980697632
1759162722904837000,8.731837158203126,-1.120011329650879,0.3437240421772003,-1.4115492105484009
1759162722914894300,8.741894287109375,-1.2461016178131104,0.6686304211616516,-1.5006217956542969
1759162722924951300,8.751951416015626,-1.2344529628753662,0.9360253810882568,-1.580918312072754
1759162722935009300,8.76200927734375,-1.1443979740142822,0.9392932653427124,-1.5026116371154785
1759162722945066200,8.772066162109375,-1.0934252738952637,0.9244996309280396,-1.4123600721359253
1759162722955123200,8.782123291015624,-1.0006183385849,0.9361123442649841,-1.4001485109329224
1759162722965180200,8.79218017578125,-0.8651416897773743,0.8817550539970398,-1.367824673652649
1759162722975237000,8.802237060546876,-0.8362998366355896,0.8686527013778687,-1.366898536682129
1759162722985295400,8.81229541015625,-1.0475399494171143,0.807581901550293,-1.4228371381759644
1759162722995352300,8.822352294921876,-1.2161760330200195,0.6281944513320923,-1.4354206323623657
1759162723005409300,8.8324091796875,-1.2448631525039673,0.3877647817134857,-1.3322055339813232
1759162723015466200,8.84246630859375,-1.238739252090454,0.1537153273820877,-1.1596970558166504
1759162723025524200,8.852524169921875,-1.242490291595459,-0.10321926325559616,-0.9736294150352478
1759162723035581400,8.86258154296875,-1.2698743343353271,-0.25554415583610535,-0.8350598216056824
1759162723045638400,8.872638427734374,-1.294755220413208,-0.4911646544933319,-0.6872884631156921
1759162723055695400,8.8826953125,-1.2957077026367188,-0.8045030832290649,-0.49923068284988403
1759162723065752300,8.89275244140625,-1.2270005941390991,-1.0690892934799194,-0.3144661784172058
1759162723075810300,8.902810302734375,-1.1546533107757568,-1.1576731204986572,-0.20313619077205658
1759162723085867300,8.9128671875,-1.0695881843566895,-1.0877816677093506,-0.1676483005285263
1759162723095924700,8.9229248046875,-1.0055702924728394,-0.8949347734451294,-0.19731341302394867
1759162723105982000,8.93298193359375,-0.9377263188362122,-0.7188246846199036,-0.24372990429401398
1759162723116039000,8.943038818359375,-0.7932851910591125,-0.7150015234947205,-0.25811830163002014
1759162723126097000,8.953096923828125,-0.6471223831176758,-0.8120293021202087,-0.25702375173568726
1759162723136153900,8.96315380859375,-0.5623272657394409,-0.9997047185897827,-0.26491063833236694
1759162723146210800,8.9732109375,-0.5086520314216614,-1.2353973388671875,-0.24738171696662903
1759162723156267800,8.983267822265624,-0.4203423857688904,-1.5073248147964478,-0.18342728912830353
1759162723166325800,8.99332568359375,-0.33603471517562866,-1.7657800912857056,-0.1383490264415741
1759162723176382700,9.0033828125,-0.25325632095336914,-1.9251313209533691,-0.13703373074531555
1759162723186440000,9.01343994140625,-0.1882677525281906,-2.0196447372436523,-0.1479359120130539
1759162723196497000,9.023496826171876,-0.20541313290596008,-2.0650668144226074,-0.1705828756093979
1759162723206553900,9.033553955078125,-0.23305568099021912,-2.078256130218506,-0.1764570027589798
1759162723216611800,9.04361181640625,-0.24910061061382294,-2.077852249145508,-0.1391303390264511
1759162723226668800,9.053668701171874,-0.28549909591674805,-2.0109939575195312,-0.08190805464982986
1759162723236725800,9.063725830078125,-0.36289072036743164,-1.8669464588165283,-0.03151538968086243
1759162723246782700,9.07378271484375,-0.4048813283443451,-1.6585042476654053,0.0074924626387655735
1759162723256841000,9.083841064453125,-0.4303947389125824,-1.4372738599777222,0.02082446776330471
1759162723266898000,9.09389794921875,-0.43014493584632874,-1.1887601613998413,-0.008556323125958443
1759162723276955000,9.103954833984375,-0.4033552408218384,-0.9211717844009399,-0.08417581021785736
1759162723287011800,9.11401171875,-0.3453603982925415,-0.6526356339454651,-0.19076323509216309
1759162723297068800,9.12406884765625,-0.2542620003223419,-0.3793924152851105,-0.30289578437805176
1759162723307126800,9.134126708984375,-0.11159885674715042,-0.11353995651006699,-0.3990686535835266
1759162723317184000,9.14418408203125,0.07574911415576935,0.11161912232637405,-0.4658638834953308
1759162723327241000,9.154240966796875,0.2661885619163513,0.25273603200912476,-0.5033159255981445
1759162723337298000,9.1642978515625,0.3722817599773407,0.3208082616329193,-0.5195115804672241
1759162723347355000,9.17435498046875,0.3774016797542572,0.3886219263076782,-0.5113034248352051
1759162723357412900,9.184412841796876,0.33271652460098267,0.4637918770313263,-0.46890580654144287
1759162723367469800,9.1944697265625,0.27475816011428833,0.5461235046386719,-0.3877321183681488
1759162723377526800,9.20452685546875,0.22639703750610352,0.6639279127120972,-0.27786630392074585
1759162723387584000,9.214583984375,0.1769983321428299,0.7745023965835571,-0.16614511609077454
1759162723397642000,9.22464208984375,0.12490887939929962,0.8444469571113586,-0.0833938792347908
1759162723407699000,9.234698974609374,0.0740925744175911,0.8805328011512756,-0.03538427874445915
1759162723417756000,9.244755859375,0.03402545303106308,0.8931252956390381,-0.020393773913383484
1759162723427812900,9.254812744140626,0.014394227415323257,0.8720061779022217,-0.03682228550314903
1759162723437869800,9.264869873046875,0.0032207146286964417,0.825132429599762,-0.08144226670265198
1759162723447928000,9.274927978515626,0.015873925760388374,0.7615612149238586,-0.12222325801849365
1759162723457985000,9.284985107421875,0.025431562215089798,0.6967236399650574,-0.1460549384355545
1759162723468042000,9.2950419921875,0.011159946210682392,0.639971137046814,-0.14389777183532715
1759162723478099000,9.305098876953124,-0.03722641244530678,0.5389115810394287,-0.11235257983207703
1759162723488156000,9.315156005859375,-0.08727120608091354,0.34766197204589844,-0.05201227217912674
1759162723498214000,9.3252138671875,-0.11423895508050919,0.06558869779109955,0.026386361569166183
1759162723508271000,9.33527099609375,-0.12132003158330917,-0.2942485511302948,0.11450529843568802
1759162723518328000,9.345328125,-0.13013578951358795,-0.6869494318962097,0.2009875327348709
1759162723528385000,9.355385009765625,-0.15801483392715454,-1.0420851707458496,0.2568854093551636
1759162723538442000,9.36544189453125,-0.19272340834140778,-1.340014100074768,0.2783164978027344
1759162723548499700,9.375499755859375,-0.22354097664356232,-1.535779595375061,0.2580021619796753
1759162723558556700,9.385556640625,-0.2813611924648285,-1.621372103691101,0.21624483168125153
1759162723568614000,9.39561376953125,-0.3474408686161041,-1.5624608993530273,0.16072484850883484
1759162723578671000,9.405671142578125,-0.3862392008304596,-1.4096622467041016,0.13326549530029297
1759162723588728000,9.41572802734375,-0.3902858793735504,-1.1810392141342163,0.11926630884408951
1759162723598785800,9.425785888671875,-0.35017091035842896,-0.894493818283081,0.10874524712562561
1759162723608842800,9.4358427734375,-0.2898082435131073,-0.5072033405303955,0.08543060719966888
1759162723618899700,9.445899658203125,-0.2200920134782791,-0.06023620441555977,0.030384555459022522
1759162723628956700,9.455956787109375,-0.13447219133377075,0.38463765382766724,-0.057029180228710175
1759162723639014000,9.466013916015624,0.006026173941791058,0.7440586090087891,-0.16363242268562317
1759162723649071900,9.47607177734375,0.1404486894607544,0.98338383436203,-0.2965225577354431
1759162723659128800,9.48612890625,0.23266440629959106,1.1190427541732788,-0.45189428329467773
1759162723669185800,9.496185791015625,0.27073830366134644,1.167885184288025,-0.616033136844635
1759162723679242800,9.50624267578125,0.2729555070400238,1.1445772647857666,-0.7391290664672852
1759162723689299700,9.5162998046875,0.26305893063545227,1.0863890647888184,-0.8025850057601929
1759162723699358000,9.52635791015625,0.24207501113414764,1.032904028892517,-0.8004900813102722
1759162723709415000,9.536414794921875,0.2208845019340515,1.009384036064148,-0.7295833826065063
1759162723719471900,9.546471923828125,0.20627743005752563,1.0096970796585083,-0.5889902710914612
1759162723729528800,9.55652880859375,0.1621807962656021,1.0303198099136353,-0.4087267518043518
1759162723739586800,9.5665869140625,0.07683911174535751,1.05032217502594,-0.2176668792963028
1759162723749643800,9.576643798828124,-0.006597458850592375,1.0289223194122314,-0.054907795041799545
1759162723759700700,9.58670068359375,-0.0921671986579895,0.9939465522766113,0.15346664190292358
1759162723769758000,9.596758056640626,-0.17306391894817352,0.9587917327880859,0.3469676673412323
1759162723779815000,9.60681494140625,-0.21956419944763184,0.930986762046814,0.48354020714759827
1759162723789871900,9.616871826171876,-0.2125214785337448,0.9216185212135315,0.5425819158554077
1759162723799929900,9.626929931640625,-0.17289890348911285,0.9114854335784912,0.5363742709159851
1759162723809986800,9.63698681640625,-0.11624442040920258,0.891336977481842,0.48623573780059814
1759162723820043800,9.647043701171874,-0.05733858793973923,0.8398339748382568,0.39352214336395264
1759162723830100700,9.657100830078125,0.010796520859003067,0.7290019989013672,0.2607494592666626
1759162723840158000,9.667157958984374,0.06589946895837784,0.6552067995071411,0.16401448845863342
1759162723850216000,9.6772158203125,0.05367209389805794,0.6347066164016724,0.1355958878993988
1759162723860273000,9.68727294921875,0.02378084696829319,0.6498209834098816,0.12425993382930756
1759162723870329900,9.697329833984375,0.01385391317307949,0.6488766074180603,0.07498932629823685
1759162723880386800,9.70738671875,0.026968225836753845,0.5754203796386719,-0.03649304434657097
1759162723890443800,9.71744384765625,0.047300130128860474,0.4123765826225281,-0.19684197008609772
1759162723900502000,9.727501953125,0.01272508967667818,0.2327754944562912,-0.3061574399471283
1759162723910559000,9.73755908203125,-0.058998897671699524,0.08457164466381073,-0.3395329713821411
1759162723920616000,9.747615966796875,-0.12535130977630615,-0.01273097563534975,-0.27908891439437866
1759162723930673000,9.7576728515625,-0.18107663094997406,-0.05544248968362808,-0.1593068689107895
1759162723940729900,9.767729736328125,-0.21127969026565552,-0.07490167021751404,-0.03263023868203163
1759162723950787800,9.777787841796876,-0.20035380125045776,-0.07329285889863968,0.0888621062040329
1759162723960844800,9.7878447265625,-0.17082954943180084,-0.04845292121171951,0.1915595531463623
1759162723970902000,9.797902099609376,-0.1171191930770874,-0.008858107030391693,0.24982020258903503
1759162723980959000,9.807958984375,-0.053541891276836395,0.061802346259355545,0.26916030049324036
1759162723991016000,9.818015869140625,0.01658046990633011,0.16553965210914612,0.25295576453208923
1759162724001073000,9.828072998046874,0.07264520227909088,0.3092447519302368,0.22670170664787292
1759162724011131000,9.838130859375,0.1272522658109665,0.47970569133758545,0.20973870158195496
1759162724021187800,9.848187744140626,0.18461626768112183,0.6016569137573242,0.1769176721572876
1759162724031244800,9.858244873046875,0.2110968679189682,0.5970957279205322,0.11439596861600876
1759162724041302000,9.868302001953126,0.22536185383796692,0.5172289609909058,0.04919327795505524
1759162724051359000,9.87835888671875,0.20309996604919434,0.4054725766181946,-0.008878549560904503
1759162724061417000,9.8884169921875,0.1195453554391861,0.30734527111053467,-0.04764552786946297
1759162724071474000,9.898473876953124,0.01234406791627407,0.2111407071352005,-0.08024714887142181
1759162724081531000,9.90853076171875,-0.09301640093326569,0.10165009647607803,-0.11082127690315247
1759162724091587800,9.918587890625,-0.17343401908874512,-0.05627588555216789,-0.15768864750862122
1759162724101644500,9.92864453125,-0.23805168271064758,-0.22500766813755035,-0.20544688403606415
1759162724111702500,9.93870263671875,-0.24665261805057526,-0.2694997787475586,-0.20336082577705383
1759162724121759500,9.948759521484375,-0.2452632486820221,-0.17996369302272797,-0.16933932900428772
1759162724131816400,9.95881640625,-0.22970585525035858,-0.04625223949551582,-0.11624468863010406
1759162724141873400,9.968873291015624,-0.21909590065479279,0.043783772736787796,-0.08071443438529968
1759162724151930400,9.978930419921875,-0.22586165368556976,0.05628065764904022,-0.06771714240312576
1759162724161987300,9.9889873046875,-0.23299221694469452,-0.04478307440876961,-0.0658574253320694
1759162724172045600,9.999045654296875,-0.2590951919555664,-0.21543285250663757,-0.05439544469118118
1759162724182102500,10.0091025390625,-0.3298531770706177,-0.4084099531173706,-0.03535794839262962
1759162724192159500,10.019159423828125,-0.3946303129196167,-0.6385316252708435,0.0023510814644396305
1759162724202216400,10.029216552734376,-0.41754260659217834,-0.8891229033470154,0.039277926087379456
1759162724212273400,10.0392734375,-0.41417768597602844,-1.1838200092315674,0.04116211459040642
1759162724222331600,10.04933154296875,-0.4166783392429352,-1.4912163019180298,0.009191974997520447
1759162724232388600,10.059388671875,-0.49880197644233704,-1.6883924007415771,0.010102509520947933
1759162724242445600,10.069445556640625,-0.6957853436470032,-1.7864021062850952,0.059151411056518555
1759162724252502500,10.07950244140625,-0.9633094668388367,-1.8523623943328857,0.1419791877269745
1759162724262559500,10.0895595703125,-1.2157208919525146,-1.974048137664795,0.22307881712913513
1759162724272616400,10.099616455078126,-1.4281399250030518,-2.0738883018493652,0.32884013652801514
1759162724282674400,10.10967431640625,-1.5740653276443481,-2.149711847305298,0.4152679443359375
1759162724292731600,10.119731689453126,-1.6117072105407715,-2.1556406021118164,0.49236807227134705
1759162724302788600,10.12978857421875,-1.5455948114395142,-2.0800747871398926,0.5463386178016663
1759162724312845600,10.139845458984375,-1.3662303686141968,-1.956825613975525,0.5863680839538574
1759162724322902500,10.149902587890624,-1.0661544799804688,-1.6787251234054565,0.6007745265960693
1759162724332960300,10.159960205078125,-0.7027184367179871,-1.3064922094345093,0.5833590626716614
1759162724343017200,10.170017333984376,-0.3160356879234314,-0.8158910274505615,0.5102134943008423
1759162724353074400,10.180074462890625,-0.022364402189850807,-0.19312648475170135,0.4001429080963135
1759162724363131600,10.190131591796876,0.10898216813802719,0.4381431043148041,0.27254006266593933
1759162724373188600,10.200188720703125,0.157345712184906,0.9801461696624756,0.15738791227340698
1759162724383245600,10.21024560546875,0.16236738860607147,1.3075299263000488,0.08785254508256912
1759162724393303300,10.22030322265625,0.1743904948234558,1.4471232891082764,0.07055903971195221
1759162724403360300,10.2303603515625,0.18068858981132507,1.4166942834854126,0.07923974096775055
1759162724413417200,10.240417236328126,0.14562168717384338,1.2436559200286865,0.12202022969722748
1759162724423474400,10.250474365234375,0.0668690949678421,1.0292514562606812,0.15587300062179565
1759162724433531600,10.26053173828125,-0.02816181443631649,0.7516129612922668,0.14934532344341278
1759162724443588600,10.270588623046875,-0.09617921710014343,0.4291728436946869,0.0881354957818985
1759162724453646300,10.280646240234375,-0.11717158555984497,0.10823053121566772,-0.0387103371322155
1759162724463703300,10.290703369140624,-0.02873089164495468,-0.1788199543952942,-0.2102474570274353
1759162724473760300,10.30076025390625,0.1251486837863922,-0.37474310398101807,-0.3800625801086426
1759162724483817200,10.310817138671876,0.2360108643770218,-0.4988160729408264,-0.5007879137992859
1759162724493874400,10.32087451171875,0.23653285205364227,-0.5847080945968628,-0.5568748712539673
1759162724503931600,10.330931640625,0.1626528650522232,-0.6296936869621277,-0.5626453757286072
1759162724513989400,10.3409892578125,0.06901825964450836,-0.625792384147644,-0.5356441140174866
1759162724524046300,10.35104638671875,-0.01886012963950634,-0.5609115958213806,-0.4987093508243561
1759162724534103300,10.361103271484374,-0.005848456174135208,-0.448252409696579,-0.4418122470378876
1759162724544160300,10.37116015625,0.062492676079273224,-0.2672809958457947,-0.3711887001991272
1759162724554217200,10.38121728515625,0.13553999364376068,-0.04967248812317848,-0.2939354479312897
1759162724564274400,10.3912744140625,0.17826013267040253,0.15747934579849243,-0.19586503505706787
1759162724574332400,10.40133251953125,0.16411662101745605,0.28670603036880493,-0.0854349285364151
1759162724584389400,10.411389404296875,0.12729932367801666,0.3377506136894226,0.020260920748114586
1759162724594446300,10.4214462890625,0.12513311207294464,0.3606380820274353,0.09180621057748795
1759162724604503300,10.43150341796875,0.14315643906593323,0.37098902463912964,0.12003552168607712
1759162724614560300,10.441560302734375,0.1590091735124588,0.3770298659801483,0.10236997157335281
1759162724624617200,10.4516171875,0.16721078753471375,0.36269906163215637,0.05614542216062546
1759162724634675500,10.461675537109375,0.1520715057849884,0.2929213047027588,0.005482777953147888
1759162724644732400,10.471732421875,0.18673434853553772,0.22747476398944855,-0.028237536549568176
1759162724654789400,10.481789306640625,0.17802660167217255,0.13848631083965302,-0.040683288127183914
1759162724664846300,10.491846435546876,0.12047825753688812,0.03571254387497902,-0.05088910833001137
1759162724674903300,10.5019033203125,0.04200821369886398,-0.028625166043639183,-0.06262192875146866
1759162724684960300,10.511960205078125,-0.02565023861825466,-0.038851745426654816,-0.07727000117301941
1759162724695018500,10.5220185546875,-0.01552969217300415,0.016861317679286003,-0.10248321294784546
1759162724705075500,10.532075439453125,0.019303563982248306,0.09197136759757996,-0.12111766636371613
1759162724715132400,10.54213232421875,0.03906821459531784,0.1603112816810608,-0.11970725655555725
1759162724725189400,10.552189453125,0.036484990268945694,0.216353178024292,-0.09080687165260315
1759162724735246300,10.562246337890626,0.033422622829675674,0.2706766128540039,-0.03364904597401619
1759162724745303300,10.57230322265625,0.04550671577453613,0.31507256627082825,0.024988435208797455
1759162724755361300,10.582361328125,0.08708878606557846,0.3444994390010834,0.06712470203638077
1759162724765418500,10.59241845703125,0.11832424998283386,0.3451363742351532,0.09483462572097778
1759162724775475500,10.602475341796875,0.07459594309329987,0.2877761423587799,0.10838212817907333
1759162724785532400,10.612532470703124,0.029237138107419014,0.21578499674797058,0.09717244654893875
1759162724795589400,10.62258935546875,0.04107941687107086,0.1804501712322235,0.055133383721113205
1759162724805646300,10.632646240234376,0.08612753450870514,0.14938507974147797,0.011912524700164795
1759162724815703300,10.642703369140625,0.11624495685100555,0.12185199558734894,-0.024910204112529755
1759162724825761300,10.65276123046875,0.12729385495185852,0.09332701563835144,-0.05713874474167824
1759162724835818500,10.662818603515625,0.12147776782512665,0.042190857231616974,-0.07878038287162781
1759162724845875500,10.67287548828125,0.11693793535232544,-0.006034227088093758,-0.07876303791999817
1759162724855932400,10.682932373046874,0.10759290307760239,-0.02643883414566517,-0.06341870129108429
1759162724865989400,10.6929892578125,0.09682416915893555,-0.016527380794286728,-0.04452494531869888
1759162724876046300,10.70304638671875,0.09570857137441635,0.01962103508412838,-0.02180471643805504
1759162724886104300,10.713104248046875,0.08654278516769409,0.0711400955915451,-0.0076161534525454044
1759162724896161300,10.723161376953126,0.0627967119216919,0.10890159010887146,0.0013637598603963852
1759162724906218500,10.733218505859375,0.0333741158246994,0.11640258133411407,0.0069149998016655445
1759162724916275500,10.743275390625,0.031232137233018875,0.10840537399053574,0.004686732776463032
1759162724926332400,10.75333251953125,0.028392883017659187,0.07541140913963318,-0.0016945172101259232
1759162724936389400,10.763389404296875,0.03056309185922146,0.03336915373802185,-0.0011285953223705292
1759162724946446300,10.7734462890625,0.03871258720755577,-0.004149477928876877,0.004690004512667656
1759162724956504300,10.78350439453125,0.03888143226504326,-0.025729872286319733,0.017196740955114365
1759162724966561300,10.793561279296876,0.0459965243935585,-0.007869272492825985,0.029380377382040024
1759162724976618500,10.803618408203125,0.02101421169936657,0.0021024015732109547,0.047250453382730484
1759162724986675500,10.813675537109376,0.0013460642658174038,0.008916093967854977,0.06614112854003906
1759162724996732400,10.823732421875,-0.01707928255200386,-0.020607976242899895,0.08058451116085052
1759162725006789400,10.833789306640625,-0.0454150028526783,-0.09658749401569366,0.07462438195943832
1759162725016846300,10.843846435546874,-0.05957582965493202,-0.18183207511901855,0.05220669135451317
1759162725026904300,10.853904296875,-0.038038771599531174,-0.24832409620285034,0.012333684600889683
1759162725036961300,10.863961181640626,-0.010840173810720444,-0.27441057562828064,-0.03537498041987419
1759162725047018500,10.8740185546875,0.002040660008788109,-0.25655677914619446,-0.06871805340051651
1759162725057075500,10.884075439453126,0.03556958958506584,-0.17467361688613892,-0.08135022968053818
1759162725067132400,10.89413232421875,0.06303177773952484,-0.0633348822593689,-0.06761404871940613
1759162725077189400,10.904189453125,0.07116933166980743,0.04572635889053345,-0.03283369913697243
1759162725087246300,10.914246337890624,0.062431450933218,0.1171102374792099,0.0027025844901800156
1759162725097304300,10.92430419921875,0.034876253455877304,0.13614916801452637,0.025884337723255157
1759162725107361300,10.934361328125,0.01850515604019165,0.1097417101264,0.0246615968644619
1759162725117418200,10.944418212890625,0.02657187171280384,0.0743751972913742,0.002233518287539482
1759162725127475200,10.95447509765625,0.03419475629925728,0.05067703500390053,-0.02349618449807167
1759162725137532200,10.9645322265625,0.03551595285534859,0.030603459104895592,-0.040860794484615326
1759162725147589000,10.974589111328125,0.02348199114203453,0.014057401567697525,-0.04229708015918732
1759162725157646000,10.98464599609375,0.0022528693079948425,-0.004893119912594557,-0.03496992588043213
1759162725167704300,10.994704345703125,-0.02044813334941864,-0.024487119168043137,-0.025312483310699463
1759162725177761300,11.00476123046875,-0.008010106161236763,-0.043073587119579315,-0.011922376230359077
1759162725187818200,11.014818359375,0.036717891693115234,-0.057527508586645126,0.0023222765885293484
1759162725197875200,11.024875244140626,0.08387449383735657,-0.04074426740407944,0.008805742487311363
1759162725207932200,11.03493212890625,0.08836912363767624,-0.0032741031609475613,0.016742121428251266
1759162725217989000,11.044989013671875,0.055589865893125534,0.014549101702868938,0.03367529809474945
1759162725228046000,11.055046142578124,0.010222852230072021,0.007228909991681576,0.05434470996260643
1759162725238104300,11.065104248046875,-0.0275716632604599,0.0002863153931684792,0.055643800646066666
1759162725248161300,11.075161376953124,-0.03823576867580414,-0.00042663695057854056,0.040157731622457504
1759162725258218200,11.08521826171875,-0.02493993565440178,0.00003222571103833616,0.018372541293501854
1759162725268275200,11.095275146484376,-0.012542355805635452,-0.009973141364753246,0.0029987087473273277
1759162725278332200,11.105332275390625,-0.0070059094578027725,-0.02446180209517479,-0.009195640683174133
1759162725288389000,11.11538916015625,-0.0009452244266867638,-0.03295116871595383,-0.017609311267733574
1759162725298446000,11.125446044921874,-0.003199057886376977,-0.029917296022176743,-0.024296773597598076
1759162725308504300,11.13550439453125,-0.014398818835616112,-0.036462970077991486,-0.034322820603847504
1759162725318561300,11.145561279296874,-0.027228597551584244,-0.04257359355688095,-0.04761599004268646
1759162725328618200,11.1556181640625,-0.027051866054534912,0.03406723961234093,-0.0400068461894989
1759162725338675200,11.16567529296875,-0.0012628789991140366,0.16661807894706726,-0.011564020067453384
1759162725348732200,11.175732177734375,0.02022799476981163,0.2728405296802521,0.01056198962032795
1759162725358789000,11.1857890625,0.036569684743881226,0.27210551500320435,-0.003720276989042759
1759162725368846000,11.19584619140625,0.04631944000720978,0.18149115145206451,-0.04118017107248306
1759162725378903000,11.205903076171875,0.05105001479387283,0.06219590827822685,-0.07758665084838867
1759162725388961300,11.215961181640624,0.0715813934803009,-0.0068707591854035854,-0.09980443865060806
1759162725399018200,11.226018310546875,0.08975427597761154,-0.0219517070800066,-0.08711767196655273
