time,seconds_elapsed,z,y,x
1759335052782518300,0.063518310546875,8.174973487854004,-3.749993324279785,3.90867280960083
1759335052792518400,0.073518310546875,8.123001098632812,-3.7822141647338867,3.98523211479187
1759335052822518300,0.103518310546875,7.96321439743042,-3.879323959350586,4.208134651184082
1759335052832518400,0.113518310546875,7.908600807189941,-3.9119045734405518,4.280344486236572
1759335052842518300,0.123518310546875,7.870745658874512,-3.9003913402557373,4.359893321990967
1759335052852519200,0.133519287109375,7.829311847686768,-3.8879642486572266,4.444766044616699
1759335052882519000,0.16351904296875,7.744280815124512,-3.9197921752929688,4.564176082611084
1759335052892519200,0.173519287109375,7.745100498199463,-3.953603744506836,4.533514022827148
1759335052902519000,0.18351904296875,7.754237174987793,-3.984113931655884,4.49099063873291
1759335052912519200,0.193519287109375,7.767261028289795,-4.009936332702637,4.445263862609863
1759335052922519300,0.203519287109375,7.779296875,-4.028007507324219,4.407726764678955
1759335052932519200,0.213519287109375,7.791343688964844,-4.037295818328857,4.377843379974365
1759335052942519300,0.223519287109375,7.800687789916992,-4.0418267250061035,4.356975555419922
1759335052952518400,0.233518310546875,7.805891513824463,-4.043009281158447,4.3465495109558105
1759335052962518300,0.243518310546875,7.806690216064453,-4.041919231414795,4.346125602722168
1759335052972518400,0.253518310546875,7.8022332191467285,-4.042152404785156,4.353908061981201
1759335052982518300,0.263518310546875,7.790131568908691,-4.044403553009033,4.373440265655518
1759335052992518400,0.273518310546875,7.764556407928467,-4.049107551574707,4.414374351501465
1759335053002518300,0.283518310546875,7.734043121337891,-4.053202152252197,4.463906764984131
1759335053012518000,0.293517822265625,7.700263500213623,-4.05699348449707,4.518526077270508
1759335053022517800,0.303517822265625,7.662309169769287,-4.059245586395264,4.580599308013916
1759335053032518000,0.313517822265625,7.624603748321533,-4.051002502441406,4.650278568267822
1759335053042517800,0.323517822265625,7.585241317749023,-4.032604694366455,4.7299604415893555
1759335053052518700,0.3335185546875,7.534712791442871,-4.008485794067383,4.830160617828369
1759335053062518800,0.343518798828125,7.4814043045043945,-3.9805684089660645,4.934977054595947
1759335053072518700,0.3535185546875,7.430049419403076,-3.9579720497131348,5.029827117919922
1759335053082519000,0.36351904296875,7.380334377288818,-3.9451377391815186,5.112423896789551
1759335053092519200,0.373519287109375,7.34128999710083,-3.9395833015441895,5.1725687980651855
1759335053102519000,0.38351904296875,7.303138732910156,-3.9359707832336426,5.2290120124816895
1759335053112519200,0.393519287109375,7.261870384216309,-3.9285471439361572,5.291697978973389
1759335053122519000,0.40351904296875,7.208961009979248,-3.9161481857299805,5.372616291046143
1759335053132519200,0.413519287109375,7.133511066436768,-3.897026300430298,5.486025810241699
1759335053142519000,0.42351904296875,7.021492958068848,-3.8707778453826904,5.646768569946289
1759335053152518100,0.43351806640625,6.859169960021973,-3.8422605991363525,5.861666202545166
1759335053162518300,0.443518310546875,6.643551349639893,-3.8156330585479736,6.121636390686035
1759335053172518100,0.45351806640625,6.373126983642578,-3.7963452339172363,6.414145469665527
1759335053182518300,0.463518310546875,6.049827575683594,-3.7892398834228516,6.723947525024414
1759335053192518100,0.47351806640625,5.680039882659912,-3.7959351539611816,7.035499572753906
1759335053202518300,0.483518310546875,5.2728471755981445,-3.819345474243164,7.333477020263672
1759335053212518100,0.49351806640625,4.840875625610352,-3.865034818649292,7.602476119995117
1759335053222518300,0.503518310546875,4.3961920738220215,-3.9351656436920166,7.833148002624512
1759335053232518100,0.51351806640625,3.940544366836548,-4.022192001342773,8.028959274291992
1759335053242518300,0.523518310546875,3.4819278717041016,-4.114154815673828,8.1926908493042
1759335053252519000,0.533518798828125,3.0402538776397705,-4.1961669921875,8.325818061828613
1759335053262519000,0.54351904296875,2.6370887756347656,-4.2569732666015625,8.431737899780273
1759335053272519000,0.553518798828125,2.28696870803833,-4.297379493713379,8.513076782226562
1759335053282519000,0.56351904296875,1.9896955490112305,-4.321404457092285,8.57535457611084
1759335053292519000,0.573518798828125,1.7513872385025024,-4.329394340515137,8.623177528381348
1759335053302519000,0.58351904296875,1.5802987813949585,-4.323785781860352,8.658965110778809
1759335053312518100,0.59351806640625,1.4569587707519531,-4.314774990081787,8.685037612915039
1759335053322518300,0.603518310546875,1.367875337600708,-4.3179826736450195,8.697927474975586
1759335053332518100,0.61351806640625,1.3144681453704834,-4.329351425170898,8.70051383972168
1759335053342518300,0.623518310546875,1.2719582319259644,-4.322436332702637,8.710274696350098
1759335053352517400,0.633517333984375,1.2089800834655762,-4.306640625,8.727055549621582
1759335053362517200,0.643517333984375,1.124916434288025,-4.2836785316467285,8.749558448791504
1759335053372517400,0.653517333984375,1.0324649810791016,-4.254646301269531,8.7750825881958
1759335053382517200,0.663517333984375,0.9487410187721252,-4.219358444213867,8.801531791687012
1759335053392517400,0.673517333984375,0.8669605255126953,-4.17759895324707,8.829848289489746
1759335053402517200,0.683517333984375,0.7790794372558594,-4.129477500915527,8.860610961914062
1759335053412517400,0.693517333984375,0.690300464630127,-4.07858943939209,8.891486167907715
1759335053422517200,0.703517333984375,0.6103051900863647,-4.027695655822754,8.920504570007324
1759335053432517400,0.713517333984375,0.5425193309783936,-3.9738657474517822,8.948970794677734
1759335053442517200,0.723517333984375,0.4832289218902588,-3.9174845218658447,8.977194786071777
1759335053452518100,0.73351806640625,0.4441577196121216,-3.862316131591797,9.003077507019043
1759335053462518300,0.743518310546875,0.4182388484477997,-3.817594051361084,9.023365020751953
1759335053472518100,0.75351806640625,0.41091597080230713,-3.78472638130188,9.037542343139648
1759335053482518300,0.763518310546875,0.43480655550956726,-3.756239175796509,9.04828929901123
1759335053492518100,0.77351806640625,0.4777502119541168,-3.721330404281616,9.060552597045898
1759335053502518300,0.783518310546875,0.5228589177131653,-3.6838743686676025,9.073351860046387
1759335053512518700,0.7935185546875,0.5623971819877625,-3.6456527709960938,9.086427688598633
1759335053522518500,0.8035185546875,0.5821201205253601,-3.6133766174316406,9.098064422607422
1759335053532518700,0.8135185546875,0.5863385796546936,-3.5837795734405518,9.109491348266602
1759335053542518500,0.8235185546875,0.5801058411598206,-3.5384459495544434,9.12758731842041
1759335053552517600,0.833517578125,0.5768424272537231,-3.474827766418457,9.152207374572754
1759335053562517800,0.843517822265625,0.5956307649612427,-3.3727104663848877,9.189135551452637
1759335053572517600,0.853517578125,0.6066367030143738,-3.265960216522217,9.226899147033691
1759335053582517800,0.863517822265625,0.6026274561882019,-3.159778118133545,9.26406192779541
1759335053592517600,0.873517578125,0.5790519714355469,-3.059839963912964,9.299049377441406
1759335053602517800,0.883517822265625,0.5479349493980408,-2.985018491744995,9.325212478637695
1759335053612518700,0.8935185546875,0.5321943163871765,-2.931643009185791,9.343036651611328
1759335053622518500,0.9035185546875,0.5330103039741516,-2.8849711418151855,9.357504844665527
1759335053632518700,0.9135185546875,0.5441319942474365,-2.833761692047119,9.372504234313965
1759335053642518500,0.9235185546875,0.5607675313949585,-2.7731120586395264,9.38964557647705
1759335053652519400,0.93351953125,0.5787935853004456,-2.7100791931152344,9.406935691833496
1759335053662519600,0.94351953125,0.5905290246009827,-2.647930860519409,9.423894882202148
1759335053672519400,0.95351953125,0.5852104425430298,-2.602518081665039,9.436877250671387
1759335053682519600,0.96351953125,0.5511643886566162,-2.5892493724823,9.442560195922852
1759335053692519400,0.97351953125,0.5072141885757446,-2.5882372856140137,9.445313453674316
1759335053702519600,0.98351953125,0.4645318388938904,-2.5941660404205322,9.445886611938477
1759335053712519400,0.99351953125,0.41423606872558594,-2.592437744140625,9.44869327545166
1759335053722519600,1.00351953125,0.3409639000892639,-2.5798068046569824,9.455076217651367
1759335053732519400,1.01351953125,0.25716859102249146,-2.5700721740722656,9.460373878479004
1759335053742519600,1.02351953125,0.17371347546577454,-2.578871488571167,9.459890365600586
1759335053752518700,1.0335185546875,0.10485212504863739,-2.605273723602295,9.45366382598877
1759335053762518500,1.0435185546875,0.04288812354207039,-2.638446569442749,9.444947242736816
1759335053772518700,1.0535185546875,-0.029436523094773293,-2.6662638187408447,9.43718433380127
1759335053782518500,1.0635185546875,-0.10108663141727448,-2.681089162826538,9.432479858398438
1759335053792518700,1.0735185546875,-0.15873919427394867,-2.684900999069214,9.430590629577637
1759335053802518500,1.0835185546875,-0.22904899716377258,-2.678654432296753,9.430937767028809
1759335053812518100,1.09351806640625,-0.30239245295524597,-2.661921977996826,9.433603286743164
1759335053822518000,1.10351806640625,-0.3651292026042938,-2.6441361904144287,9.436380386352539
1759335053832518100,1.11351806640625,-0.41410747170448303,-2.6267311573028564,9.43922233581543
1759335053842518000,1.12351806640625,-0.44586220383644104,-2.60982346534729,9.442461013793945
1759335053852519000,1.133518798828125,-0.4586053490638733,-2.5995068550109863,9.444700241088867
1759335053862519000,1.14351904296875,-0.45744332671165466,-2.604525566101074,9.44337272644043
1759335053872519000,1.153518798828125,-0.44924014806747437,-2.6097166538238525,9.442326545715332
1759335053882519000,1.16351904296875,-0.422954797744751,-2.616441488265991,9.441685676574707
1759335053892519000,1.173518798828125,-0.39116671681404114,-2.6271839141845703,9.4400634765625
1759335053902519000,1.18351904296875,-0.3727022707462311,-2.6447691917419434,9.435911178588867
1759335053912519000,1.193518798828125,-0.42305824160575867,-2.67529296875,9.425175666809082
1759335053922519000,1.20351904296875,-0.5106447339057922,-2.726956367492676,9.40601634979248
1759335053932519000,1.213518798828125,-0.6178735494613647,-2.799480438232422,9.378219604492188
1759335053942519000,1.22351904296875,-0.7295891046524048,-2.8797922134399414,9.345832824707031
1759335053952518100,1.23351806640625,-0.8356032967567444,-2.937807083129883,9.318857192993164
1759335053962518300,1.243518310546875,-0.9413871169090271,-2.9598147869110107,9.301791191101074
1759335053972518000,1.253517822265625,-1.048606038093567,-2.9675145149230957,9.28786849975586
1759335053982518000,1.26351806640625,-1.111472487449646,-2.9923055171966553,9.272579193115234
1759335053992518000,1.273517822265625,-1.088301420211792,-3.0534090995788574,9.255393028259277
1759335054002518000,1.28351806640625,-0.9909347295761108,-3.1518640518188477,9.233314514160156
1759335054012518000,1.293517822265625,-0.8281570672988892,-3.298917770385742,9.19788646697998
1759335054022518000,1.30351806640625,-0.5932850241661072,-3.527928590774536,9.130812644958496
1759335054032518000,1.313517822265625,-0.3287281095981598,-3.7965450286865234,9.035938262939453
1759335054042518000,1.32351806640625,-0.09828267991542816,-4.086623668670654,8.914018630981445
1759335054052519000,1.333518798828125,0.04092530161142349,-4.377401351928711,8.775345802307129
1759335054062518800,1.343518798828125,0.08996668457984924,-4.650904655456543,8.633139610290527
1759335054072519000,1.353518798828125,0.09242051094770432,-4.902278900146484,8.492904663085938
1759335054082518800,1.363518798828125,0.07197101414203644,-5.149126052856445,8.345755577087402
1759335054092519000,1.373518798828125,0.0647866502404213,-5.36683464050293,8.207489967346191
1759335054102518800,1.383518798828125,0.07013736665248871,-5.540650367736816,8.091130256652832
1759335054112519000,1.393518798828125,0.09342939406633377,-5.682446479797363,7.991950988769531
1759335054122518800,1.403518798828125,0.1433832198381424,-5.814493179321289,7.895632743835449
1759335054132519000,1.413518798828125,0.21765081584453583,-5.938791751861572,7.800861358642578
1759335054142518800,1.423518798828125,0.3013525903224945,-6.049356460571289,7.712630271911621
1759335054152518000,1.433517822265625,0.3740905225276947,-6.156198501586914,7.62438440322876
1759335054162518000,1.44351806640625,0.4196639358997345,-6.271851062774658,7.527123928070068
1759335054172518000,1.453517822265625,0.43196576833724976,-6.394261360168457,7.422720909118652
1759335054182518000,1.46351806640625,0.4196428954601288,-6.527390003204346,7.306634902954102
1759335054201818600,1.482818603515625,0.3861497938632965,-6.797323226928711,7.058135986328125
1759335054211818500,1.492818603515625,0.36943480372428894,-6.911584377288818,6.947188377380371
1759335054221818600,1.502818603515625,0.3793739974498749,-7.00929069519043,6.848066806793213
1759335054231818500,1.512818603515625,0.41878363490104675,-7.082638263702393,6.7698588371276855
1759335054241818600,1.522818603515625,0.48095396161079407,-7.134897708892822,6.710596561431885
1759335054251819500,1.532819580078125,0.5738391876220703,-7.165709495544434,6.670339107513428
1759335054261819400,1.5428193359375,0.6719921231269836,-7.173306465148926,6.65297794342041
1759335054271819800,1.55281982421875,0.759797215461731,-7.149565696716309,6.669071197509766
1759335054281819600,1.562819580078125,0.8390034437179565,-7.09637975692749,6.716220855712891
1759335054291819800,1.57281982421875,0.935797929763794,-7.020186424255371,6.783168315887451
1759335054301819600,1.582819580078125,1.0462229251861572,-6.930859565734863,6.858473300933838
1759335054311818800,1.59281884765625,1.1740888357162476,-6.834035873413086,6.934515476226807
1759335054321819000,1.60281884765625,1.3174550533294678,-6.731665134429932,7.008490085601807
1759335054331818800,1.61281884765625,1.4539204835891724,-6.620131492614746,7.087327480316162
1759335054341819000,1.62281884765625,1.5683283805847168,-6.494147777557373,7.17889928817749
1759335054351818000,1.63281787109375,1.6754554510116577,-6.346779823303223,7.285700798034668
1759335054361817900,1.64281787109375,1.792984127998352,-6.175283432006836,7.4041361808776855
1759335054371818000,1.65281787109375,1.8933604955673218,-5.953579902648926,7.559110641479492
1759335054381817900,1.66281787109375,1.9657267332077026,-5.705525875091553,7.73001766204834
1759335054391818000,1.67281787109375,1.9887468814849854,-5.479137420654297,7.886323928833008
1759335054401817900,1.68281787109375,1.9896949529647827,-5.315395355224609,7.997363090515137
1759335054411818000,1.69281787109375,1.9769278764724731,-5.182845592498779,8.087019920349121
1759335054421817900,1.70281787109375,1.9353537559509277,-5.046952247619629,8.182478904724121
1759335054431818000,1.71281787109375,1.8721126317977905,-4.905416011810303,8.282645225524902
1759335054441817900,1.72281787109375,1.8091028928756714,-4.774377346038818,8.372723579406738
1759335054451818800,1.73281884765625,1.766028881072998,-4.671316146850586,8.439790725708008
1759335054461819000,1.74281884765625,1.7544810771942139,-4.582371234893799,8.49080753326416
1759335054471818800,1.75281884765625,1.7591642141342163,-4.493393898010254,8.53725814819336
1759335054481819000,1.76281884765625,1.7681009769439697,-4.402228355407715,8.582794189453125
1759335054491818800,1.77281884765625,1.781165599822998,-4.312202453613281,8.625686645507812
1759335054501819000,1.78281884765625,1.8016624450683594,-4.225460529327393,8.66426944732666
1759335054511818000,1.79281787109375,1.8232921361923218,-4.135440349578857,8.703093528747559
1759335054521817900,1.80281787109375,1.8316806554794312,-4.0320611000061035,8.749715805053711
1759335054531818000,1.81281787109375,1.8092180490493774,-3.912849187850952,8.808311462402344
1759335054541817900,1.82281787109375,1.76552152633667,-3.779292345046997,8.87525463104248
1759335054551817000,1.83281689453125,1.735021710395813,-3.65779185295105,8.931981086730957
1759335054561817000,1.842817138671875,1.7265830039978027,-3.5492472648620605,8.977298736572266
1759335054571817000,1.85281689453125,1.736775279045105,-3.450917959213257,9.013603210449219
1759335054581817000,1.862817138671875,1.7531658411026,-3.3522324562072754,9.047609329223633
1759335054591817000,1.87281689453125,1.7558354139328003,-3.2359938621520996,9.089301109313965
1759335054601817000,1.882817138671875,1.7467098236083984,-3.109604597091675,9.135071754455566
1759335054611818000,1.89281787109375,1.7427479028701782,-2.9853456020355225,9.177183151245117
1759335054621817900,1.90281787109375,1.715758204460144,-2.868511199951172,9.219441413879395
1759335054631818000,1.91281787109375,1.6511585712432861,-2.7664883136749268,9.262303352355957
1759335054641817900,1.92281787109375,1.5652228593826294,-2.6901485919952393,9.299647331237793
1759335054651818800,1.93281884765625,1.4804362058639526,-2.6384148597717285,9.328292846679688
1759335054661819000,1.94281884765625,1.4105764627456665,-2.599372148513794,9.350058555603027
1759335054671818800,1.95281884765625,1.3749457597732544,-2.5749385356903076,9.362122535705566
1759335054681819000,1.96281884765625,1.388053059577942,-2.565236806869507,9.362849235534668
1759335054691818800,1.97281884765625,1.4346662759780884,-2.5636074542999268,9.356277465820312
1759335054701819000,1.98281884765625,1.4856798648834229,-2.5653579235076904,9.347816467285156
1759335054711818800,1.99281884765625,1.5239344835281372,-2.5696640014648438,9.340487480163574
1759335054721819000,2.00281884765625,1.5405887365341187,-2.5726466178894043,9.336922645568848
1759335054731818800,2.01281884765625,1.525815486907959,-2.5839223861694336,9.336240768432617
1759335054741819000,2.02281884765625,1.4900094270706177,-2.604907989501953,9.336193084716797
1759335054751818000,2.03281787109375,1.443145990371704,-2.634625196456909,9.335216522216797
1759335054761818000,2.042818115234375,1.4072352647781372,-2.682796001434326,9.32697582244873
1759335054771818000,2.05281787109375,1.373387336730957,-2.758295774459839,9.309983253479004
1759335054781818000,2.062818115234375,1.3347902297973633,-2.8604557514190674,9.28472900390625
1759335054791818000,2.07281787109375,1.3182085752487183,-3.010110378265381,9.239679336547852
1759335054801818000,2.082818115234375,1.3065333366394043,-3.2033743858337402,9.176145553588867
1759335054811818800,2.09281884765625,1.2925527095794678,-3.4276556968688965,9.096738815307617
1759335054821819000,2.10281884765625,1.2819324731826782,-3.6748974323272705,9.001214981079102
1759335054831818800,2.11281884765625,1.2885738611221313,-3.924882173538208,8.894089698791504
1759335054841819000,2.12281884765625,1.2800848484039307,-4.166486740112305,8.784745216369629
1759335054851819800,2.13281982421875,1.2393641471862793,-4.394478797912598,8.67886734008789
1759335054861819600,2.142819580078125,1.19202721118927,-4.586219310760498,8.585795402526855
1759335054871819800,2.15281982421875,1.1345967054367065,-4.744167804718018,8.507393836975098
1759335054881819600,2.162819580078125,1.0580425262451172,-4.845733165740967,8.459878921508789
1759335054891819800,2.17281982421875,0.9883657693862915,-4.905726432800293,8.433685302734375
1759335054901819600,2.182819580078125,0.9498112797737122,-4.945253849029541,8.415011405944824
1759335054911819800,2.19281982421875,0.9430840015411377,-4.983708381652832,8.393050193786621
1759335054921819600,2.202819580078125,0.9725760221481323,-5.029090881347656,8.36256217956543
1759335054931819800,2.21281982421875,1.0398492813110352,-5.076896667480469,8.325498580932617
1759335054941820000,2.22281982421875,1.127912163734436,-5.109132766723633,8.294252395629883
1759335054951819000,2.232819091796875,1.2102315425872803,-5.127845764160156,8.271075248718262
1759335054961819000,2.24281884765625,1.2757564783096313,-5.135796546936035,8.256284713745117
1759335054971819000,2.252819091796875,1.3137404918670654,-5.136744499206543,8.24973201751709
1759335054981819000,2.26281884765625,1.311740756034851,-5.132436752319336,8.25271987915039
1759335054991819000,2.272819091796875,1.2447160482406616,-5.1245551109313965,8.26799488067627
1759335055001819000,2.28281884765625,1.1258978843688965,-5.118832588195801,8.288554191589355
1759335055011819000,2.292819091796875,1.0031261444091797,-5.121379852294922,8.302725791931152
1759335055021819000,2.30281884765625,0.8982043862342834,-5.13879919052124,8.30397891998291
1759335055031819000,2.312819091796875,0.8138421177864075,-5.169510364532471,8.293601036071777
1759335055041819000,2.32281884765625,0.7427619099617004,-5.211849212646484,8.27375316619873
1759335055051819800,2.33281982421875,0.6388344764709473,-5.27886438369751,8.239879608154297
1759335055061819600,2.342819580078125,0.525507390499115,-5.360586166381836,8.194990158081055
1759335055071819800,2.35281982421875,0.40802961587905884,-5.441751480102539,8.148075103759766
1759335055081819600,2.362819580078125,0.31085050106048584,-5.514436721801758,8.103363037109375
1759335055091819800,2.37281982421875,0.2184913605451584,-5.579767227172852,8.061554908752441
1759335055101819600,2.382819580078125,0.1191372498869896,-5.633343696594238,8.026283264160156
1759335055111819800,2.39281982421875,0.046946462243795395,-5.681368350982666,7.993122100830078
1759335055121819600,2.402819580078125,0.02523965574800968,-5.729260444641113,7.958963394165039
1759335055131819800,2.41281982421875,0.047069795429706573,-5.771457195281982,7.928312301635742
1759335055141819600,2.422819580078125,0.1069844588637352,-5.804074287414551,7.903885364532471
1759335055151818800,2.43281884765625,0.21351532638072968,-5.8140459060668945,7.894374847412109
1759335055161819000,2.44281884765625,0.3458908200263977,-5.786988735198975,7.909560203552246
1759335055171818800,2.45281884765625,0.44288697838783264,-5.741786479949951,7.937620162963867
1759335055181819000,2.46281884765625,0.49423256516456604,-5.704558372497559,7.961395740509033
1759335055191818800,2.47281884765625,0.48254504799842834,-5.679466247558594,7.980036735534668
1759335055201819000,2.48281884765625,0.4007096290588379,-5.659563064575195,7.998672962188721
1759335055211818800,2.49281884765625,0.27513739466667175,-5.639545440673828,8.018095970153809
1759335055221819000,2.50281884765625,0.17927111685276031,-5.634969234466553,8.024042129516602
1759335055231818800,2.51281884765625,0.17184826731681824,-5.649064540863037,8.014275550842285
1759335055241819000,2.52281884765625,0.25928398966789246,-5.654455661773682,8.008131980895996
1759335055251819800,2.53281982421875,0.4179471731185913,-5.6288161277771,8.019468307495117
1759335055261819600,2.542819580078125,0.6332908868789673,-5.5560078620910645,8.056036949157715
1759335055271819800,2.55281982421875,0.8598264455795288,-5.433106422424316,8.118613243103027
1759335055281819600,2.562819580078125,1.0032225847244263,-5.263268947601318,8.21349811553955
1759335055291819800,2.57281982421875,1.0922516584396362,-5.084094524383545,8.314382553100586
1759335055301819600,2.582819580078125,1.1476759910583496,-4.916991233825684,8.40690803527832
1759335055311819800,2.59281982421875,1.2338556051254272,-4.7827253341674805,8.471916198730469
1759335055321819600,2.602819580078125,1.3591771125793457,-4.698330402374268,8.49990463256836
1759335055331819800,2.61281982421875,1.5324095487594604,-4.641386032104492,8.50173282623291
1759335055341819600,2.622819580078125,1.7372791767120361,-4.603654861450195,8.482823371887207
1759335055351818800,2.63281884765625,1.9564012289047241,-4.576959133148193,8.449502944946289
1759335055361819000,2.64281884765625,2.1645114421844482,-4.550998210906982,8.412687301635742
1759335055371818800,2.65281884765625,2.360421657562256,-4.49531888961792,8.389911651611328
1759335055381819000,2.66281884765625,2.509596824645996,-4.414515495300293,8.389522552490234
1759335055391818800,2.67281884765625,2.5723564624786377,-4.321298599243164,8.41900634765625
1759335055401819000,2.68281884765625,2.596217632293701,-4.227044582366943,8.459416389465332
1759335055411818800,2.69281884765625,2.599370002746582,-4.127532482147217,8.507465362548828
1759335055421819000,2.70281884765625,2.587692975997925,-4.034372329711914,8.555564880371094
1759335055431818800,2.71281884765625,2.547398567199707,-3.966085195541382,8.5994873046875
1759335055441819000,2.72281884765625,2.5469460487365723,-3.9249322414398193,8.618476867675781
1759335055451819800,2.73281982421875,2.562969446182251,-3.9166736602783203,8.617485046386719
1759335055461819600,2.742819580078125,2.5903701782226562,-3.9314987659454346,8.602526664733887
1759335055471819800,2.75281982421875,2.6198365688323975,-3.9559104442596436,8.582383155822754
1759335055481819600,2.762819580078125,2.6397781372070312,-3.974592924118042,8.567642211914062
1759335055491819800,2.77281982421875,2.681032419204712,-3.9819753170013428,8.55138874053955
1759335055501819600,2.782819580078125,2.787537097930908,-3.9637482166290283,8.525752067565918
1759335055511819800,2.79281982421875,2.8821938037872314,-3.9439539909362793,8.503433227539062
1759335055521819600,2.802819580078125,2.983353614807129,-3.947659492492676,8.466752052307129
1759335055531819800,2.81281982421875,3.031606435775757,-3.988163709640503,8.430546760559082
1759335055541819600,2.822819580078125,3.0267205238342285,-4.0431294441223145,8.406075477600098
1759335055551818800,2.83281884765625,2.978060722351074,-4.100751876831055,8.395537376403809
1759335055561819000,2.84281884765625,2.9037773609161377,-4.156984329223633,8.393899917602539
1759335055571818800,2.85281884765625,2.8179752826690674,-4.212910175323486,8.395271301269531
1759335055581819000,2.86281884765625,2.732896566390991,-4.277492523193359,8.390738487243652
1759335055591818800,2.87281884765625,2.6553127765655518,-4.358056545257568,8.374170303344727
1759335055601819000,2.88281884765625,2.5789549350738525,-4.45385217666626,8.347589492797852
1759335055611818800,2.89281884765625,2.510296583175659,-4.5504069328308105,8.316390991210938
1759335055621819000,2.90281884765625,2.470926523208618,-4.652224540710449,8.271721839904785
1759335055631818800,2.91281884765625,2.410900831222534,-4.729886531829834,8.245353698730469
1759335055641819000,2.92281884765625,2.332383871078491,-4.776386737823486,8.241132736206055
1759335055651819800,2.93281982421875,2.231198310852051,-4.804986953735352,8.252507209777832
1759335055661819600,2.942819580078125,2.1332249641418457,-4.824103832244873,8.267250061035156
1759335055671819800,2.95281982421875,2.0360569953918457,-4.822356700897217,8.292733192443848
1759335055681819600,2.962819580078125,1.932059407234192,-4.804867744445801,8.327692985534668
1759335055691819800,2.97281982421875,1.7920546531677246,-4.790353775024414,8.367273330688477
1759335055701819600,2.982819580078125,1.6365584135055542,-4.805352210998535,8.390494346618652
1759335055711819800,2.99281982421875,1.476029396057129,-4.8169074058532715,8.413613319396973
1759335055721819600,3.002819580078125,1.3580951690673828,-4.816799640655518,8.433518409729004
1759335055731819800,3.01281982421875,1.2792547941207886,-4.815554618835449,8.446544647216797
1759335055741819600,3.022819580078125,1.2331138849258423,-4.787324905395508,8.469426155090332
1759335055751818800,3.03281884765625,1.2142506837844849,-4.75344181060791,8.491198539733887
1759335055761819000,3.04281884765625,1.2061457633972168,-4.7068986892700195,8.518237113952637
1759335055771818800,3.05281884765625,1.1973744630813599,-4.643442630767822,8.55423641204834
1759335055781819000,3.06281884765625,1.1958832740783691,-4.57620096206665,8.590597152709961
1759335055791818800,3.07281884765625,1.1904395818710327,-4.517244338989258,8.622501373291016
1759335055801819000,3.08281884765625,1.163874864578247,-4.464166164398193,8.653714179992676
1759335055811818800,3.09281884765625,1.112729787826538,-4.4239349365234375,8.681059837341309
1759335055821819000,3.10281884765625,1.0402672290802002,-4.402732849121094,8.700804710388184
1759335055831818800,3.11281884765625,0.9693903923034668,-4.413976669311523,8.703286170959473
1759335055841819000,3.12281884765625,0.9057944416999817,-4.464629173278809,8.684271812438965
1759335055851819800,3.13281982421875,0.8420072793960571,-4.5695881843566895,8.635967254638672
1759335055861819600,3.142819580078125,0.7720499634742737,-4.7030134201049805,8.570646286010742
1759335055871819800,3.15281982421875,0.7123328447341919,-4.877371788024902,8.477858543395996
1759335055881819600,3.162819580078125,0.6628028154373169,-5.097068786621094,8.351689338684082
1759335055891819800,3.17281982421875,0.6196943521499634,-5.360301494598389,8.18859577178955
1759335055901819600,3.182819580078125,0.611299455165863,-5.677241325378418,7.972775459289551
1759335055911819800,3.19281982421875,0.644831120967865,-6.0693359375,7.67576789855957
1759335055921819600,3.202819580078125,0.6909440755844116,-6.531166076660156,7.282603740692139
1759335055931819800,3.21281982421875,0.7325035333633423,-6.996408939361572,6.832554817199707
1759335055941819600,3.222819580078125,0.752805769443512,-7.362672805786133,6.433837890625
1759335055951818800,3.23281884765625,0.7725445032119751,-7.599215507507324,6.150201320648193
1759335055961819000,3.24281884765625,0.8008049130439758,-7.756168365478516,5.94732141494751
1759335055971818800,3.25281884765625,0.8381015062332153,-7.849376201629639,5.818497180938721
1759335055981819000,3.26281884765625,0.8786171078681946,-7.917909622192383,5.718814849853516
1759335055991818800,3.27281884765625,0.9188538193702698,-7.965728759765625,5.645621299743652
1759335056001819000,3.28281884765625,0.9424796104431152,-7.996511936187744,5.598010063171387
1759335056011818800,3.29281884765625,0.939720630645752,-8.018938064575195,5.566292762756348
1759335056021819000,3.30281884765625,0.9142828583717346,-8.033105850219727,5.550066947937012
1759335056031818800,3.31281884765625,0.8740531206130981,-8.041439056396484,5.544486999511719
1759335056041819000,3.32281884765625,0.8232301473617554,-8.043985366821289,5.54857063293457
1759335056051819800,3.33281982421875,0.7705325484275818,-8.037261009216309,5.565858840942383
1759335056061819600,3.342819580078125,0.7510673999786377,-8.0137300491333,5.60233211517334
1759335056071819800,3.35281982421875,0.7638093829154968,-7.968695640563965,5.664500713348389
1759335056081819600,3.362819580078125,0.7744611501693726,-7.888637542724609,5.774069309234619
1759335056091819800,3.37281982421875,0.7691746950149536,-7.787841320037842,5.9099931716918945
1759335056101819600,3.382819580078125,0.7723153233528137,-7.655753135681152,6.079723358154297
1759335056111819800,3.39281982421875,0.7629355192184448,-7.513749599456787,6.255523204803467
1759335056121819600,3.402819580078125,0.7456465363502502,-7.37257719039917,6.423330307006836
1759335056131819800,3.41281982421875,0.73992520570755,-7.231942176818848,6.581913471221924
1759335056141819600,3.422819580078125,0.7361205816268921,-7.11061954498291,6.713223457336426
1759335056151818800,3.43281884765625,0.7312363386154175,-7.028456211090088,6.799718856811523
1759335056161819000,3.44281884765625,0.6953460574150085,-6.991708278656006,6.8412394523620605
1759335056171818800,3.45281884765625,0.5942319631576538,-7.0047526359558105,6.837427616119385
1759335056181819000,3.46281884765625,0.4567898213863373,-7.07929801940918,6.770890235900879
1759335056191818800,3.47281884765625,0.3389817774295807,-7.223869800567627,6.623504638671875
1759335056201819000,3.48281884765625,0.2398398518562317,-7.424432277679443,6.4023637771606445
1759335056211818800,3.49281884765625,0.15679390728473663,-7.621281623840332,6.16939640045166
1759335056221819000,3.50281884765625,0.24706220626831055,-7.775003910064697,5.971443176269531
1759335056231818800,3.51281884765625,0.30372342467308044,-7.891966819763184,5.813324451446533
1759335056241819000,3.52281884765625,0.31432899832725525,-7.983035564422607,5.687024116516113
1759335056251819500,3.532819580078125,0.3075152039527893,-8.062562942504883,5.574109077453613
1759335056261819600,3.542819580078125,0.2902122139930725,-8.151533126831055,5.444113731384277
1759335056271819500,3.552819580078125,0.2445189505815506,-8.261258125305176,5.278447151184082
1759335056281819600,3.562819580078125,0.18931962549686432,-8.39009952545166,5.073523044586182
1759335056291819500,3.572819580078125,0.15427403151988983,-8.529642105102539,4.83646821975708
1759335056301819600,3.582819580078125,0.1551724374294281,-8.672567367553711,4.575207710266113
1759335056311818800,3.59281884765625,0.1975952833890915,-8.808530807495117,4.3058929443359375
1759335056321819000,3.60281884765625,0.24317105114459991,-8.930878639221191,4.043576717376709
1759335056331818800,3.61281884765625,0.28349021077156067,-9.034552574157715,3.8034911155700684
1759335056341819000,3.62281884765625,0.3177449405193329,-9.111818313598633,3.611619472503662
1759335056351818000,3.63281787109375,0.3403659462928772,-9.162717819213867,3.478332281112671
1759335056361817900,3.64281787109375,0.3638426661491394,-9.186555862426758,3.4124491214752197
1759335056371818000,3.65281787109375,0.3862982392311096,-9.191821098327637,3.395789623260498
1759335056381817900,3.66281787109375,0.3992460072040558,-9.193582534790039,3.3895041942596436
1759335056391818000,3.67281787109375,0.4037240147590637,-9.205709457397461,3.3558995723724365
1759335056401817900,3.68281787109375,0.41628187894821167,-9.23156452178955,3.282536268234253
1759335056411818000,3.69281787109375,0.44077685475349426,-9.26734447479248,3.1768078804016113
1759335056421817900,3.70281787109375,0.4698246717453003,-9.297603607177734,3.082831621170044
1759335056431818000,3.71281787109375,0.45061495900154114,-9.29319953918457,3.098942995071411
1759335056441817900,3.72281787109375,0.3917834162712097,-9.266495704650879,3.185678005218506
1759335056451818800,3.73281884765625,0.3351788818836212,-9.24235725402832,3.2613775730133057
1759335056461819000,3.74281884765625,0.310701459646225,-9.23613452911377,3.2813422679901123
1759335056471818800,3.75281884765625,0.32469138503074646,-9.241445541381836,3.2650146484375
1759335056481819000,3.76281884765625,0.36701253056526184,-9.246297836303711,3.2467188835144043
1759335056491818800,3.77281884765625,0.42091304063796997,-9.247699737548828,3.2361650466918945
1759335056501819000,3.78281884765625,0.4669014811515808,-9.2455415725708,3.2360548973083496
1759335056511818000,3.79281787109375,0.4900958836078644,-9.241786003112793,3.243349552154541
1759335056521817900,3.80281787109375,0.4854682385921478,-9.238846778869629,3.2523980140686035
1759335056531818000,3.81281787109375,0.4605295956134796,-9.237754821777344,3.259114980697632
1759335056541817900,3.82281787109375,0.43306466937065125,-9.237046241760254,3.2648839950561523
1759335056551817200,3.832817138671875,0.4159083664417267,-9.235618591308594,3.2711222171783447
1759335056561817000,3.842817138671875,0.41144731640815735,-9.233086585998535,3.278850555419922
1759335056571817200,3.852817138671875,0.4162631928920746,-9.229510307312012,3.288313865661621
1759335056581817000,3.862817138671875,0.4264291822910309,-9.224894523620605,3.299964666366577
1759335056591817200,3.872817138671875,0.4390285611152649,-9.219205856323242,3.314119577407837
1759335056601816800,3.88281689453125,0.4498024582862854,-9.21329402923584,3.329103946685791
1759335056611817700,3.892817626953125,0.4581400752067566,-9.207606315612793,3.3436834812164307
1759335056621817600,3.902817626953125,0.4654834270477295,-9.201509475708008,3.3594071865081787
1759335056631817500,3.9128173828125,0.46923312544822693,-9.195023536682129,3.376570463180542
1759335056641817600,3.922817626953125,0.4706079363822937,-9.189090728759766,3.3925158977508545
1759335056651818500,3.932818603515625,0.4700321853160858,-9.183873176574707,3.406677484512329
1759335056661818400,3.942818359375,0.47077977657318115,-9.1786470413208,3.4206533432006836
1759335056671818500,3.952818603515625,0.47657355666160583,-9.173556327819824,3.43346905708313
1759335056681818400,3.962818359375,0.4875146448612213,-9.168424606323242,3.445634365081787
1759335056691818500,3.972818603515625,0.5034434795379639,-9.163092613220215,3.457536220550537
1759335056701818400,3.982818359375,0.5221370458602905,-9.157641410827637,3.4691338539123535
1759335056711818500,3.992818603515625,0.5412783622741699,-9.15264892578125,3.4793882369995117
1759335056721818400,4.002818359375,0.5611258149147034,-9.148674964904785,3.486680507659912
1759335056731818500,4.012818603515625,0.581589937210083,-9.145774841308594,3.4909491539001465
1759335056741818400,4.022818359375,0.6013017892837524,-9.144380569458008,3.491244316101074
1759335056751817500,4.0328173828125,0.619210958480835,-9.144845008850098,3.486868143081665
1759335056761817600,4.042817626953125,0.6339893937110901,-9.146756172180176,3.479203224182129
1759335056771817500,4.0528173828125,0.6475397944450378,-9.148443222045898,3.472266435623169
1759335056781817600,4.062817626953125,0.6633861660957336,-9.14905071258545,3.4676666259765625
1759335056791817500,4.0728173828125,0.6831663846969604,-9.148459434509277,3.4654128551483154
1759335056801817600,4.082817626953125,0.706722617149353,-9.146175384521484,3.466707229614258
1759335056811818500,4.092818603515625,0.7310779094696045,-9.142314910888672,3.4718499183654785
1759335056821818400,4.102818359375,0.7532020807266235,-9.13725471496582,3.4804205894470215
1759335056831818500,4.112818603515625,0.7695072889328003,-9.131166458129883,3.492806911468506
1759335056841818400,4.122818359375,0.7798579931259155,-9.124543190002441,3.5077643394470215
1759335056851819300,4.1328193359375,0.7867793440818787,-9.117981910705566,3.5232961177825928
1759335056871819800,4.15281982421875,0.8023083209991455,-9.104161262512207,3.555375814437866
1759335056881820000,4.16281982421875,0.8163789510726929,-9.096566200256348,3.571559429168701
1759335056891819800,4.17281982421875,0.8320353627204895,-9.089109420776367,3.586897373199463
1759335056901820200,4.182820068359375,0.8494651913642883,-9.082782745361328,3.598818063735962
1759335056911820000,4.192820068359375,0.8678337931632996,-9.077939987182617,3.606642961502075
1759335056921820200,4.202820068359375,0.8888438940048218,-9.074319839477539,3.6106479167938232
1759335056931820000,4.212820068359375,0.913165807723999,-9.071967124938965,3.6104886531829834
1759335056941820200,4.222820068359375,0.9396733045578003,-9.070876121520996,3.6064376831054688
1759335056951819300,4.2328193359375,0.9677350521087646,-9.071139335632324,3.5982987880706787
1759335056961819400,4.2428193359375,0.9955927729606628,-9.07298469543457,3.5860745906829834
1759335056971819300,4.2528193359375,1.021979808807373,-9.076055526733398,3.5708227157592773
1759335056981819400,4.2628193359375,1.0462778806686401,-9.080122947692871,3.5534167289733887
1759335056991819300,4.2728193359375,1.0699001550674438,-9.085244178771973,3.5332226753234863
1759335057001819400,4.2828193359375,1.0913947820663452,-9.091060638427734,3.5116372108459473
1759335057011819300,4.2928193359375,1.1125632524490356,-9.097796440124512,3.487476348876953
1759335057021819400,4.3028193359375,1.1342244148254395,-9.105293273925781,3.460844039916992
1759335057031819000,4.312819091796875,1.158251166343689,-9.113436698913574,3.4313104152679443
1759335057041819000,4.32281884765625,1.1829378604888916,-9.122101783752441,3.399688720703125
1759335057051819800,4.33281982421875,1.2060259580612183,-9.130902290344238,3.3678090572357178
1759335057061820000,4.34281982421875,1.2270231246948242,-9.139433860778809,3.336909294128418
1759335057071819800,4.35281982421875,1.246269702911377,-9.14753246307373,3.3074915409088135
1759335057081820000,4.36281982421875,1.2661831378936768,-9.154685020446777,3.280029058456421
1759335057091819800,4.37281982421875,1.2891730070114136,-9.161262512207031,3.252582311630249
1759335057101820000,4.38281982421875,1.3159353733062744,-9.167534828186035,3.224071741104126
1759335057111819800,4.39281982421875,1.3468564748764038,-9.173517227172852,3.1941752433776855
1759335057121820000,4.40281982421875,1.377395510673523,-9.17951774597168,3.1637370586395264
1759335057131819800,4.41281982421875,1.406347393989563,-9.185461044311523,3.1336417198181152
1759335057141820000,4.42281982421875,1.4319956302642822,-9.191106796264648,3.1053085327148438
1759335057151819000,4.432819091796875,1.4539923667907715,-9.19633960723877,3.0795083045959473
1759335057161819000,4.44281884765625,1.4723504781723022,-9.201223373413086,3.0560734272003174
1759335057171818500,4.452818603515625,1.4869436025619507,-9.206212997436523,3.033952236175537
1759335057181818400,4.462818359375,1.498544692993164,-9.211246490478516,3.0128684043884277
1759335057191818500,4.472818603515625,1.508383870124817,-9.21619987487793,2.9927234649658203
1759335057201818400,4.482818359375,1.5154752731323242,-9.220843315124512,2.974794626235962
1759335057211818500,4.492818603515625,1.5194337368011475,-9.224746704101562,2.960603952407837
1759335057221818400,4.502818359375,1.5201812982559204,-9.227622032165527,2.951298236846924
1759335057231818200,4.512818359375,1.5118588209152222,-9.229333877563477,2.9502193927764893
1759335057241818400,4.522818359375,1.492160439491272,-9.231193542480469,2.954404830932617
1759335057251819300,4.5328193359375,1.4569138288497925,-9.232455253601074,2.9680662155151367
1759335057261819100,4.542819091796875,1.4055922031402588,-9.2319917678833,2.9941015243530273
1759335057271819300,4.5528193359375,1.340334415435791,-9.229727745056152,3.030808925628662
1759335057281819100,4.562819091796875,1.2627748250961304,-9.226303100585938,3.074201822280884
1759335057291819300,4.5728193359375,1.1703221797943115,-9.222137451171875,3.1229095458984375
1759335057301819100,4.582819091796875,1.0565396547317505,-9.21692180633545,3.178393840789795
1759335057311819300,4.5928193359375,0.92000412940979,-9.210319519042969,3.239400863647461
1759335057321819100,4.602819091796875,0.7639070153236389,-9.20254135131836,3.3014817237854004
1759335057331819500,4.612819580078125,0.5940530896186829,-9.194168090820312,3.359234094619751
1759335057341819600,4.622819580078125,0.4116431176662445,-9.18648624420166,3.407209634780884
1759335057351818800,4.63281884765625,0.22016660869121552,-9.177753448486328,3.448244333267212
1759335057361819000,4.64281884765625,0.016422728076577187,-9.167703628540039,3.4818177223205566
1759335057371818800,4.65281884765625,-0.2006523460149765,-9.155533790588379,3.5079941749572754
1759335057381819000,4.66281884765625,-0.4299386441707611,-9.138250350952148,3.5323619842529297
1759335057391818800,4.67281884765625,-0.667864203453064,-9.11109447479248,3.5653774738311768
1759335057401819000,4.68281884765625,-0.9068237543106079,-9.071922302246094,3.612168788909912
1759335057411818800,4.69281884765625,-1.1358891725540161,-9.022748947143555,3.670125722885132
1759335057421819000,4.70281884765625,-1.3496925830841064,-8.965971946716309,3.736236810684204
1759335057441819000,4.72281884765625,-1.7318050861358643,-8.847573280334473,3.8589205741882324
1759335057451819800,4.73281982421875,-1.9050188064575195,-8.789894104003906,3.9087841510772705
1759335057461819600,4.742819580078125,-2.077969551086426,-8.733012199401855,3.947986602783203
1759335057471819800,4.75281982421875,-2.2576093673706055,-8.674806594848633,3.9775285720825195
1759335057481819600,4.762819580078125,-2.446148633956909,-8.6154146194458,3.995112895965576
1759335057491819800,4.77281982421875,-2.637694835662842,-8.555127143859863,4.002775192260742
1759335057501819600,4.782819580078125,-2.8248510360717773,-8.490988731384277,4.011632442474365
1759335057511819800,4.79281982421875,-2.99908709526062,-8.42126178741455,4.032073497772217
1759335057521819600,4.802819580078125,-3.154491662979126,-8.347397804260254,4.0669355392456055
1759335057531819800,4.81281982421875,-3.2921857833862305,-8.271098136901855,4.113419532775879
1759335057541819600,4.822819580078125,-3.41603946685791,-8.195296287536621,4.163852691650391
1759335057551818800,4.83281884765625,-3.5313796997070312,-8.125092506408691,4.205013751983643
1759335057561819000,4.84281884765625,-3.6450135707855225,-8.063706398010254,4.226158142089844
1759335057571818800,4.85281884765625,-3.7595624923706055,-8.016395568847656,4.215775012969971
1759335057581819000,4.86281884765625,-3.8780438899993896,-7.971691608428955,4.193211555480957
1759335057591818800,4.87281884765625,-3.99186372756958,-7.927531719207764,4.170022487640381
1759335057601819000,4.88281884765625,-4.088560104370117,-7.884099006652832,4.158644676208496
1759335057611818800,4.89281884765625,-4.165316104888916,-7.84065055847168,4.164641380310059
1759335057621819000,4.90281884765625,-4.2229905128479,-7.801527500152588,4.179988861083984
1759335057631818800,4.91281884765625,-4.263908386230469,-7.769998073577881,4.197166442871094
1759335057641819000,4.92281884765625,-4.292234420776367,-7.747514724731445,4.209858417510986
1759335057651819500,4.932819580078125,-4.30999231338501,-7.73319673538208,4.217988967895508
1759335057661819600,4.942819580078125,-4.320258617401123,-7.725012302398682,4.222499847412109
1759335057671819500,4.952819580078125,-4.323789596557617,-7.721675395965576,4.224983215332031
1759335057681819600,4.962819580078125,-4.318471908569336,-7.724266529083252,4.225677013397217
1759335057691819500,4.972819580078125,-4.298122406005859,-7.738077640533447,4.221130847930908
1759335057701819600,4.982819580078125,-4.266444683074951,-7.759904861450195,4.213181018829346
1759335057711819500,4.992819580078125,-4.221074104309082,-7.788237571716309,4.2066545486450195
1759335057721819600,5.002819580078125,-4.161780834197998,-7.821878433227539,4.2032694816589355
1759335057731819500,5.012819580078125,-4.08961296081543,-7.861938953399658,4.199397563934326
1759335057741819600,5.022819580078125,-4.006682395935059,-7.907034873962402,4.194636821746826
1759335057751818800,5.03281884765625,-3.9154152870178223,-7.957176685333252,4.1860175132751465
1759335057761818600,5.042818603515625,-3.8170087337493896,-8.012252807617188,4.1718525886535645
1759335057771818800,5.05281884765625,-3.7165515422821045,-8.069244384765625,4.152665615081787
1759335057781819000,5.06281884765625,-3.6207075119018555,-8.124656677246094,4.129203796386719
1759335057791818800,5.07281884765625,-3.5380618572235107,-8.175722122192383,4.099977016448975
1759335057801818600,5.082818603515625,-3.4835546016693115,-8.216777801513672,4.064385414123535
1759335057811818800,5.09281884765625,-3.4463932514190674,-8.249610900878906,4.029394626617432
1759335057821818600,5.102818603515625,-3.4245424270629883,-8.272090911865234,4.001876354217529
1759335057831818800,5.11281884765625,-3.422150135040283,-8.277688980102539,3.9923079013824463
1759335057841818600,5.122818603515625,-3.4349639415740967,-8.264213562011719,4.00917911529541
1759335057851819500,5.132819580078125,-3.459232807159424,-8.230793952941895,4.056783199310303
1759335057861819600,5.142819580078125,-3.495621681213379,-8.182727813720703,4.1223063468933105
1759335057871819500,5.152819580078125,-3.544064998626709,-8.124956130981445,4.194576263427734
1759335057881819600,5.162819580078125,-3.5958075523376465,-8.066754341125488,4.262334823608398
1759335057891819500,5.172819580078125,-3.6392743587493896,-8.01591968536377,4.320941925048828
1759335057901819600,5.182819580078125,-3.664822578430176,-7.9748735427856445,4.374962329864502
1759335057911819800,5.19281982421875,-3.6476497650146484,-7.959244728088379,4.41758918762207
1759335057921819600,5.202819580078125,-3.5928754806518555,-7.965116024017334,4.451762676239014
1759335057931819800,5.21281982421875,-3.5085055828094482,-7.990057945251465,4.474284648895264
1759335057941819600,5.222819580078125,-3.4057741165161133,-8.026331901550293,4.488745212554932
1759335057951818800,5.23281884765625,-3.2894530296325684,-8.063790321350098,4.508286952972412
1759335057961819000,5.24281884765625,-3.170732021331787,-8.092114448547363,4.542497158050537
1759335057971818800,5.25281884765625,-3.0925726890563965,-8.10627555847168,4.57102108001709
1759335057981819000,5.26281884765625,-3.1003620624542236,-8.102099418640137,4.5731425285339355
1759335057991818800,5.27281884765625,-3.1739895343780518,-8.085180282592773,4.55253267288208
1759335058001819000,5.28281884765625,-3.2474377155303955,-8.069411277770996,4.528650760650635
1759335058011818800,5.29281884765625,-3.2677574157714844,-8.066978454589844,4.518364906311035
1759335058021819000,5.30281884765625,-3.210512161254883,-8.085033416748047,4.527109622955322
1759335058031818800,5.31281884765625,-3.052865505218506,-8.124385833740234,4.565556526184082
1759335058041819000,5.32281884765625,-2.852714776992798,-8.171769142150879,4.610213279724121
1759335058051819800,5.33281982421875,-2.631725788116455,-8.22495174407959,4.646964073181152
1759335058061819600,5.342819580078125,-2.411179780960083,-8.280308723449707,4.668275356292725
1759335058071819800,5.35281982421875,-2.212794780731201,-8.33130168914795,4.675776481628418
1759335058081819600,5.362819580078125,-2.0492477416992188,-8.375287055969238,4.671728134155273
1759335058091819800,5.37281982421875,-1.9227391481399536,-8.413125038146973,4.6575093269348145
1759335058101819600,5.382819580078125,-1.8322820663452148,-8.446662902832031,4.633211612701416
1759335058111819800,5.39281982421875,-1.778059482574463,-8.476738929748535,4.599271297454834
1759335058121819600,5.402819580078125,-1.759196400642395,-8.503664016723633,4.556641578674316
1759335058131819800,5.41281982421875,-1.767739176750183,-8.527329444885254,4.508838653564453
1759335058141819600,5.422819580078125,-1.7828748226165771,-8.550567626953125,4.458593368530273
1759335058151818800,5.43281884765625,-1.7614444494247437,-8.583101272583008,4.404273509979248
1759335058161819000,5.44281884765625,-1.6903384923934937,-8.625752449035645,4.3484601974487305
1759335058171818800,5.45281884765625,-1.5862603187561035,-8.670452117919922,4.298507213592529
1759335058181819000,5.46281884765625,-1.4742443561553955,-8.708518028259277,4.261237621307373
1759335058191818800,5.47281884765625,-1.3704969882965088,-8.738019943237305,4.235419273376465
1759335058201819000,5.48281884765625,-1.28574538230896,-8.76109504699707,4.2142767906188965
1759335058211818800,5.49281884765625,-1.2263917922973633,-8.780709266662598,4.191067695617676
1759335058221819000,5.50281884765625,-1.1895967721939087,-8.79887580871582,4.163479804992676
1759335058231818800,5.51281884765625,-1.1687977313995361,-8.816866874694824,4.131191730499268
1759335058241819000,5.52281884765625,-1.1548030376434326,-8.836629867553711,4.092729568481445
1759335058251819500,5.532819580078125,-1.135085940361023,-8.857941627502441,4.051940441131592
1759335058261819600,5.542819580078125,-1.0923621654510498,-8.88207721710205,4.010680198669434
1759335058271819500,5.552819580078125,-1.02969491481781,-8.908085823059082,3.969327211380005
1759335058281819600,5.562819580078125,-0.9462135434150696,-8.935765266418457,3.927682399749756
1759335058291819500,5.572819580078125,-0.8450468182563782,-8.964090347290039,3.8859870433807373
1759335058301819600,5.582819580078125,-0.7308078408241272,-8.99130630493164,3.8460943698883057
1759335058311819500,5.592819580078125,-0.6095890998840332,-9.015640258789062,3.8100814819335938
1759335058321819600,5.602819580078125,-0.48686349391937256,-9.037128448486328,3.776662588119507
1759335058331819500,5.612819580078125,-0.3656541109085083,-9.055750846862793,3.745607376098633
1759335058341819600,5.622819580078125,-0.2459598034620285,-9.071810722351074,3.7164247035980225
1759335058351818800,5.63281884765625,-0.12518881261348724,-9.085295677185059,3.6894192695617676
1759335058361819000,5.64281884765625,-0.0012409399496391416,-9.09640884399414,3.6640632152557373
1759335058371818800,5.65281884765625,0.12767185270786285,-9.106521606445312,3.636615514755249
1759335058381819000,5.66281884765625,0.25930559635162354,-9.116874694824219,3.6035120487213135
1759335058391818800,5.67281884765625,0.390956312417984,-9.127679824829102,3.5640740394592285
1759335058401819000,5.68281884765625,0.5191372632980347,-9.139681816101074,3.5166609287261963
1759335058411818800,5.69281884765625,0.6392319798469543,-9.15302562713623,3.4617180824279785
1759335058421819000,5.70281884765625,0.7455880641937256,-9.167306900024414,3.4021501541137695
1759335058431818800,5.71281884765625,0.8354232311248779,-9.182351112365723,3.340151309967041
1759335058441819000,5.72281884765625,0.9060031175613403,-9.197335243225098,3.2799835205078125
1759335058451819500,5.732819580078125,0.9577245116233826,-9.210822105407715,3.22701358795166
1759335058461819600,5.742819580078125,0.9972195029258728,-9.22104549407959,3.1855878829956055
1759335058471819500,5.752819580078125,1.0328630208969116,-9.227433204650879,3.155592918395996
1759335058481819600,5.762819580078125,1.0712380409240723,-9.230234146118164,3.1345326900482178
1759335058491819500,5.772819580078125,1.112969994544983,-9.230995178222656,3.117710590362549
1759335058501819600,5.782819580078125,1.1480635404586792,-9.2327241897583,3.0998032093048096
1759335058511819500,5.792819580078125,1.1691460609436035,-9.235836029052734,3.082592487335205
1759335058521819600,5.802819580078125,1.174304485321045,-9.238283157348633,3.07331919670105
1759335058531819500,5.812819580078125,1.176790475845337,-9.236686706542969,3.0771310329437256
1759335058541819600,5.822819580078125,1.1938772201538086,-9.231673240661621,3.0855870246887207
1759335058551818800,5.83281884765625,1.2294576168060303,-9.224026679992676,3.0944933891296387
1759335058561819000,5.84281884765625,1.2764959335327148,-9.214869499206543,3.102686643600464
1759335058571818800,5.85281884765625,1.3223767280578613,-9.206249237060547,3.109083414077759
1759335058581819000,5.86281884765625,1.3530237674713135,-9.199638366699219,3.115468740463257
1759335058591818800,5.87281884765625,1.3558167219161987,-9.1961669921875,3.1244819164276123
1759335058601819000,5.88281884765625,1.30088210105896,-9.198577880859375,3.14068341255188
1759335058611818800,5.89281884765625,1.2080185413360596,-9.203285217285156,3.163900375366211
1759335058621819000,5.90281884765625,1.0874515771865845,-9.20748233795166,3.195272207260132
1759335058631818800,5.91281884765625,0.9512708187103271,-9.208212852478027,3.236379623413086
1759335058641819000,5.92281884765625,0.8039566874504089,-9.204493522644043,3.2865076065063477
1759335058651819500,5.932819580078125,0.6402484774589539,-9.196065902709961,3.345539093017578
1759335058661819600,5.942819580078125,0.44718262553215027,-9.182514190673828,3.413414716720581
1759335058671819500,5.952819580078125,0.21655601263046265,-9.162696838378906,3.488281726837158
1759335058681819600,5.962819580078125,-0.04591770097613335,-9.135807991027832,3.5643973350524902
1759335058691819500,5.972819580078125,-0.32326632738113403,-9.101031303405762,3.638212203979492
1759335058701819600,5.982819580078125,-0.5978180170059204,-9.058082580566406,3.7099475860595703
1759335058711819800,5.99281982421875,-0.8586235046386719,-9.008889198303223,3.777905225753784
1759335058721819600,6.002819580078125,-1.0888268947601318,-8.956193923950195,3.8432793617248535
1759335058731819800,6.01281982421875,-1.2985090017318726,-8.89919662475586,3.9100279808044434
1759335058741819600,6.022819580078125,-1.5005799531936646,-8.83461856842041,3.9834372997283936
1759335058751818800,6.03281884765625,-1.7106881141662598,-8.761028289794922,4.060550689697266
1759335058761819000,6.04281884765625,-1.935774564743042,-8.679902076721191,4.133022785186768
1759335058771818800,6.05281884765625,-2.17492938041687,-8.593528747558594,4.194146156311035
1759335058781819000,6.06281884765625,-2.4192004203796387,-8.503135681152344,4.2442946434021
1759335058791818800,6.07281884765625,-2.6556198596954346,-8.4120454788208,4.284302234649658
1759335058801819000,6.08281884765625,-2.8759844303131104,-8.325032234191895,4.311890125274658
1759335058811818800,6.09281884765625,-3.073669910430908,-8.247282981872559,4.324912071228027
1759335058821819000,6.10281884765625,-3.2461230754852295,-8.181076049804688,4.324655055999756
1759335058831818800,6.11281884765625,-3.390362024307251,-8.122960090637207,4.3235297203063965
1759335058841819000,6.12281884765625,-3.5235109329223633,-8.062004089355469,4.331141948699951
1759335058851819800,6.13281982421875,-3.6534242630004883,-7.992305278778076,4.352617263793945
1759335058861819600,6.142819580078125,-3.7799487113952637,-7.913352966308594,4.388706207275391
1759335058871819800,6.15281982421875,-3.90274977684021,-7.828400135040283,4.433355331420898
1759335058881819600,6.162819580078125,-4.024056911468506,-7.7450690269470215,4.471120357513428
1759335058891819800,6.17281982421875,-4.144642353057861,-7.665539264678955,4.497934341430664
1759335058901819600,6.182819580078125,-4.260315895080566,-7.591466903686523,4.51540994644165
1759335058911819800,6.19281982421875,-4.364816665649414,-7.524947166442871,4.526958465576172
1759335058921819600,6.202819580078125,-4.454782962799072,-7.469478130340576,4.5312042236328125
1759335058931819800,6.21281982421875,-4.528785228729248,-7.426363468170166,4.528664588928223
1759335058941819600,6.222819580078125,-4.585952281951904,-7.395254135131836,4.522063732147217
1759335058951819000,6.232819091796875,-4.611221790313721,-7.38217830657959,4.5177226066589355
1759335058961819000,6.24281884765625,-4.6138434410095215,-7.380904197692871,4.517148017883301
1759335058971819000,6.252819091796875,-4.596603870391846,-7.391166687011719,4.517962455749512
1759335058981819000,6.26281884765625,-4.564953327178955,-7.412088394165039,4.515751361846924
1759335058991819000,6.272819091796875,-4.521156311035156,-7.442398548126221,4.509975910186768
1759335059011818800,6.29281884765625,-4.391268730163574,-7.528741359710693,4.494959831237793
1759335059021819000,6.30281884765625,-4.296785831451416,-7.584831714630127,4.491992473602295
1759335059031818800,6.31281884765625,-4.174779415130615,-7.651730060577393,4.493559837341309
1759335059041819000,6.32281884765625,-4.02232551574707,-7.72925329208374,4.499933242797852
1759335059051819800,6.33281982421875,-3.841620445251465,-7.815813064575195,4.508314609527588
1759335059061819600,6.342819580078125,-3.639711380004883,-7.908520698547363,4.514202117919922
1759335059071819800,6.35281982421875,-3.4476475715637207,-7.992677211761475,4.5167236328125
1759335059081819600,6.362819580078125,-3.293701410293579,-8.057040214538574,4.5172505378723145
1759335059091819800,6.37281982421875,-3.203270673751831,-8.093975067138672,4.51625394821167
1759335059101819600,6.382819580078125,-3.176234722137451,-8.108441352844238,4.509400367736816
1759335059111819800,6.39281982421875,-3.21382999420166,-8.100250244140625,4.497483730316162
1759335059121819600,6.402819580078125,-3.28745174407959,-8.07226848602295,4.494570732116699
1759335059131819800,6.41281982421875,-3.3671677112579346,-8.031622886657715,4.508328914642334
1759335059141819600,6.422819580078125,-3.4378135204315186,-7.984767913818359,4.538166046142578
1759335059151818800,6.43281884765625,-3.501120090484619,-7.935057640075684,4.576781749725342
1759335059161819000,6.44281884765625,-3.564204216003418,-7.88583517074585,4.613028526306152
1759335059171818800,6.45281884765625,-3.6360466480255127,-7.835365295410156,4.642847061157227
1759335059181819000,6.46281884765625,-3.698166608810425,-7.786736488342285,4.675501346588135
1759335059191818800,6.47281884765625,-3.740557909011841,-7.746431350708008,4.708615779876709
1759335059201819000,6.48281884765625,-3.7550265789031982,-7.721013069152832,4.738741397857666
1759335059211818800,6.49281884765625,-3.7494473457336426,-7.7126784324646,4.75668478012085
1759335059221819000,6.50281884765625,-3.7264978885650635,-7.716935634613037,4.767792701721191
1759335059231818800,6.51281884765625,-3.6690971851348877,-7.727691173553467,4.7948174476623535
1759335059241819000,6.52281884765625,-3.5755016803741455,-7.732601165771484,4.857193470001221
1759335059251819500,6.532819580078125,-3.476572036743164,-7.724461555480957,4.941256999969482
1759335059261819600,6.542819580078125,-3.4346961975097656,-7.701828956604004,5.005470275878906
1759335059271819500,6.552819580078125,-3.462068796157837,-7.673590660095215,5.029904365539551
1759335059281819600,6.562819580078125,-3.5038681030273438,-7.6551666259765625,5.029021739959717
1759335059291819500,6.572819580078125,-3.490736246109009,-7.665447235107422,5.022499084472656
1759335059301819600,6.582819580078125,-3.4218220710754395,-7.699673175811768,5.017599105834961
1759335059311819800,6.59281982421875,-3.295179605484009,-7.757183074951172,5.013760089874268
1759335059321819600,6.602819580078125,-3.1176340579986572,-7.832695007324219,5.009888648986816
1759335059331819800,6.61281982421875,-2.910433292388916,-7.917213439941406,5.001738548278809
1759335059341819600,6.622819580078125,-2.698090076446533,-8.005178451538086,4.9807000160217285
1759335059351818800,6.63281884765625,-2.49541974067688,-8.092616081237793,4.944949626922607
1759335059361819000,6.64281884765625,-2.3133459091186523,-8.174795150756836,4.898093223571777
1759335059371818800,6.65281884765625,-2.1579782962799072,-8.249022483825684,4.84426736831665
1759335059381819000,6.66281884765625,-2.024911403656006,-8.31634521484375,4.78621768951416
1759335059391818800,6.67281884765625,-1.9064304828643799,-8.379082679748535,4.725108623504639
1759335059401819000,6.68281884765625,-1.815890908241272,-8.437382698059082,4.656520843505859
1759335059411818800,6.69281884765625,-1.751490592956543,-8.491105079650879,4.582946300506592
1759335059421819000,6.70281884765625,-1.715245008468628,-8.537672996520996,4.509591102600098
1759335059441818600,6.722818603515625,-1.6806881427764893,-8.618023872375488,4.367471694946289
1759335059451819300,6.7328193359375,-1.6364905834197998,-8.663689613342285,4.293300628662109
1759335059461819400,6.7428193359375,-1.5547751188278198,-8.71350383758545,4.222256183624268
1759335059471819300,6.7528193359375,-1.4449708461761475,-8.762101173400879,4.160243034362793
1759335059481819400,6.7628193359375,-1.328330159187317,-8.803167343139648,4.112152099609375
1759335059491819300,6.7728193359375,-1.222366213798523,-8.832948684692383,4.081018924713135
1759335059501819400,6.7828193359375,-1.1358447074890137,-8.851495742797852,4.065820693969727
1759335059511819300,6.7928193359375,-1.067814588546753,-8.860397338867188,4.064863204956055
1759335059521819400,6.8028193359375,-1.0134037733078003,-8.861212730407715,4.076982021331787
1759335059531819300,6.8128193359375,-0.9480436444282532,-8.864519119262695,4.085538864135742
1759335059541819400,6.8228193359375,-0.8600988388061523,-8.87431812286377,4.0837082862854
1759335059551818500,6.832818603515625,-0.7537228465080261,-8.89074993133545,4.0689592361450195
1759335059561818600,6.842818603515625,-0.6396534442901611,-8.911489486694336,4.043056964874268
1759335059571818500,6.852818603515625,-0.5244868397712708,-8.933826446533203,4.010181903839111
1759335059581818600,6.862818603515625,-0.41423314809799194,-8.95553970336914,3.9745230674743652
1759335059591818500,6.872818603515625,-0.310763418674469,-8.975837707519531,3.9379935264587402
1759335059601818600,6.882818603515625,-0.2121785283088684,-8.994918823242188,3.9008376598358154
1759335059611818500,6.892818603515625,-0.11854629963636398,-9.012840270996094,3.86324143409729
1759335059621818400,6.902818359375,-0.031768180429935455,-9.030034065246582,3.8245699405670166
1759335059631818500,6.912818603515625,0.04416121542453766,-9.048384666442871,3.780864953994751
1759335059641818400,6.922818359375,0.11726970970630646,-9.068517684936523,3.7307164669036865
1759335059651819300,6.9328193359375,0.1910562366247177,-9.089953422546387,3.675091505050659
1759335059661819400,6.9428193359375,0.267042338848114,-9.112102508544922,3.61503005027771
1759335059671819300,6.9528193359375,0.3473585546016693,-9.134652137756348,3.550713062286377
1759335059681819400,6.9628193359375,0.4335176944732666,-9.15700626373291,3.4830071926116943
1759335059691819300,6.9728193359375,0.526254415512085,-9.17819595336914,3.4137537479400635
1759335059701819400,6.9828193359375,0.6269804239273071,-9.197358131408691,3.3444759845733643
1759335059711819300,6.9928193359375,0.7353004813194275,-9.213729858398438,3.2766427993774414
1759335059721819400,7.0028193359375,0.846599280834198,-9.22681999206543,3.212348461151123
1759335059731819300,7.0128193359375,0.9553209543228149,-9.235933303833008,3.1551597118377686
1759335059741819600,7.022819580078125,1.0572370290756226,-9.239912986755371,3.1106855869293213
1759335059751818800,7.03281884765625,1.1590864658355713,-9.237314224243164,3.0819408893585205
1759335059761818600,7.042818603515625,1.2669910192489624,-9.23145580291748,3.0569682121276855
1759335059771818800,7.05281884765625,1.375622034072876,-9.224262237548828,3.0316293239593506
1759335059781818600,7.062818603515625,1.4675626754760742,-9.217493057250977,3.0089945793151855
1759335059791818800,7.07281884765625,1.5252859592437744,-9.211237907409668,2.999446392059326
1759335059801818600,7.082818603515625,1.5485283136367798,-9.205002784729004,3.006671667098999
1759335059811818800,7.09281884765625,1.556000828742981,-9.198060035705566,3.0240261554718018
1759335059821818600,7.102818603515625,1.5648627281188965,-9.18899917602539,3.046895980834961
1759335059831818800,7.11281884765625,1.5840835571289062,-9.176948547363281,3.0731821060180664
1759335059841818600,7.122818603515625,1.6108944416046143,-9.165574073791504,3.093097686767578
1759335059851819500,7.132819580078125,1.6294482946395874,-9.157934188842773,3.1059987545013428
1759335059861819600,7.142819580078125,1.6037551164627075,-9.157426834106445,3.1207990646362305
1759335059871819500,7.152819580078125,1.5329986810684204,-9.162617683410645,3.1410725116729736
1759335059881819600,7.162819580078125,1.4126596450805664,-9.170100212097168,3.175492286682129
1759335059891819500,7.172819580078125,1.2506349086761475,-9.174495697021484,3.230236768722534
1759335059901819100,7.182819091796875,1.0640250444412231,-9.174057006835938,3.2976341247558594
1759335059911819300,7.1928193359375,0.8618255257606506,-9.171174049377441,3.3640358448028564
1759335059921819100,7.202819091796875,0.6400742530822754,-9.166074752807617,3.4268829822540283
1759335059931819300,7.2128193359375,0.393054723739624,-9.157958030700684,3.485321521759033
1759335059941819100,7.222819091796875,0.11717560142278671,-9.143743515014648,3.5423362255096436
1759335059951818500,7.232818603515625,-0.1827554553747177,-9.11907958984375,3.602656841278076
1759335059961818400,7.242818359375,-0.49434828758239746,-9.083114624023438,3.6637184619903564
1759335059971818500,7.252818603515625,-0.7968611717224121,-9.037396430969238,3.722961664199829
1759335059981818400,7.262818359375,-1.058438777923584,-8.986719131469727,3.7800092697143555
1759335059991818500,7.272818603515625,-1.2876936197280884,-8.931066513061523,3.8403284549713135
1759335060001818400,7.282818359375,-1.4957488775253296,-8.869643211364746,3.9066853523254395
1759335060011818500,7.292818603515625,-1.6990718841552734,-8.800475120544434,3.9792768955230713
1759335060021818400,7.302818359375,-1.914355993270874,-8.719749450683594,4.058502674102783
1759335060031818500,7.312818603515625,-2.1497161388397217,-8.624642372131348,4.142981052398682
1759335060041818400,7.322818359375,-2.3937487602233887,-8.517989158630371,4.228908538818359
1759335060051819300,7.3328193359375,-2.6312668323516846,-8.405784606933594,4.311503887176514
1759335060061819100,7.342819091796875,-2.848888397216797,-8.295923233032227,4.385364532470703
1759335060071819300,7.3528193359375,-3.0389673709869385,-8.19528579711914,4.446573734283447
1759335060081819100,7.362819091796875,-3.20818829536438,-8.109228134155273,4.485253810882568
1759335060091819300,7.3728193359375,-3.351102113723755,-8.04744815826416,4.492067337036133
1759335060101819100,7.382819091796875,-3.472811222076416,-7.99747896194458,4.4888458251953125
1759335060111819300,7.3928193359375,-3.582834005355835,-7.944649696350098,4.4961628913879395
1759335060121819100,7.402819091796875,-3.6962850093841553,-7.875614166259766,4.525713920593262
1759335060141819100,7.422819091796875,-3.9576938152313232,-7.687722206115723,4.626594066619873
1759335060151818500,7.432818603515625,-4.107966899871826,-7.590797424316406,4.655551910400391
1759335060161818400,7.442818359375,-4.266188621520996,-7.501696586608887,4.657655239105225
1759335060171818500,7.452818603515625,-4.412718296051025,-7.424922943115234,4.644189357757568
1759335060181818400,7.462818359375,-4.530556678771973,-7.364503860473633,4.626876354217529
1759335060191818500,7.472818603515625,-4.616934299468994,-7.3186469078063965,4.614214897155762
1759335060201819000,7.48281884765625,-4.674417972564697,-7.2867751121521,4.606771469116211
1759335060211818800,7.49281884765625,-4.690847396850586,-7.275055408477783,4.608630657196045
1759335060221819000,7.50281884765625,-4.682899475097656,-7.277400970458984,4.612982749938965
1759335060231818800,7.51281884765625,-4.656213760375977,-7.291509628295898,4.617738723754883
1759335060241819000,7.52281884765625,-4.617220401763916,-7.3145432472229,4.620466232299805
1759335060251819500,7.532819580078125,-4.569990158081055,-7.344698905944824,4.6196064949035645
1759335060261819600,7.542819580078125,-4.514240264892578,-7.3815107345581055,4.615696907043457
1759335060271819500,7.552819580078125,-4.444014549255371,-7.426714897155762,4.6113667488098145
1759335060281819600,7.562819580078125,-4.3534674644470215,-7.4802703857421875,4.611166954040527
1759335060291819500,7.572819580078125,-4.23610258102417,-7.5449724197387695,4.615074157714844
1759335060301819600,7.582819580078125,-4.086773872375488,-7.6228179931640625,4.621773719787598
1759335060311819800,7.59281982421875,-3.90372371673584,-7.713830471038818,4.628991603851318
1759335060321819600,7.602819580078125,-3.681375026702881,-7.819849491119385,4.633280277252197
1759335060331819800,7.61281982421875,-3.4496564865112305,-7.926154136657715,4.630965709686279
1759335060341819600,7.622819580078125,-3.234405755996704,-8.0228271484375,4.619852066040039
1759335060351818800,7.63281884765625,-3.071331262588501,-8.098235130310059,4.599498271942139
1759335060361819000,7.64281884765625,-2.9877796173095703,-8.142401695251465,4.576505661010742
1759335060371818800,7.65281884765625,-2.997339963912964,-8.150482177734375,4.555797100067139
1759335060381819000,7.66281884765625,-3.0844578742980957,-8.124560356140137,4.5439629554748535
1759335060391818800,7.67281884765625,-3.2000856399536133,-8.075943946838379,4.550647258758545
1759335060401819000,7.68281884765625,-3.3112967014312744,-8.018316268920898,4.572958946228027
1759335060411818800,7.69281884765625,-3.412078857421875,-7.9576215744018555,4.604784965515137
1759335060421819000,7.70281884765625,-3.5049545764923096,-7.9001922607421875,4.6338348388671875
1759335060431818800,7.71281884765625,-3.5845086574554443,-7.850031852722168,4.65814208984375
1759335060441819000,7.72281884765625,-3.6374294757843018,-7.80781888961792,4.687968730926514
1759335060451819800,7.73281982421875,-3.646310806274414,-7.78007698059082,4.726993560791016
1759335060461819600,7.742819580078125,-3.6128041744232178,-7.772137641906738,4.7656779289245605
1759335060471819800,7.75281982421875,-3.555422782897949,-7.785307884216309,4.787221908569336
1759335060481819600,7.762819580078125,-3.494577646255493,-7.81074857711792,4.79061222076416
1759335060491819800,7.77281982421875,-3.4424259662628174,-7.835166931152344,4.788508892059326
1759335060501819600,7.782819580078125,-3.406069278717041,-7.844008445739746,4.800001621246338
1759335060511819800,7.79281982421875,-3.3825838565826416,-7.831915855407715,4.83624792098999
1759335060521819600,7.802819580078125,-3.3766024112701416,-7.805375576019287,4.883098602294922
1759335060531819800,7.81281982421875,-3.3768513202667236,-7.777462482452393,4.927243709564209
1759335060541819600,7.822819580078125,-3.359672784805298,-7.758789539337158,4.96828556060791
1759335060551819000,7.832819091796875,-3.31674861907959,-7.760918140411377,4.993722438812256
1759335060561819000,7.84281884765625,-3.2400686740875244,-7.783868789672852,5.008327484130859
1759335060571819000,7.852819091796875,-3.116731643676758,-7.8274149894714355,5.018686294555664
1759335060581819000,7.86281884765625,-2.9500913619995117,-7.887401580810547,5.025523662567139
1759335060591819000,7.872819091796875,-2.7564971446990967,-7.9581780433654785,5.023845195770264
1759335060601818600,7.882818603515625,-2.553701877593994,-8.035619735717773,5.007733345031738
1759335060611818500,7.892818603515625,-2.356245756149292,-8.115677833557129,4.9753313064575195
1759335060621818400,7.902818359375,-2.175609827041626,-8.193307876586914,4.9301557540893555
1759335060631818500,7.912818603515625,-2.016054630279541,-8.265335083007812,4.877460956573486
1759335060641818400,7.922818359375,-1.8778742551803589,-8.330092430114746,4.822140693664551
1759335060651819300,7.9328193359375,-1.7606805562973022,-8.386630058288574,4.768044948577881
1759335060661819400,7.9428193359375,-1.6780962944030762,-8.434792518615723,4.7125396728515625
1759335060671819300,7.9528193359375,-1.6237989664077759,-8.479125022888184,4.651609897613525
1759335060681819400,7.9628193359375,-1.591795802116394,-8.521130561828613,4.5854668617248535
1759335060691819300,7.9728193359375,-1.5663310289382935,-8.565568923950195,4.510800361633301
1759335060701819400,7.9828193359375,-1.5260884761810303,-8.616133689880371,4.427575588226318
1759335060711819300,7.9928193359375,-1.4544167518615723,-8.669474601745605,4.346811771392822
1759335060721819400,8.0028193359375,-1.3524597883224487,-8.720673561096191,4.276753902435303
1759335060731819300,8.0128193359375,-1.2325035333633423,-8.764993667602539,4.222071647644043
1759335060741819400,8.0228193359375,-1.1085808277130127,-8.799089431762695,4.185337066650391
1759335060751818500,8.032818603515626,-0.9943477511405945,-8.824087142944336,4.1613264083862305
1759335060761818400,8.042818359375,-0.8992255926132202,-8.84009838104248,4.148959159851074
1759335060771818500,8.052818603515625,-0.8257207870483398,-8.849026679992676,4.145210266113281
1759335060781818400,8.062818359375,-0.7684750556945801,-8.857017517089844,4.139186859130859
1759335060791818500,8.072818603515625,-0.7019225358963013,-8.86884593963623,4.125638484954834
1759335060801818400,8.082818359375,-0.6251537799835205,-8.886336326599121,4.100283622741699
1759335060811818500,8.092818603515624,-0.5421563386917114,-8.907217979431152,4.066655158996582
1759335060821818400,8.102818359375,-0.45036885142326355,-8.928330421447754,4.0313849449157715
1759335060831818500,8.112818603515626,-0.3515583574771881,-8.948122024536133,3.997203826904297
1759335060841818400,8.122818359375,-0.2486877590417862,-8.966499328613281,3.9636082649230957
1759335060851819300,8.1328193359375,-0.14782734215259552,-8.983101844787598,3.930903673171997
1759335060861819100,8.142819091796875,-0.05364858731627464,-8.998412132263184,3.898186445236206
1759335060871819300,8.1528193359375,0.03447626903653145,-9.01357364654541,3.8632102012634277
1759335060881819100,8.162819091796875,0.11893676221370697,-9.029295921325684,3.824615240097046
1759335060891819300,8.1728193359375,0.20755086839199066,-9.046711921691895,3.779398202896118
1759335060901819600,8.182819580078124,0.30207040905952454,-9.064838409423828,3.729276657104492
1759335060911819800,8.19281982421875,0.4015677273273468,-9.083625793457031,3.673783779144287
1759335060921819600,8.202819580078126,0.503645122051239,-9.10289478302002,3.6129961013793945
1759335060931819800,8.21281982421875,0.6038538217544556,-9.122091293334961,3.548651933670044
1759335060941819600,8.222819580078125,0.7010919451713562,-9.141169548034668,3.4810242652893066
1759335060951818800,8.23281884765625,0.7946546077728271,-9.160002708435059,3.4106903076171875
1759335060961819000,8.24281884765625,0.884894847869873,-9.178207397460938,3.338804244995117
1759335060971818800,8.25281884765625,0.9731097221374512,-9.195046424865723,3.267158269882202
1759335060981819000,8.26281884765625,1.0590308904647827,-9.209905624389648,3.1978189945220947
1759335060991818800,8.27281884765625,1.143625259399414,-9.221275329589844,3.1353366374969482
1759335061001819000,8.28281884765625,1.232938528060913,-9.227151870727539,3.0837759971618652
1759335061011818800,8.29281884765625,1.3410773277282715,-9.222391128540039,3.0527091026306152
1759335061021819000,8.30281884765625,1.4652987718582153,-9.21176815032959,3.0275869369506836
1759335061031818800,8.31281884765625,1.5927269458770752,-9.19841480255127,3.0037591457366943
1759335061041819000,8.32281884765625,1.7013649940490723,-9.186144828796387,2.9816174507141113
1759335061051819800,8.33281982421875,1.7674118280410767,-9.178962707519531,2.9653091430664062
1759335061061819600,8.342819580078125,1.7800012826919556,-9.177186012268066,2.9632763862609863
1759335061071819800,8.35281982421875,1.7549703121185303,-9.175621032714844,2.9829704761505127
1759335061081819100,8.362819091796876,1.7246955633163452,-9.171675682067871,3.0126171112060547
1759335061091819300,8.3728193359375,1.711532711982727,-9.162938117980957,3.0465140342712402
1759335061101819100,8.382819091796875,1.7194056510925293,-9.151138305664062,3.0773966312408447
1759335061111819300,8.3928193359375,1.7288328409194946,-9.13957405090332,3.1063292026519775
1759335061121819100,8.402819091796875,1.6958856582641602,-9.133539199829102,3.1420538425445557
1759335061131819300,8.4128193359375,1.623132586479187,-9.129829406738281,3.190875768661499
1759335061141819100,8.422819091796875,1.5127164125442505,-9.126432418823242,3.254223585128784
1759335061151818500,8.432818603515624,1.3571809530258179,-9.125815391540527,3.323781728744507
1759335061161818400,8.442818359375,1.1530208587646484,-9.128744125366211,3.3921308517456055
1759335061171818500,8.452818603515626,0.907339334487915,-9.131648063659668,3.458294630050659
1759335061181818400,8.462818359375,0.630254328250885,-9.130261421203613,3.5229477882385254
1759335061191818500,8.472818603515625,0.33348551392555237,-9.121631622314453,3.5853192806243896
1759335061201818400,8.482818359375,0.029728783294558525,-9.10224437713623,3.64941143989563
1759335061211818200,8.492818359375,-0.2756330668926239,-9.070713996887207,3.7170016765594482
1759335061221818400,8.502818359375,-0.5815039873123169,-9.028421401977539,3.7841105461120605
1759335061231818200,8.512818359375,-0.8765718340873718,-8.976241111755371,3.8508098125457764
1759335061241818400,8.522818359375,-1.1312369108200073,-8.91724967956543,3.920839548110962
1759335061251819300,8.5328193359375,-1.363396167755127,-8.850316047668457,3.9978761672973633
1759335061261819100,8.542819091796876,-1.5854068994522095,-8.776631355285645,4.077656269073486
1759335061271819300,8.5528193359375,-1.8116782903671265,-8.696856498718262,4.15360164642334
1759335061281819100,8.562819091796875,-2.0492115020751953,-8.611715316772461,4.220067501068115
1759335061291819300,8.5728193359375,-2.2947580814361572,-8.5189790725708,4.2814764976501465
1759335061301819100,8.582819091796875,-2.5353012084960938,-8.421666145324707,4.337945938110352
1759335061311819300,8.5928193359375,-2.7585365772247314,-8.325300216674805,4.387454032897949
1759335061321819000,8.60281884765625,-2.960357904434204,-8.235478401184082,4.425299644470215
1759335061331818800,8.61281884765625,-3.142784833908081,-8.153021812438965,4.452079772949219
1759335061341819000,8.62281884765625,-3.3069987297058105,-8.077560424804688,4.47066068649292
1759335061351818000,8.63281787109375,-3.4402294158935547,-8.010181427001953,4.491325378417969
1759335061361817900,8.64281787109375,-3.5566065311431885,-7.9419965744018555,4.521615982055664
1759335061371818000,8.65281787109375,-3.660478353500366,-7.870128154754639,4.564211845397949
1759335061381818400,8.662818359375,-3.7643351554870605,-7.795479774475098,4.607638359069824
1759335061391818200,8.672818359375,-3.8794543743133545,-7.71999454498291,4.639097690582275
1759335061401818400,8.682818359375,-4.013888359069824,-7.643678188323975,4.651074409484863
1759335061411818200,8.692818359375,-4.155498504638672,-7.569751262664795,4.6476731300354
1759335061421818400,8.702818359375,-4.280886650085449,-7.507781505584717,4.634341716766357
1759335061431818200,8.712818359375,-4.380017280578613,-7.462213516235352,4.6152567863464355
1759335061441818400,8.722818359375,-4.448070049285889,-7.433389663696289,4.596689701080322
1759335061451819300,8.7328193359375,-4.486330509185791,-7.418748378753662,4.583124160766602
1759335061461819100,8.742819091796875,-4.489387512207031,-7.421947002410889,4.574901580810547
1759335061471819300,8.7528193359375,-4.461164474487305,-7.440789222717285,4.571934700012207
1759335061481819100,8.762819091796874,-4.410562992095947,-7.471336841583252,4.571216106414795
1759335061491819300,8.7728193359375,-4.341023921966553,-7.511808395385742,4.57146692276001
1759335061501819100,8.782819091796876,-4.2552714347839355,-7.561561107635498,4.570072650909424
1759335061511819300,8.7928193359375,-4.152864456176758,-7.6207990646362305,4.565869331359863
1759335061521819100,8.802819091796875,-4.029868125915527,-7.688758850097656,4.562122344970703
1759335061531819300,8.8128193359375,-3.8782057762145996,-7.76661491394043,4.561679363250732
1759335061541819100,8.822819091796875,-3.691741466522217,-7.856240272521973,4.562920570373535
1759335061551818200,8.832818359375,-3.4699323177337646,-7.95587158203125,4.564408302307129
1759335061561818400,8.842818359375,-3.219116449356079,-8.061169624328613,4.563391208648682
1759335061571818200,8.852818359375,-2.9544219970703125,-8.164227485656738,4.559230804443359
1759335061581818400,8.862818359375,-2.72765851020813,-8.246803283691406,4.551919937133789
1759335061591818200,8.872818359375,-2.5872154235839844,-8.295987129211426,4.5445237159729
1759335061601818400,8.882818359375,-2.545346736907959,-8.309139251708984,4.544121265411377
1759335061611818200,8.892818359375,-2.6082746982574463,-8.287430763244629,4.548115253448486
1759335061621818600,8.902818603515625,-2.7320704460144043,-8.241436958312988,4.558981418609619
1759335061631818800,8.91281884765625,-2.8720390796661377,-8.180521011352539,4.582595348358154
1759335061641818600,8.922818603515625,-3.008239507675171,-8.113250732421875,4.614712715148926
1759335061651819500,8.932819580078124,-3.138052463531494,-8.04232120513916,4.652276992797852
1759335061661819600,8.942819580078124,-3.2598283290863037,-7.972139358520508,4.689176559448242
1759335061671819500,8.952819580078126,-3.365347385406494,-7.907244682312012,4.724360466003418
1759335061681819600,8.962819580078126,-3.451852560043335,-7.850841045379639,4.755949020385742
1759335061691819500,8.972819580078125,-3.493856906890869,-7.812331676483154,4.788578987121582
1759335061701819600,8.982819580078125,-3.4993040561676025,-7.790842056274414,4.8195061683654785
1759335061711819500,8.992819580078125,-3.4696624279022217,-7.793721675872803,4.836251735687256
1759335061721819600,9.002819580078125,-3.406871795654297,-7.820161819458008,4.838191032409668
1759335061731819500,9.012819580078125,-3.3286125659942627,-7.861994743347168,4.824858665466309
1759335061741819600,9.022819580078124,-3.26701283454895,-7.901527404785156,4.80233907699585
1759335061751818800,9.03281884765625,-3.237753391265869,-7.915411949157715,4.799267768859863
1759335061761818600,9.042818603515625,-3.251699924468994,-7.8891448974609375,4.832986354827881
1759335061771818800,9.05281884765625,-3.304729700088501,-7.839293956756592,4.877925395965576
1759335061781818400,9.062818359375,-3.3484864234924316,-7.7943115234375,4.919994354248047
1759335061791818500,9.072818603515625,-3.37137508392334,-7.763828754425049,4.952441692352295
1759335061801818400,9.082818359375,-3.3545944690704346,-7.758523464202881,4.972116470336914
1759335061811818500,9.092818603515624,-3.2367935180664062,-7.79892110824585,4.986969947814941
1759335061821818400,9.102818359375,-3.059593439102173,-7.861049175262451,5.001254558563232
1759335061831818500,9.112818603515626,-2.8396377563476562,-7.941164970397949,5.004450798034668
1759335061841818600,9.122818603515626,-2.5931155681610107,-8.034211158752441,4.989722728729248
1759335061851819300,9.1328193359375,-2.3354005813598633,-8.133183479309082,4.956533432006836
1759335061861819400,9.1428193359375,-2.0896341800689697,-8.22708797454834,4.911072254180908
1759335061871819300,9.1528193359375,-1.8759973049163818,-8.308828353881836,4.859416961669922
1759335061881819400,9.1628193359375,-1.7070722579956055,-8.377779006958008,4.802985668182373
1759335061891819300,9.1728193359375,-1.59286367893219,-8.435760498046875,4.740331649780273
1759335061901819400,9.1828193359375,-1.5338941812515259,-8.484381675720215,4.672548294067383
1759335061911819500,9.192819580078124,-1.5185726881027222,-8.525650024414062,4.601879119873047
1759335061921819400,9.2028193359375,-1.5362468957901,-8.562864303588867,4.526294231414795
1759335061931819500,9.212819580078126,-1.545608639717102,-8.606951713562012,4.438640594482422
1759335061941819400,9.2228193359375,-1.52784264087677,-8.658134460449219,4.344212532043457
1759335061951818800,9.23281884765625,-1.4737684726715088,-8.70881175994873,4.26083517074585
1759335061961818600,9.242818603515625,-1.3899586200714111,-8.750982284545898,4.202171325683594
1759335061971818800,9.25281884765625,-1.2876503467559814,-8.782394409179688,4.169101238250732
1759335061981818600,9.262818603515624,-1.176355004310608,-8.804322242736816,4.155728340148926
1759335061991818800,9.27281884765625,-1.0635037422180176,-8.816699981689453,4.159922122955322
1759335062001818600,9.282818603515626,-0.9559183716773987,-8.82213306427002,4.174491882324219
1759335062011818800,9.29281884765625,-0.8602181077003479,-8.825628280639648,4.187886714935303
1759335062021818600,9.302818603515625,-0.7768266797065735,-8.830412864685059,4.194070816040039
1759335062031818800,9.31281884765625,-0.6971580982208252,-8.838797569274902,4.19041633605957
1759335062041818600,9.322818603515625,-0.6110398769378662,-8.854290962219238,4.171149730682373
1759335062051819500,9.332819580078125,-0.517618715763092,-8.874796867370605,4.140064716339111
1759335062061819400,9.3428193359375,-0.4165723919868469,-8.899248123168945,4.098752975463867
1759335062071819500,9.352819580078124,-0.3111141324043274,-8.924906730651855,4.052079200744629
1759335062091819800,9.37281982421875,-0.08852525800466537,-8.975732803344727,3.94948148727417
1759335062101820000,9.38281982421875,0.025226211175322533,-8.999483108520508,3.895965576171875
1759335062111819800,9.39281982421875,0.13729892671108246,-9.021137237548828,3.843196153640747
1759335062121819600,9.402819580078125,0.24429625272750854,-9.041574478149414,3.789501667022705
1759335062131819800,9.41281982421875,0.3451099097728729,-9.062026977539062,3.7323741912841797
1759335062141819600,9.422819580078125,0.4394949972629547,-9.0829496383667,3.6710891723632812
1759335062151818800,9.43281884765625,0.5260732173919678,-9.105072021484375,3.6042962074279785
1759335062161819000,9.44281884765625,0.6109931468963623,-9.126872062683105,3.5350821018218994
1759335062171818800,9.45281884765625,0.6968488693237305,-9.147951126098633,3.463992118835449
1759335062181819000,9.46281884765625,0.7858973145484924,-9.167648315429688,3.392153263092041
1759335062191818800,9.47281884765625,0.8809657096862793,-9.185164451599121,3.32063627243042
1759335062201819000,9.48281884765625,0.9813146591186523,-9.199649810791016,3.251692056655884
1759335062211818800,9.49281884765625,1.0833312273025513,-9.210570335388184,3.187736749649048
1759335062221819000,9.50281884765625,1.1814473867416382,-9.216437339782715,3.13554310798645
1759335062231818800,9.51281884765625,1.274376392364502,-9.21624755859375,3.0994720458984375
1759335062241819000,9.52281884765625,1.3694231510162354,-9.210668563842773,3.0754458904266357
1759335062251819500,9.532819580078124,1.4809774160385132,-9.200140953063965,3.0551881790161133
1759335062261819600,9.542819580078126,1.6137158870697021,-9.185026168823242,3.0333776473999023
1759335062271819500,9.552819580078125,1.7479413747787476,-9.170430183410645,3.0029823780059814
1759335062281819600,9.562819580078125,1.8464620113372803,-9.162440299987793,2.968217134475708
1759335062291819500,9.572819580078125,1.887529969215393,-9.163697242736816,2.9383492469787598
1759335062301819600,9.582819580078125,1.8727748394012451,-9.170698165893555,2.925929069519043
1759335062311819500,9.592819580078125,1.8267197608947754,-9.176899909973145,2.9355950355529785
1759335062321819600,9.602819580078124,1.78090500831604,-9.178178787231445,2.95963978767395
1759335062331819500,9.612819580078124,1.7560780048370361,-9.175071716308594,2.9840056896209717
1759335062341819600,9.622819580078126,1.7481430768966675,-9.168673515319824,3.008265972137451
1759335062351818800,9.63281884765625,1.7355735301971436,-9.159079551696777,3.0445375442504883
1759335062361818600,9.642818603515625,1.695505142211914,-9.148127555847168,3.0995020866394043
1759335062371818800,9.65281884765625,1.6173049211502075,-9.136956214904785,3.1733767986297607
1759335062381818600,9.662818603515625,1.489451289176941,-9.12691593170166,3.263570785522461
1759335062391818800,9.67281884765625,1.3292325735092163,-9.120760917663574,3.3488776683807373
1759335062401818600,9.682818603515624,1.1286492347717285,-9.123870849609375,3.413357734680176
1759335062411818800,9.69281884765625,0.8888555765151978,-9.130921363830566,3.465009927749634
1759335062421818600,9.702818603515626,0.6204068660736084,-9.135651588439941,3.5106821060180664
1759335062431818800,9.71281884765625,0.3302905261516571,-9.134818077087402,3.55190110206604
1759335062441818600,9.722818603515625,0.018839141353964806,-9.122443199157715,3.598719358444214
1759335062451819500,9.732819580078125,-0.3052741587162018,-9.09506607055664,3.654696226119995
1759335062461819600,9.742819580078125,-0.6304168105125427,-9.054259300231934,3.7138733863830566
1759335062471819500,9.752819580078125,-0.9387573599815369,-9.003114700317383,3.772637367248535
1759335062481819100,9.762819091796874,-1.2175403833389282,-8.949771881103516,3.8195507526397705
1759335062491819300,9.7728193359375,-1.4664479494094849,-8.896383285522461,3.8566770553588867
1759335062501819100,9.782819091796876,-1.711979866027832,-8.832768440246582,3.9014644622802734
1759335062511819300,9.7928193359375,-1.9634429216384888,-8.75472640991211,3.9584944248199463
1759335062521819100,9.802819091796875,-2.2210159301757812,-8.664713859558105,4.019886016845703
1759335062531819300,9.8128193359375,-2.4778988361358643,-8.567554473876953,4.0776262283325195
1759335062541819100,9.822819091796875,-2.7261908054351807,-8.471035957336426,4.120595455169678
1759335062551818500,9.832818603515625,-2.9593660831451416,-8.37962818145752,4.146533489227295
1759335062561818400,9.842818359375,-3.175926685333252,-8.299683570861816,4.147117614746094
1759335062571818500,9.852818603515624,-3.3685717582702637,-8.235651969909668,4.122696876525879
1759335062581818400,9.862818359375,-3.532586097717285,-8.186117172241211,4.0839128494262695
1759335062591818500,9.872818603515626,-3.671158790588379,-8.137601852416992,4.058534145355225
1759335062601818400,9.882818359375,-3.7888896465301514,-8.080971717834473,4.0634846687316895
1759335062611818200,9.892818359375,-3.8803350925445557,-8.010293006896973,4.116791248321533
1759335062621818400,9.902818359375,-3.9652247428894043,-7.932033538818359,4.186844825744629
1759335062631818200,9.912818359375,-4.052201747894287,-7.857140064239502,4.244376182556152
1759335062641818400,9.922818359375,-4.152365684509277,-7.7950053215026855,4.262143135070801
1759335062651819300,9.9328193359375,-4.274994850158691,-7.741788387298584,4.237823963165283
1759335062661819100,9.942819091796874,-4.400537967681885,-7.704912185668945,4.17608118057251
1759335062671819300,9.9528193359375,-4.507821083068848,-7.686211109161377,4.0953288078308105
1759335062681819100,9.962819091796876,-4.583802223205566,-7.679740905761719,4.0224714279174805
1759335062691819300,9.9728193359375,-4.623192310333252,-7.682942867279053,3.970935583114624
1759335062701819100,9.982819091796875,-4.629432678222656,-7.694506645202637,3.9412004947662354
1759335062711819300,9.9928193359375,-4.60869836807251,-7.712482929229736,3.9303019046783447
1759335062721819100,10.002819091796875,-4.5513834953308105,-7.744490623474121,3.9341793060302734
1759335062731819300,10.0128193359375,-4.46991491317749,-7.790258884429932,3.937213182449341
1759335062741819100,10.022819091796874,-4.370445251464844,-7.846177577972412,3.937842845916748
1759335062751818200,10.032818359375,-4.251644134521484,-7.912187576293945,3.9358303546905518
1759335062761818400,10.042818359375,-4.108258247375488,-7.986782550811768,3.9374194145202637
1759335062771818200,10.052818359375,-3.938640594482422,-8.062137603759766,3.9571547508239746
1759335062781818600,10.062818603515625,-3.733513116836548,-8.145169258117676,3.985826015472412
1759335062791818800,10.07281884765625,-3.489750623703003,-8.24282169342041,4.005928993225098
1759335062801818600,10.082818603515625,-3.2286925315856934,-8.347941398620605,4.007148742675781
1759335062811818800,10.09281884765625,-2.989821434020996,-8.440108299255371,3.999436378479004
1759335062821818600,10.102818603515624,-2.8244636058807373,-8.502617835998535,3.987199544906616
1759335062831818800,10.11281884765625,-2.7487411499023438,-8.532535552978516,3.976189374923706
1759335062841818600,10.122818603515626,-2.819659471511841,-8.516816139221191,3.960245132446289
1759335062851819500,10.132819580078126,-2.9364404678344727,-8.481305122375488,3.951582193374634
1759335062861819600,10.142819580078125,-3.0652451515197754,-8.430973052978516,3.961439847946167
1759335062871819500,10.152819580078125,-3.1814918518066406,-8.37603759765625,3.9862356185913086
1759335062881819600,10.162819580078125,-3.2645320892333984,-8.329331398010254,4.01683235168457
1759335062891819500,10.172819580078125,-3.312234878540039,-8.293834686279297,4.0510969161987305
1759335062901819600,10.182819580078124,-3.3376901149749756,-8.259568214416504,4.099949359893799
1759335062911819500,10.192819580078124,-3.3495302200317383,-8.217191696166992,4.174740314483643
1759335062921819600,10.202819580078126,-3.3650646209716797,-8.177783012390137,4.239121913909912
1759335062931819500,10.212819580078126,-3.377070665359497,-8.147921562194824,4.286766529083252
1759335062941819600,10.222819580078125,-3.3458757400512695,-8.135761260986328,4.334083080291748
1759335062951818800,10.23281884765625,-3.2807788848876953,-8.137979507446289,4.379444599151611
1759335062961819000,10.24281884765625,-3.23183274269104,-8.13890266418457,4.414002895355225
1759335062971818800,10.25281884765625,-3.2111237049102783,-8.132203102111816,4.441377639770508
1759335062981819000,10.26281884765625,-3.212479829788208,-8.116874694824219,4.468345642089844
1759335062991818800,10.27281884765625,-3.2230629920959473,-8.097795486450195,4.495290279388428
1759335063001819000,10.28281884765625,-3.2034687995910645,-8.085485458374023,4.531301021575928
1759335063011818800,10.29281884765625,-3.1259541511535645,-8.096291542053223,4.566024303436279
1759335063021819000,10.30281884765625,-2.966705799102783,-8.148293495178223,4.579728603363037
1759335063031818800,10.31281884765625,-2.738551139831543,-8.233572006225586,4.569281101226807
1759335063041819000,10.32281884765625,-2.473095178604126,-8.331418991088867,4.543279647827148
1759335063051819500,10.332819580078125,-2.2146477699279785,-8.42334270477295,4.506960391998291
1759335063061819600,10.342819580078125,-2.059056043624878,-8.482943534851074,4.468754291534424
1759335063071819500,10.352819580078124,-2.0534541606903076,-8.504960060119629,4.429314613342285
1759335063081819600,10.362819580078124,-2.087172269821167,-8.519705772399902,4.38499116897583
1759335063091819500,10.372819580078126,-2.1256558895111084,-8.538349151611328,4.329904556274414
1759335063101819600,10.382819580078126,-2.1523237228393555,-8.566444396972656,4.260714054107666
1759335063111819500,10.392819580078125,-2.1585488319396973,-8.602570533752441,4.184082508087158
1759335063121819600,10.402819580078125,-2.1448469161987305,-8.642034530639648,4.109086036682129
1759335063151818800,10.43281884765625,-1.9597645998001099,-8.761311531066895,3.9457104206085205
1759335063161819000,10.44281884765625,-1.854645848274231,-8.799388885498047,3.9116761684417725
1759335063171818800,10.45281884765625,-1.732729196548462,-8.835847854614258,3.885246992111206
1759335063181819000,10.46281884765625,-1.5919991731643677,-8.871062278747559,3.865215301513672
1759335063191818800,10.47281884765625,-1.4459633827209473,-8.904142379760742,3.846513271331787
1759335063201819000,10.48281884765625,-1.3025795221328735,-8.934109687805176,3.8281702995300293
1759335063211818800,10.49281884765625,-1.1739012002944946,-8.9600248336792,3.809173822402954
1759335063221819000,10.50281884765625,-1.0623551607131958,-8.980974197387695,3.7925608158111572
1759335063231818800,10.51281884765625,-0.9679811000823975,-8.997108459472656,3.7795612812042236
1759335063241819000,10.52281884765625,-0.8877671957015991,-9.009908676147461,3.768744707107544
1759335063251819500,10.532819580078124,-0.8192647099494934,-9.019696235656738,3.7608094215393066
1759335063261819600,10.542819580078126,-0.7585282325744629,-9.0267972946167,3.7565133571624756
1759335063271819500,10.552819580078125,-0.6988321542739868,-9.033486366271973,3.7520511150360107
1759335063281819600,10.562819580078125,-0.6356050372123718,-9.042842864990234,3.740718364715576
1759335063291819500,10.572819580078125,-0.5690168738365173,-9.055729866027832,3.720227003097534
1759335063301819600,10.582819580078125,-0.5029150247573853,-9.071700096130371,3.69071888923645
1759335063311819800,10.59281982421875,-0.4431506097316742,-9.087486267089844,3.6594018936157227
1759335063321819600,10.602819580078124,-0.38988545536994934,-9.103548049926758,3.6253960132598877
1759335063331819800,10.61281982421875,-0.3395978808403015,-9.120096206665039,3.5886847972869873
1759335063341819600,10.622819580078126,-0.28946518898010254,-9.134361267089844,3.556626319885254
1759335063351818800,10.63281884765625,-0.22461599111557007,-9.160354614257812,3.4939465522766113
1759335063361819000,10.64281884765625,-0.14494623243808746,-9.218905448913574,3.3407559394836426
1759335063371818800,10.65281884765625,-0.05552840977907181,-9.276859283447266,3.17911958694458
1759335063381819000,10.66281884765625,0.05020107701420784,-9.318674087524414,3.054482936859131
1759335063391818800,10.67281884765625,0.12592822313308716,-9.347050666809082,2.9642834663391113
1759335063401819000,10.68281884765625,0.14764556288719177,-9.370575904846191,2.8880131244659424
1759335063411818800,10.69281884765625,0.1365799754858017,-9.387055397033691,2.8345260620117188
1759335063421819000,10.70281884765625,0.15365560352802277,-9.394027709960938,2.810464859008789
1759335063431818800,10.71281884765625,0.21937106549739838,-9.392601013183594,2.810842990875244
1759335063441819000,10.72281884765625,0.33100247383117676,-9.386797904968262,2.819282054901123
1759335063451819500,10.732819580078125,0.48198506236076355,-9.379948616027832,2.8203248977661133
1759335063461819600,10.742819580078125,0.6531471014022827,-9.375100135803223,2.8019556999206543
1759335063471820000,10.752820068359375,0.8205804824829102,-9.368159294128418,2.7810606956481934
1759335063481820000,10.76281982421875,0.9593693614006042,-9.362524032592773,2.7555112838745117
1759335063491820000,10.772820068359374,1.092968225479126,-9.358222007751465,2.7201340198516846
1759335063501820000,10.78281982421875,1.2466729879379272,-9.347789764404297,2.6897385120391846
1759335063511820000,10.792820068359376,1.433982491493225,-9.321585655212402,2.687356948852539
1759335063521820000,10.80281982421875,1.63776433467865,-9.277958869934082,2.7216248512268066
1759335063531820000,10.812820068359375,1.7910242080688477,-9.231863975524902,2.7811899185180664
1759335063541820000,10.82281982421875,1.8748416900634766,-9.2001314163208,2.830690860748291
1759335063551819000,10.832819091796875,1.894417405128479,-9.187498092651367,2.858499050140381
1759335063561819100,10.842819091796875,1.865134596824646,-9.191056251525879,2.8663299083709717
1759335063591819000,10.872819091796876,1.5069032907485962,-9.256940841674805,2.8650197982788086
1759335063601819100,10.882819091796875,1.301632046699524,-9.289413452148438,2.8605051040649414
1759335063611819000,10.892819091796875,1.075530767440796,-9.322831153869629,2.8457255363464355
1759335063621819100,10.902819091796875,0.852404773235321,-9.3496675491333,2.8332087993621826
1759335063631819000,10.912819091796875,0.6401625275611877,-9.371360778808594,2.8174386024475098
1759335063641819100,10.922819091796875,0.42852702736854553,-9.387825965881348,2.802713632583618
1759335063651820000,10.932820068359375,0.24956338107585907,-9.393387794494629,2.805713415145874
1759335063661819600,10.942819580078124,0.12065058201551437,-9.390756607055664,2.822993278503418
1759335063671819500,10.952819580078126,-0.002868248848244548,-9.379953384399414,2.8612210750579834
1759335063681819600,10.962819580078126,-0.12550795078277588,-9.361420631408691,2.918564558029175
1759335063691819500,10.972819580078125,-0.24106793105602264,-9.336722373962402,2.9895994663238525
1759335063701819600,10.982819580078125,-0.3459007740020752,-9.302921295166016,3.083195686340332
1759335063711819500,10.992819580078125,-0.4359036982059479,-9.259822845458984,3.1993303298950195
1759335063721819600,11.002819580078125,-0.5203951597213745,-9.212667465209961,3.3205602169036865
1759335063731819500,11.012819580078125,-0.6116408109664917,-9.164661407470703,3.435837745666504
1759335063741819600,11.022819580078124,-0.7071622014045715,-9.114799499511719,3.548287868499756
1759335063751818800,11.03281884765625,-0.8056594133377075,-9.063335418701172,3.6574277877807617
1759335063761818600,11.042818603515625,-0.8930314183235168,-9.012674331665039,3.7608864307403564
1759335063771818500,11.052818603515625,-0.9588251709938049,-8.965036392211914,3.857306718826294
1759335063781818400,11.062818359375,-1.003039002418518,-8.926445960998535,3.9347951412200928
1759335063791818500,11.072818603515625,-1.0207856893539429,-8.900056838989258,3.989610195159912
1759335063801818400,11.082818359375,-1.0214426517486572,-8.883050918579102,4.027169227600098
1759335063811818500,11.092818603515624,-1.0182371139526367,-8.867864608764648,4.061295986175537
1759335063821818400,11.102818359375,-1.0158289670944214,-8.849637985229492,4.1014814376831055
1759335063831818500,11.112818603515626,-1.023274540901184,-8.825302124023438,4.151727676391602
1759335063841818400,11.122818359375,-1.0346101522445679,-8.798470497131348,4.2055344581604
1759335063851819300,11.1328193359375,-1.03670334815979,-8.774595260620117,4.2546210289001465
1759335063861819100,11.142819091796875,-1.02133047580719,-8.74924373626709,4.3101677894592285
1759335063871819300,11.1528193359375,-0.9684171676635742,-8.717119216918945,4.386795997619629
1759335063881819100,11.162819091796875,-0.9090233445167542,-8.681747436523438,4.468883991241455
1759335063891818800,11.17281884765625,-0.8682061433792114,-8.63917064666748,4.558620929718018
1759335063901819000,11.18281884765625,-0.8486649990081787,-8.594456672668457,4.645983695983887
1759335063911818800,11.19281884765625,-0.8569114208221436,-8.555649757385254,4.715559482574463
1759335063921819000,11.20281884765625,-0.868458092212677,-8.520427703857422,4.7768144607543945
1759335063931818800,11.21281884765625,-0.8750649094581604,-8.486071586608887,4.83642578125
1759335063941819000,11.22281884765625,-0.864552915096283,-8.456156730651855,4.890398979187012
1759335063951818000,11.23281787109375,-0.8343161344528198,-8.426396369934082,4.946708679199219
1759335063961818400,11.242818359375,-0.7862135171890259,-8.400177955627441,4.9989190101623535
1759335063971818200,11.252818359375,-0.7076753973960876,-8.387303352355957,5.032155990600586
1759335063981818400,11.262818359375,-0.5090689063072205,-8.410247802734375,5.017815589904785
1759335063991818200,11.272818359375,-0.3127163052558899,-8.453502655029297,4.960902214050293
1759335064001818400,11.282818359375,-0.15937164425849915,-8.510817527770996,4.86934232711792
1759335064011818200,11.292818359375,-0.01923603191971779,-8.578268051147461,4.752162933349609
1759335064021818400,11.302818359375,0.12770751118659973,-8.652140617370605,4.614556312561035
1759335064031818200,11.312818359375,0.22375088930130005,-8.73357105255127,4.4547295570373535
1759335064041818400,11.322818359375,0.2869318723678589,-8.815070152282715,4.287434101104736
1759335064051819300,11.3328193359375,0.3512076437473297,-8.893084526062012,4.118216514587402
1759335064061819100,11.342819091796875,0.41797730326652527,-8.972552299499512,3.93556547164917
1759335064071819300,11.3528193359375,0.4988152086734772,-9.045044898986816,3.7560958862304688
1759335064081819100,11.362819091796876,0.5952715277671814,-9.102073669433594,3.601125955581665
1759335064091819300,11.3728193359375,0.72750324010849,-9.142852783203125,3.471174478530884
1759335064101819100,11.382819091796875,0.8242574334144592,-9.155868530273438,3.4147725105285645
1759335064111819300,11.3928193359375,0.9098802208900452,-9.154257774353027,3.39734148979187
1759335064121819100,11.402819091796875,1.0067191123962402,-9.140837669372559,3.4061009883880615
1759335064131819300,11.4128193359375,1.1591414213180542,-9.113027572631836,3.4320828914642334
1759335064141819100,11.422819091796875,1.333524227142334,-9.078408241271973,3.460402011871338
1759335064151818200,11.432818359375,1.5379958152770996,-9.036843299865723,3.484265089035034
1759335064161818400,11.442818359375,1.778497576713562,-8.986948013305664,3.498807430267334
1759335064171818200,11.452818359375,2.0559070110321045,-8.928010940551758,3.49772047996521
1759335064181818400,11.462818359375,2.365382432937622,-8.861008644104004,3.4724230766296387
1759335064191818800,11.47281884765625,2.716453790664673,-8.773933410644531,3.4364452362060547
1759335064201819000,11.48281884765625,3.0847105979919434,-8.669468879699707,3.390423059463501
1759335064211818800,11.49281884765625,3.529548406600952,-8.552862167358398,3.2497775554656982
1759335064221819000,11.50281884765625,4.007204055786133,-8.42440128326416,3.023571729660034
1759335064231818800,11.51281884765625,4.477878093719482,-8.284811019897461,2.7350823879241943
1759335064241819000,11.52281884765625,4.928652763366699,-8.128036499023438,2.4111342430114746
1759335064251819500,11.532819580078124,5.354037284851074,-7.952987194061279,2.062631368637085
1759335064261819600,11.542819580078126,5.751655578613281,-7.769503593444824,1.6503016948699951
1759335064271819500,11.552819580078125,6.08098840713501,-7.61231803894043,1.1155741214752197
1759335064281819600,11.562819580078125,6.2525553703308105,-7.5448455810546875,0.38874971866607666
1759335064291819500,11.572819580078125,6.196368217468262,-7.586012840270996,-0.4772217869758606
1759335064301819600,11.582819580078125,5.927419185638428,-7.704666614532471,-1.2938525676727295
1759335064311818800,11.59281884765625,5.562026500701904,-7.852968692779541,-1.8881019353866577
1759335064321818600,11.602818603515624,5.251152515411377,-7.988860130310059,-2.184887409210205
1759335064341818600,11.622818603515626,4.904747009277344,-8.286531448364258,-1.8566436767578125
1759335064351817700,11.632817626953125,4.742945671081543,-8.435185432434082,-1.588211178779602
1759335064361817600,11.642817626953125,4.624091148376465,-8.550522804260254,-1.2948143482208252
1759335064371817700,11.652817626953125,4.546879291534424,-8.635650634765625,-0.9600113034248352
1759335064381817600,11.662817626953125,4.500304698944092,-8.692193984985352,-0.6027493476867676
1759335064391817700,11.672817626953124,4.509790897369385,-8.70527458190918,-0.22419001162052155
1759335064401817600,11.682817626953126,4.602039813995361,-8.657929420471191,0.17799334228038788
1759335064411817700,11.692817626953126,4.779204845428467,-8.542376518249512,0.5976627469062805
1759335064421817600,11.702817626953125,5.031095504760742,-8.356744766235352,1.0115185976028442
1759335064431817700,11.712817626953125,5.354915618896484,-8.097219467163086,1.3892933130264282
1759335064441817600,11.722817626953125,5.7879791259765625,-7.73909854888916,1.6661221981048584
1759335064451818500,11.732818603515625,6.283113479614258,-7.3017659187316895,1.8376519680023193
1759335064461818600,11.742818603515625,6.807733535766602,-6.795013427734375,1.9112398624420166
1759335064471818500,11.752818603515625,7.332394123077393,-6.230379104614258,1.8943753242492676
1759335064481818600,11.762818603515624,7.8349080085754395,-5.614417552947998,1.8063533306121826
1759335064491818500,11.772818603515624,8.304283142089844,-4.943846702575684,1.663615345954895
1759335064501818600,11.782818603515626,8.72839641571045,-4.2180376052856445,1.4810822010040283
1759335064511817700,11.792817626953125,9.094654083251953,-3.4410464763641357,1.2715505361557007
1759335064521817600,11.802817626953125,9.39330005645752,-2.615921974182129,1.0455831289291382
1759335064531817700,11.812817626953125,9.609326362609863,-1.7656421661376953,0.8448323607444763
1759335064551817700,11.832817626953124,9.78060531616211,-0.13845238089561462,0.7006914019584656
1759335064561817600,11.842817626953124,9.759517669677734,0.5488393902778625,0.7880218029022217
1759335064571817700,11.852817626953126,9.699259757995605,1.1515148878097534,0.8767840266227722
1759335064581817600,11.862817626953126,9.620859146118164,1.6577824354171753,0.9280099868774414
1759335064591817700,11.872817626953125,9.544302940368652,2.0600028038024902,0.9127153754234314
1759335064601817600,11.882817626953125,9.482982635498047,2.374230146408081,0.7787466645240784
1759335064611818500,11.892818603515625,9.439579963684082,2.6146347522735596,0.47789889574050903
1759335064621818600,11.902818603515625,9.406938552856445,2.770933151245117,0.04238792136311531
1759335064631818800,11.91281884765625,9.370047569274902,2.8475821018218994,-0.5136846899986267
1759335064641818600,11.922818603515625,9.302262306213379,2.8682548999786377,-1.1880218982696533
1759335064651819500,11.932819580078124,9.180262565612793,2.851996421813965,-1.9388798475265503
1759335064661819400,11.9428193359375,8.988107681274414,2.8213934898376465,-2.7247090339660645
1759335064671819500,11.952819580078126,8.732516288757324,2.807832717895508,-3.468369960784912
1759335064681819400,11.9628193359375,8.435914039611816,2.7948145866394043,-4.146653652191162
1759335064701819400,11.9828193359375,7.6959357261657715,2.765091896057129,-5.412679672241211
1759335064721818600,12.002818603515625,6.892058372497559,2.5687201023101807,-6.486249923706055
1759335064731818800,12.01281884765625,6.698105812072754,2.3614208698272705,-6.76234769821167
1759335064741818600,12.022818603515624,6.621206283569336,2.088796854019165,-6.925808429718018
1759335064751817700,12.032817626953126,6.573084354400635,1.7880191802978516,-7.054635524749756
1759335064761817900,12.04281787109375,6.532701015472412,1.496077060699463,-7.159318923950195
1759335064771817700,12.052817626953125,6.479434967041016,1.2604138851165771,-7.252488136291504
1759335064781817900,12.06281787109375,6.402966499328613,1.1092256307601929,-7.344512939453125
1759335064791817700,12.072817626953125,6.356635093688965,1.1219295263290405,-7.3827290534973145
1759335064801817900,12.08281787109375,6.377565860748291,1.218562126159668,-7.349282741546631
1759335064811818500,12.092818603515624,6.42985200881958,1.4046876430511475,-7.270081520080566
1759335064821818600,12.102818603515624,6.45705509185791,1.6820157766342163,-7.186623573303223
1759335064831818500,12.112818603515626,6.471808910369873,2.0260770320892334,-7.083850860595703
1759335064841818600,12.122818603515626,6.46417760848999,2.395873785018921,-6.974558353424072
1759335064851818800,12.13281884765625,6.418943405151367,2.749502182006836,-6.885322570800781
1759335064861818600,12.142818603515625,6.3617119789123535,3.04433274269104,-6.814027786254883
1759335064871818800,12.15281884765625,6.330359935760498,3.2546143531799316,-6.7456865310668945
1759335064881818600,12.162818603515625,6.329381942749023,3.3714914321899414,-6.68896484375
1759335064891818800,12.17281884765625,6.337714195251465,3.4033915996551514,-6.6648783683776855
1759335064901818600,12.182818603515624,6.362245082855225,3.36724591255188,-6.659863471984863
1759335064911818800,12.19281884765625,6.4518561363220215,3.322822332382202,-6.5956501960754395
1759335064921818600,12.202818603515626,6.637930870056152,3.2894608974456787,-6.4255452156066895
1759335064931818800,12.21281884765625,6.903588771820068,3.2801637649536133,-6.144207000732422
1759335064941818600,12.222818603515625,7.220003604888916,3.2889211177825928,-5.764096260070801
1759335064951818000,12.23281787109375,7.557600975036621,3.3054654598236084,-5.303478240966797
1759335064961817900,12.24281787109375,7.891787052154541,3.320037841796875,-4.781981468200684
1759335064971818000,12.25281787109375,8.194637298583984,3.3300087451934814,-4.234297752380371
1759335064981817900,12.26281787109375,8.44969367980957,3.3433947563171387,-3.687108039855957
1759335064991818000,12.27281787109375,8.645514488220215,3.3616278171539307,-3.1819591522216797
1759335065001817900,12.28281787109375,8.794134140014648,3.4228413105010986,-2.6679041385650635
1759335065011818800,12.29281884765625,8.892112731933594,3.541861057281494,-2.13446044921875
1759335065021818600,12.302818603515625,8.91261100769043,3.7470595836639404,-1.6417282819747925
1759335065031818800,12.31281884765625,8.860440254211426,3.996248245239258,-1.3011351823806763
1759335065041818600,12.322818603515625,8.763273239135742,4.255824565887451,-1.123986840248108
1759335065071819500,12.352819580078124,8.534200668334961,4.767087459564209,-0.7827166318893433
1759335065081819600,12.362819580078124,8.511103630065918,4.82039737701416,-0.7036996483802795
1759335065121819000,12.40281884765625,8.650117874145508,4.581900596618652,-0.593286395072937
1759335065131818800,12.41281884765625,8.725363731384277,4.435098171234131,-0.6068490147590637
1759335065141819000,12.42281884765625,8.791337013244629,4.296131134033203,-0.6527078151702881
1759335065151818800,12.43281884765625,8.844440460205078,4.173001766204834,-0.7295786142349243
1759335065161819000,12.44281884765625,8.884442329406738,4.069454193115234,-0.8225412368774414
1759335065171818800,12.45281884765625,8.910720825195312,3.992056131362915,-0.9126315712928772
1759335065181819000,12.46281884765625,8.921849250793457,3.947869062423706,-0.9926172494888306
1759335065191818800,12.47281884765625,8.91215705871582,3.950376033782959,-1.0669348239898682
1759335065201819000,12.48281884765625,8.884495735168457,3.987413167953491,-1.1561230421066284
1759335065211818800,12.49281884765625,8.844549179077148,4.039234638214111,-1.276278018951416
1759335065221818600,12.502818603515625,8.798379898071289,4.090230941772461,-1.4243824481964111
1759335065231818800,12.51281884765625,8.755087852478027,4.124671936035156,-1.5830048322677612
1759335065241818600,12.522818603515624,8.730052947998047,4.120933532714844,-1.7246593236923218
1759335065251819500,12.532819580078124,8.716683387756348,4.099359512329102,-1.8398386240005493
1759335065261819600,12.542819580078126,8.711114883422852,4.077703475952148,-1.9128984212875366
1759335065271819500,12.552819580078125,8.701416969299316,4.0789971351623535,-1.9538377523422241
1759335065281819600,12.562819580078125,8.68585205078125,4.1112565994262695,-1.955475091934204
1759335065291819500,12.572819580078125,8.667074203491211,4.173737049102783,-1.9058054685592651
1759335065301819400,12.5828193359375,8.647562026977539,4.252591609954834,-1.818100094795227
1759335065311819500,12.592819580078125,8.628668785095215,4.330883979797363,-1.720426082611084
1759335065321819400,12.6028193359375,8.610248565673828,4.39524507522583,-1.647970199584961
1759335065331819500,12.612819580078124,8.597372055053711,4.436535835266113,-1.6039637327194214
1759335065341819400,12.6228193359375,8.594893455505371,4.450456142425537,-1.5784832239151
1759335065351818500,12.632818603515625,8.600686073303223,4.444252014160156,-1.5643529891967773
1759335065361818600,12.642818603515625,8.613273620605469,4.423783779144287,-1.553066611289978
1759335065371818500,12.652818603515625,8.62632942199707,4.404278755187988,-1.535943865776062
1759335065381818600,12.662818603515625,8.640023231506348,4.385150909423828,-1.5135414600372314
1759335065401818600,12.682818603515624,8.669307708740234,4.341756820678711,-1.4705722332000732
1759335065411819500,12.692819580078124,8.680155754089355,4.32845401763916,-1.445591926574707
1759335065421819400,12.7028193359375,8.686066627502441,4.3263983726501465,-1.415934443473816
1759335065431819500,12.712819580078126,8.686958312988281,4.335524082183838,-1.3821485042572021
1759335065441819400,12.7228193359375,8.681235313415527,4.357665538787842,-1.3480533361434937
1759335065461819400,12.7428193359375,8.653182983398438,4.4285149574279785,-1.2965399026870728
1759335065471819500,12.752819580078125,8.634553909301758,4.4718122482299805,-1.2719064950942993
1759335065481819400,12.7628193359375,8.617006301879883,4.514142990112305,-1.240988850593567
1759335065491819500,12.772819580078124,8.60305118560791,4.552034378051758,-1.1986881494522095
1759335065501819400,12.7828193359375,8.59354305267334,4.58459997177124,-1.1414101123809814
1759335065511819500,12.792819580078126,8.590206146240234,4.609066009521484,-1.065470814704895
1759335065521819400,12.8028193359375,8.593405723571777,4.623582363128662,-0.9727315306663513
1759335065531819500,12.812819580078125,8.602733612060547,4.626284599304199,-0.8722515106201172
1759335065541819400,12.8228193359375,8.614441871643066,4.621531963348389,-0.7766520380973816
1759335065551818500,12.832818603515625,8.6267671585083,4.611010551452637,-0.6984329223632812
1759335065571818200,12.852818359375,8.641398429870605,4.593603134155273,-0.6287992596626282
1759335065581818000,12.862818115234376,8.642083168029785,4.591763019561768,-0.6328108310699463
1759335065591818200,12.872818359375,8.640143394470215,4.592835426330566,-0.651257336139679
1759335065601818400,12.882818359375,8.639720916748047,4.592019081115723,-0.6625209450721741
1759335065611818200,12.892818359375,8.639424324035645,4.592922210693359,-0.6601235270500183
1759335065621818400,12.902818359375,8.636322021484375,4.6005048751831055,-0.6477966904640198
1759335065631818200,12.912818359375,8.627573013305664,4.619512557983398,-0.6288242936134338
1759335065641818400,12.922818359375,8.609719276428223,4.655437469482422,-0.6082738041877747
1759335065651819300,12.9328193359375,8.585245132446289,4.703101634979248,-0.5871638059616089
1759335065661819100,12.942819091796874,8.558952331542969,4.753472805023193,-0.5649526715278625
1759335065671819300,12.9528193359375,8.534796714782715,4.798694133758545,-0.5478774905204773
1759335065681819100,12.962819091796876,8.5156888961792,4.832389831542969,-0.5489827990531921
1759335065691819300,12.9728193359375,8.500831604003906,4.852914333343506,-0.5961682200431824
1759335065701819100,12.982819091796875,8.499242782592773,4.843886852264404,-0.6855478882789612
1759335065711819300,12.9928193359375,8.511086463928223,4.816057205200195,-0.7330428957939148
1759335065721819100,13.002819091796875,8.531959533691406,4.78018856048584,-0.7251344919204712
1759335065731819300,13.0128193359375,8.552355766296387,4.751271724700928,-0.6730340123176575
1759335065741819100,13.022819091796874,8.566876411437988,4.735388278961182,-0.5958774089813232
1759335065751818500,13.032818603515626,8.569637298583984,4.7374162673950195,-0.5371984243392944
1759335065761818400,13.042818359375,8.561214447021484,4.756537914276123,-0.501288890838623
1759335065771818500,13.052818603515625,8.545755386352539,4.787110805511475,-0.4732898771762848
1759335065781818000,13.062818115234375,8.530190467834473,4.818226337432861,-0.43689650297164917
1759335065791818200,13.072818359375,8.521317481994629,4.838449478149414,-0.38325655460357666
1759335065801818000,13.082818115234375,8.5204496383667,4.84462833404541,-0.3191603422164917
1759335065811818200,13.092818359375,8.527021408081055,4.8367156982421875,-0.2577671408653259
1759335065821818000,13.102818115234374,8.540328025817871,4.815296173095703,-0.21457156538963318
1759335065831818200,13.112818359375,8.551434516906738,4.796356201171875,-0.19571079313755035
1759335065851819000,13.132819091796875,8.558362007141113,4.782541751861572,-0.2282029092311859
1759335065861819400,13.1428193359375,8.5563383102417,4.784865379333496,-0.25399917364120483
