time,seconds_elapsed,z,y,x
1759335052789451800,0.07045166015625,0.6081926822662354,-1.3068698644638062,-0.0679587572813034
1759335052822518500,0.1035185546875,0.6081926822662354,-1.3068698644638062,-0.0679587572813034
1759335052832518700,0.1135185546875,0.15431983768939972,-1.179809808731079,0.24602597951889038
1759335052842518500,0.1235185546875,0.15126550197601318,-1.2525027990341187,0.25641068816185
1759335052852518700,0.1335185546875,0.21418462693691254,-1.1645382642745972,0.22403483092784882
1759335052882518500,0.1635185546875,0.3638466000556946,0.16775886714458466,-0.23167064785957336
1759335052892518700,0.1735185546875,0.2514474093914032,0.4078288972377777,-0.25732699036598206
1759335052902518500,0.1835185546875,0.1659262776374817,0.5049564838409424,-0.24755313992500305
1759335052912518700,0.1935185546875,0.07918340712785721,0.4542546570301056,-0.2054034322500229
1759335052922518500,0.2035185546875,0.016264287754893303,0.3974441885948181,-0.13454307615756989
1759335052932518700,0.2135185546875,-0.011224648915231228,0.29848402738571167,-0.08994990587234497
1759335052942518500,0.2235185546875,-0.011835514567792416,0.1653154045343399,-0.047800205647945404
1759335052952516900,0.233516845703125,0.008323038928210735,0.02603813074529171,-0.008704829961061478
1759335052962517000,0.24351708984375,0.056581392884254456,-0.10468703508377075,-0.0007635815418325365
1759335052972516900,0.253516845703125,0.11644618958234787,-0.2879466116428375,0.004123340360820293
1759335052982517000,0.26351708984375,0.2160172164440155,-0.6184247136116028,0.025503624230623245
1759335052992516900,0.273516845703125,0.23800836503505707,-0.7454846501350403,0.04382958263158798
1759335053002517000,0.28351708984375,0.2056325078010559,-0.800462543964386,0.027947084978222847
1759335053012516900,0.293516845703125,0.1298852264881134,-0.8646034002304077,0.003512475173920393
1759335053022517000,0.30351708984375,0.03275764733552933,-0.9220247268676758,0.08536841720342636
1759335053032516900,0.313516845703125,-0.03321579843759537,-1.0307587385177612,0.1837177276611328
1759335053042517000,0.32351708984375,-0.014278975315392017,-1.3306936025619507,0.27779096364974976
1759335053052516900,0.333516845703125,0.05902485549449921,-1.4534775018692017,0.38408151268959045
1759335053062517000,0.34351708984375,0.2709950804710388,-1.4546992778778076,0.46593746542930603
1759335053072516900,0.353516845703125,0.4322635233402252,-1.3948343992233276,0.4573853611946106
1759335053082517000,0.36351708984375,0.5807037949562073,-1.1834750175476074,0.47448956966400146
1759335053092516900,0.373516845703125,0.5825363397598267,-1.143157958984375,0.46105054020881653
1759335053102517000,0.38351708984375,0.5391649603843689,-1.2134073972702026,0.4934264123439789
1759335053112516900,0.393516845703125,0.48235446214675903,-1.4455362558364868,0.5331326723098755
1759335053122517000,0.40351708984375,0.45181119441986084,-1.902463436126709,0.6198754906654358
1759335053132516900,0.413516845703125,0.47074803709983826,-2.6074018478393555,0.7567093372344971
1759335053142517000,0.42351708984375,0.5855907201766968,-3.501708745956421,0.9149234294891357
1759335053152516000,0.43351611328125,0.8195520639419556,-4.3996806144714355,1.1439979076385498
1759335053162516000,0.443515869140625,1.098717451095581,-5.2316789627075195,1.3877331018447876
1759335053172516000,0.45351611328125,1.3815481662750244,-5.928676128387451,1.6186401844024658
1759335053182516000,0.463515869140625,1.6466636657714844,-6.47173547744751,1.8684840202331543
1759335053192516000,0.47351611328125,1.8891770839691162,-6.848028659820557,2.1091649532318115
1759335053202516000,0.483515869140625,2.147573232650757,-7.041672706604004,2.330909013748169
1759335053212516000,0.49351611328125,2.511038064956665,-7.193167209625244,2.7371344566345215
1759335053222516000,0.503515869140625,2.68941068649292,-7.313507556915283,3.0694451332092285
1759335053232516000,0.51351611328125,2.717510461807251,-7.39292049407959,3.4634532928466797
1759335053242516000,0.523515869140625,2.5318074226379395,-7.308620929718018,3.8977785110473633
1759335053252516900,0.533516845703125,2.173840284347534,-6.9677581787109375,4.274071216583252
1759335053262517000,0.54351708984375,1.7578411102294922,-6.358114719390869,4.408461570739746
1759335053272516900,0.553516845703125,1.3296245336532593,-5.592089653015137,4.18916130065918
1759335053282517000,0.56351708984375,0.8891907334327698,-4.612261772155762,3.660151720046997
1759335053292516900,0.573516845703125,0.4890739917755127,-3.418631076812744,2.8733572959899902
1759335053302517000,0.58351708984375,0.2105194330215454,-2.3166301250457764,1.7951802015304565
1759335053312516000,0.59351611328125,0.15370896458625793,-1.382006287574768,0.7188356518745422
1759335053322516000,0.603515869140625,0.03214678168296814,-0.29649871587753296,-0.6385068893432617
1759335053332516000,0.61351611328125,-0.2500729560852051,0.08284860104322433,-1.1491901874542236
1759335053342516000,0.623515869140625,-0.36858081817626953,-0.07047858089208603,-1.3171781301498413
1759335053352515000,0.63351513671875,-0.4107305109500885,-0.41745004057884216,-1.108262300491333
1759335053362515200,0.64351513671875,-0.40889793634414673,-0.7479281425476074,-0.6305656433105469
1759335053372515000,0.65351513671875,-0.40767619013786316,-0.9263007640838623,-0.05451972410082817
1759335053382515200,0.66351513671875,-0.4400520622730255,-1.0832931995391846,0.3266601860523224
1759335053392515000,0.67351513671875,-0.5005277395248413,-1.2127965688705444,0.4665483236312866
1759335053402515200,0.68351513671875,-0.5359578728675842,-1.2091313600540161,0.4518875777721405
1759335053412515000,0.69351513671875,-0.5438991189002991,-1.0698541402816772,0.3773620128631592
1759335053422515200,0.70351513671875,-0.5836054086685181,-0.8896488547325134,0.29245173931121826
1759335053432515000,0.71351513671875,-0.6172029972076416,-0.7528150677680969,0.20754146575927734
1759335053442515200,0.72351513671875,-0.6025422215461731,-0.5274057984352112,0.2142609804868698
1759335053452516000,0.73351611328125,-0.4913647174835205,-0.35819610953330994,0.17272214591503143
1759335053462516000,0.743515869140625,-0.3655264973640442,-0.11690433323383331,0.0981965884566307
1759335053472516000,0.75351611328125,-0.31604641675949097,0.24289529025554657,0.060933809727430344
1759335053482516000,0.763515869140625,-0.3844633102416992,0.45486554503440857,0.0529925599694252
1759335053492516000,0.77351611328125,-0.4107305109500885,0.4786892831325531,0.057879481464624405
1759335053502516000,0.783515869140625,-0.40889793634414673,0.44081562757492065,0.05054909735918045
1759335053512516600,0.7935166015625,-0.3288745880126953,0.28015807271003723,-0.02825251780450344
1759335053522516500,0.8035166015625,-0.29710957407951355,0.14882203936576843,-0.11743884533643723
1759335053532516600,0.8135166015625,-0.48403435945510864,0.05230533704161644,-0.22800545394420624
1759335053542516500,0.8235166015625,-0.7082219123840332,0.038866300135850906,-0.1944078654050827
1759335053552515600,0.833515625,-1.107116937637329,0.16775886714458466,0.09941831976175308
1759335053562515700,0.843515625,-1.1474339962005615,0.08590292185544968,0.10430523753166199
1759335053572515600,0.853515625,-1.105284333229065,-0.02955060638487339,0.06643159687519073
1759335053582515700,0.863515625,-1.0014371871948242,-0.20670153200626373,0.08414668589830399
1759335053592515600,0.873515625,-0.771140992641449,-0.31115949153900146,0.07620543986558914
1759335053602515700,0.883515625,-0.5646685361862183,-0.1431715488433838,-0.019089538604021072
1759335053612516600,0.8935166015625,-0.5048037767410278,0.06513350456953049,-0.1589776873588562
1759335053622516500,0.9035166015625,-0.554283857345581,0.18669569492340088,-0.20845776796340942
1759335053632516600,0.9135166015625,-0.6538549065589905,0.21723894774913788,-0.1333213448524475
1759335053642516500,0.9235166015625,-0.6727917194366455,0.20196732878684998,-0.035582900047302246
1759335053652517400,0.933517333984375,-0.657520055770874,0.11339186131954193,0.040164388716220856
1759335053662517200,0.943517333984375,-0.47487136721611023,-0.08636107295751572,0.10735956579446793
1759335053672517400,0.953517333984375,-0.12545645236968994,-0.4296673536300659,0.2503020465373993
1759335053682517200,0.963517333984375,0.007712173741310835,-0.5555055737495422,0.32910364866256714
1759335053692517400,0.973517333984375,0.08345946669578552,-0.5622251033782959,0.4024074673652649
1759335053702517200,0.983517333984375,0.00038179077091626823,-0.6428593397140503,0.4017966091632843
1759335053712517400,0.993517333984375,-0.11934779584407806,-0.8725446462631226,0.355981707572937
1759335053722517200,1.003517333984375,-0.0924697294831276,-0.9751700162887573,0.327271044254303
1759335053732517400,1.013517333984375,0.09689849615097046,-0.9299659729003906,0.17577648162841797
1759335053742517200,1.023517333984375,0.2807689309120178,-0.7558693885803223,0.10064005106687546
1759335053752516600,1.0335166015625,0.35101842880249023,-0.6520223021507263,-0.012980886735022068
1759335053762516500,1.0435166015625,0.3064252734184265,-0.7210500836372375,-0.15836681425571442
1759335053772516600,1.0535166015625,0.25389087200164795,-0.7656432390213013,-0.06368270516395569
1759335053782516500,1.0635166015625,0.10850493609905243,-0.752204179763794,0.3761402666568756
1759335053792516600,1.0735166015625,-0.051541756838560104,-0.9159160852432251,0.5496259927749634
1759335053802516500,1.0835166015625,-0.1938733607530594,-0.943405032157898,0.585667073726654
1759335053812516000,1.09351611328125,-0.20914499461650848,-0.829784095287323,0.5862779021263123
1759335053822516000,1.103515869140625,-0.1975385546684265,-0.6440810561180115,0.43417248129844666
1759335053832516000,1.11351611328125,-0.18959729373455048,-0.4314999282360077,0.31810808181762695
1759335053842516000,1.123515869140625,-0.14683672785758972,-0.21281017363071442,0.25824329257011414
1759335053852516900,1.133516845703125,-0.05093089118599892,-0.04970915988087654,0.24846944212913513
1759335053862517000,1.14351708984375,0.0071013085544109344,0.07307475805282593,0.09208793938159943
1759335053872516900,1.153516845703125,0.07857254147529602,0.3229186534881592,-0.16081027686595917
1759335053882517000,1.16351708984375,0.1298852264881134,0.44081562757492065,-0.37522396445274353
1759335053892516900,1.173516845703125,0.2007455974817276,0.29420796036720276,-0.35262197256088257
1759335053902517000,1.18351708984375,0.32352951169013977,-0.535347044467926,0.004734205547720194
1759335053912516900,1.193516845703125,0.5306128263473511,-1.0338131189346313,0.3614795207977295
1759335053922517000,1.20351708984375,0.7370852828025818,-1.314811110496521,0.5874996781349182
1759335053932516900,1.213516845703125,0.777402400970459,-1.421101689338684,0.7200574278831482
1759335053942517000,1.22351708984375,0.5532148480415344,-1.371010661125183,0.7695375084877014
1759335053952516000,1.23351611328125,0.19463694095611572,-1.2848787307739258,0.49586987495422363
1759335053962516000,1.243515869140625,0.13171781599521637,-1.0576368570327759,-0.18035796284675598
1759335053972515800,1.253515869140625,0.4383721649646759,-0.27084237337112427,-0.9586002826690674
1759335053982515700,1.263515625,0.8757516741752625,0.8109999895095825,-1.5016595125198364
1759335053992515800,1.273515869140625,1.250822901725769,1.624672532081604,-1.6549866199493408
1759335054002515700,1.283515625,1.7205783128738403,2.248365879058838,-1.3910928964614868
1759335054012515800,1.293515869140625,2.5202009677886963,2.7138452529907227,-0.42409318685531616
1759335054022515700,1.303515625,2.905045986175537,2.718121290206909,0.4231768846511841
1759335054032515800,1.313515869140625,3.153057336807251,2.0205130577087402,1.153160810470581
1759335054042515700,1.323515625,3.1988723278045654,0.8134434223175049,1.4885258674621582
1759335054052516600,1.3335166015625,3.035771131515503,-0.16149750351905823,1.3590224981307983
1759335054062516700,1.343516845703125,2.8580093383789062,-0.4302782118320465,0.860556423664093
1759335054072516600,1.3535166015625,2.9093220233917236,-0.6086508631706238,0.6210972666740417
1759335054082516700,1.363516845703125,2.6380980014801025,-0.6654613018035889,0.9106473922729492
1759335054092516600,1.3735166015625,2.1390209197998047,-0.4363868534564972,0.7499898076057434
1759335054102516700,1.383516845703125,1.7676149606704712,-0.006337726954370737,0.42439863085746765
1759335054112516600,1.3935166015625,1.6668221950531006,0.41027235984802246,0.3016147017478943
1759335054122516700,1.403516845703125,1.5904639959335327,0.7297548651695251,0.2893974184989929
1759335054132516600,1.4135166015625,1.4383585453033447,0.7786241173744202,0.38896843791007996
1759335054142516700,1.423516845703125,1.415145754814148,0.5556582808494568,0.4934264123439789
1759335054152515800,1.433515869140625,1.5629750490188599,0.033368512988090515,0.6925684809684753
1759335054162515700,1.443515625,1.6814829111099243,-0.48953214287757874,0.7719809412956238
1759335054172515800,1.453515869140625,1.8513034582138062,-0.8279514908790588,0.7530441284179688
1759335054182515700,1.463515625,1.9612592458724976,-0.868268609046936,0.6546948552131653
1759335054201818600,1.482818603515625,1.671098232269287,-0.9544005990028381,0.7310529947280884
1759335054211818500,1.492818603515625,1.4621822834014893,-0.7051675915718079,0.841619610786438
1759335054221818600,1.502818603515625,1.1268173456192017,-0.29710957407951355,0.8465065360069275
1759335054231818500,1.512818603515625,0.8317694067955017,0.030925052240490913,0.8452847599983215
1759335054241818600,1.522818603515625,0.5434409976005554,0.26427558064460754,1.0517572164535522
1759335054251819500,1.532819580078125,0.21846067905426025,0.2716059684753418,1.116508960723877
1759335054261819400,1.5428193359375,-0.2537381649017334,0.2917645275592804,0.95462965965271
1759335054271819800,1.55281982421875,-0.7070001363754272,0.4023311138153076,0.7341073155403137
1759335054281819600,1.562819580078125,-1.0533607006072998,0.8336020112037659,0.5740606188774109
1759335054291819800,1.57281982421875,-1.276937484741211,1.3888784646987915,0.2252565622329712
1759335054301819600,1.582819580078125,-1.4137712717056274,1.9154443740844727,-0.06185010448098183
1759335054311818800,1.59281884765625,-1.501735806465149,2.237981081008911,-0.18646661937236786
1759335054321819000,1.60281884765625,-1.6410131454467773,2.217822551727295,-0.2970332205295563
1759335054331818800,1.61281884765625,-1.8560377359390259,1.994246006011963,-0.42470407485961914
1759335054341819000,1.62281884765625,-2.1138229370117188,1.7828866243362427,-0.3397938013076782
1759335054351818000,1.63281787109375,-2.343508243560791,1.6307811737060547,-0.036193765699863434
1759335054361817900,1.64281787109375,-2.8163177967071533,0.8580365777015686,0.5966626405715942
1759335054371818000,1.65281787109375,-3.0069077014923096,0.230677992105484,0.9393580555915833
1759335054381817900,1.66281787109375,-2.7436249256134033,0.07857254147529602,0.4024074673652649
1759335054391818000,1.67281787109375,-2.1773529052734375,0.3259729743003845,-0.4619668424129486
1759335054401817900,1.68281787109375,-1.8713092803955078,0.43165266513824463,-0.9048441648483276
1759335054411818000,1.69281787109375,-1.8603137731552124,-0.01488984003663063,-0.7887797355651855
1759335054421817900,1.70281787109375,-1.8083901405334473,-0.535347044467926,-0.3856086730957031
1759335054431818000,1.71281787109375,-1.5903112888336182,-0.7124979496002197,-0.07590000331401825
1759335054441817900,1.72281787109375,-1.2152400016784668,-0.5408447980880737,0.05054909735918045
1759335054451818800,1.73281884765625,-1.0240392684936523,-0.20609065890312195,0.12751811742782593
1759335054461819000,1.74281884765625,-1.0124328136444092,-0.02955060638487339,0.1586722433567047
1759335054471818800,1.75281884765625,-1.0411434173583984,0.0443640872836113,0.11530081182718277
1759335054481819000,1.76281884765625,-1.0325913429260254,0.11827878654003143,0.06643159687519073
1759335054491818800,1.77281884765625,-1.007545828819275,0.2471713423728943,-0.020311269909143448
1759335054501819000,1.78281884765625,-1.058247685432434,0.29848402738571167,-0.10277807712554932
1759335054511818000,1.79281787109375,-1.2121857404708862,0.15798501670360565,-0.13209961354732513
1759335054521817900,1.80281787109375,-1.4033865928649902,-0.15599970519542694,-0.21884247660636902
1759335054531818000,1.81281787109375,-1.5768722295761108,-0.34292447566986084,-0.35323283076286316
1759335054541817900,1.82281787109375,-1.446147084236145,-0.1578323096036911,-0.4662429094314575
1759335054551817000,1.83281689453125,-1.313589334487915,0.11827878654003143,-0.5658139586448669
1759335054561817000,1.842817138671875,-1.1901946067810059,0.3082578778266907,-0.5511531829833984
1759335054571817000,1.85281689453125,-1.1853076219558716,0.3589596748352051,-0.5151121020317078
1759335054581817000,1.862817138671875,-1.3685672283172607,0.18852828443050385,-0.4717406928539276
1759335054591817000,1.87281689453125,-1.476690411567688,0.06207918003201485,-0.4680754840373993
1759335054601817000,1.882817138671875,-1.4296537637710571,0.08345946669578552,-0.380721777677536
1759335054611818000,1.89281787109375,-1.314811110496521,-0.2183079719543457,-0.23655757308006287
1759335054621817900,1.90281787109375,-1.1144472360610962,-0.6813437938690186,-0.058184914290905
1759335054631818000,1.91281787109375,-0.8065711855888367,-0.953178882598877,0.09269879758358002
1759335054641817900,1.92281787109375,-0.515188455581665,-0.9879981875419617,0.2454151064157486
1759335054651818800,1.93281884765625,-0.37224599719047546,-0.8884271383285522,0.33948835730552673
1759335054661819000,1.94281884765625,-0.23968824744224548,-0.49441906809806824,0.27840182185173035
1759335054671818800,1.95281884765625,-0.1278999149799347,0.11217013001441956,0.0780380368232727
1759335054681819000,1.96281884765625,-0.08391761034727097,0.5434409976005554,-0.13637566566467285
1759335054691818800,1.97281884765625,-0.05826127156615257,0.6094144582748413,-0.18646661937236786
1759335054701819000,1.98281884765625,0.01748601719737053,0.4224896728992462,-0.02519819140434265
1759335054711818800,1.99281884765625,0.05474879592657089,0.1396590620279312,0.13973543047904968
1759335054721819000,2.00281884765625,0.15859588980674744,-0.22197316586971283,0.23075434565544128
1759335054731818800,2.01281884765625,0.2777146100997925,-0.47426050901412964,0.3266601860523224
1759335054741819000,2.02281884765625,0.3675118088722229,-0.5897140502929688,0.31261029839515686
1759335054751818000,2.03281787109375,0.5544365644454956,-0.4565454125404358,0.2515237629413605
1759335054761818000,2.042818115234375,0.825049877166748,-0.39179369807243347,0.0981965884566307
1759335054771818000,2.05281787109375,1.090165376663208,-0.39729148149490356,-0.059406645596027374
1759335054781818000,2.062818115234375,1.6075682640075684,-0.16088663041591644,-0.05757404863834381
1759335054791818000,2.07281787109375,2.077934503555298,-0.0771980956196785,-0.14676037430763245
1759335054801818000,2.082818115234375,2.447507858276367,-0.13461942970752716,-0.050854530185461044
1759335054811818800,2.09281884765625,2.723008155822754,-0.0918588638305664,-0.06551529467105865
1759335054821819000,2.10281884765625,2.7614927291870117,0.1702023297548294,-0.22617286443710327
1759335054831818800,2.11281884765625,2.6521477699279785,0.1298852264881134,-0.4931209683418274
1759335054841819000,2.12281884765625,2.4737751483917236,-0.16088663041591644,-0.6818783283233643
1759335054851819800,2.13281982421875,2.1524600982666016,-0.3850741684436798,-0.41920626163482666
1759335054861819600,2.142819580078125,1.8653533458709717,-0.7412086129188538,0.12690725922584534
1759335054871819800,2.15281982421875,1.2447142601013184,-1.1107821464538574,0.36819902062416077
1759335054881819600,2.162819580078125,0.7651850581169128,-1.0863474607467651,0.4531092941761017
1759335054891819800,2.17281982421875,0.5141194462776184,-0.6862307190895081,0.3908010423183441
1759335054901819600,2.182819580078125,0.47563496232032776,-0.17432567477226257,0.1598939746618271
1759335054911819800,2.19281982421875,0.5348888635635376,0.3876703679561615,-0.06001751124858856
1759335054921819600,2.202819580078125,0.5501605272293091,0.9209557175636292,-0.1895209401845932
1759335054931819800,2.21281982421875,0.35040757060050964,1.235551357269287,-0.2866485118865967
1759335054941820000,2.22281982421875,0.18364135921001434,1.1793516874313354,-0.3000875413417816
1759335054951819000,2.232819091796875,0.05535966157913208,0.9618836641311646,-0.2719877362251282
1759335054961819000,2.24281884765625,-0.02099849283695221,0.5886450409889221,-0.20662516355514526
1759335054971819000,2.252819091796875,-0.06620252132415771,0.030925052240490913,-0.0887281745672226
1759335054981819000,2.26281884765625,-0.09552405029535294,-0.8340601325035095,0.024892758578062057
1759335054991819000,2.272819091796875,-0.06925684958696365,-1.5793157815933228,0.1696678251028061
1759335055001819000,2.28281884765625,0.03275764733552933,-1.7442493438720703,0.34987306594848633
1759335055011819000,2.292819091796875,0.18180876970291138,-1.599474310874939,0.42562034726142883
1759335055021819000,2.30281884765625,0.35590535402297974,-1.3001502752304077,0.3914119005203247
1759335055031819000,2.312819091796875,0.5073999166488647,-1.1162798404693604,0.37919458746910095
1759335055041819000,2.32281884765625,0.8604800701141357,-1.6801085472106934,0.6546948552131653
1759335055051819800,2.33281982421875,1.054124355316162,-2.0405189990997314,1.0047205686569214
1759335055061819600,2.342819580078125,1.0388526916503906,-2.1688005924224854,1.088409185409546
1759335055071819800,2.35281982421875,0.9270643591880798,-1.8652006387710571,0.983340322971344
1759335055081819600,2.362819580078125,0.825049877166748,-1.6520086526870728,0.7298312783241272
1759335055091819800,2.37281982421875,0.6717227101325989,-1.5249487161636353,0.3962988257408142
1759335055101819600,2.382819580078125,0.605749249458313,-1.0472520589828491,0.17638733983039856
1759335055111819800,2.39281982421875,0.6167448163032532,-0.3759112060070038,0.10430523753166199
1759335055121819600,2.402819580078125,0.5904776453971863,0.2575560510158539,-0.035582900047302246
1759335055131819800,2.41281982421875,0.4902957081794739,0.8910233378410339,-0.19746218621730804
1759335055141819600,2.422819580078125,0.12072224169969559,1.5525903701782227,-0.27748554944992065
1759335055151818800,2.43281884765625,-0.353920042514801,1.914833426475525,-0.3263547718524933
1759335055161819000,2.44281884765625,-0.5866597294807434,1.4609606266021729,-0.3257438838481903
1759335055171818800,2.45281884765625,-0.48342347145080566,0.8299368023872375,-0.2554943859577179
1759335055181819000,2.46281884765625,-0.3307071626186371,0.038866300135850906,-0.2597704529762268
1759335055191818800,2.47281884765625,-0.27084237337112427,-0.7454846501350403,-0.3929390609264374
1759335055201819000,2.48281884765625,-0.2745075821876526,-1.1553752422332764,-0.584750771522522
1759335055211818800,2.49281884765625,-0.07292203605175018,-0.8065711855888367,-0.5529857873916626
1759335055221819000,2.50281884765625,0.17081318795681,0.07246389240026474,-0.2347249686717987
1759335055231818800,2.51281884765625,0.07063129544258118,1.0015898942947388,0.12751811742782593
1759335055241819000,2.52281884765625,-0.3032182455062866,1.7034740447998047,0.3926336467266083
1759335055251819800,2.53281982421875,-0.8646034002304077,2.2392029762268066,0.6320928335189819
1759335055261819600,2.542819580078125,-1.4528666734695435,2.3112850189208984,0.7206682562828064
1759335055271819800,2.55281982421875,-2.0270800590515137,1.453019380569458,0.4628831446170807
1759335055281819600,2.562819580078125,-2.125429153442383,0.8665887117385864,0.3364340364933014
1759335055291819800,2.57281982421875,-1.967826008796692,0.5245041847229004,0.23136521875858307
1759335055301819600,2.582819580078125,-1.5487724542617798,0.8500953316688538,0.29794952273368835
1759335055311819800,2.59281982421875,-0.9574549198150635,1.3406201601028442,0.24358251690864563
1759335055321819600,2.602819580078125,-0.6569092273712158,1.9960784912109375,0.07620543986558914
1759335055331819800,2.61281982421875,-0.4400520622730255,2.4004714488983154,0.021838432177901268
1759335055341819600,2.622819580078125,-0.30138564109802246,2.5537984371185303,0.0633772686123848
1759335055351818800,2.63281884765625,-0.29161179065704346,2.432236433029175,0.06643159687519073
1759335055361819000,2.64281884765625,-0.5933791995048523,2.193387985229492,0.25763240456581116
1759335055371818800,2.65281884765625,-0.8279514908790588,1.5305992364883423,0.46593746542930603
1759335055381819000,2.66281884765625,-0.8982009887695312,0.3840051591396332,0.698066234588623
1759335055391818800,2.67281884765625,-0.8474991917610168,-0.1877647042274475,0.9179777503013611
1759335055401819000,2.68281884765625,-0.8591055870056152,-0.5457317233085632,1.1433870792388916
1759335055411818800,2.69281884765625,-0.7888560891151428,-0.7803040146827698,1.1946996450424194
1759335055421819000,2.70281884765625,-0.5341253280639648,-0.9342420101165771,0.9723447561264038
1759335055431818800,2.71281884765625,-0.26229026913642883,-0.3392592966556549,0.7286095023155212
1759335055441819000,2.72281884765625,-0.01366810966283083,0.059635721147060394,0.27779096364974976
1759335055451819800,2.73281982421875,0.1811978965997696,0.30459266901016235,0.02977968007326126
1759335055461819600,2.742819580078125,0.27527114748954773,0.3565162420272827,-0.029474247246980667
1759335055471819800,2.75281982421875,0.2166280895471573,0.24045182764530182,-0.02825251780450344
1759335055481819600,2.762819580078125,0.1347721517086029,0.4029420018196106,0.08781187981367111
1759335055491819800,2.77281982421875,-0.039324451237916946,0.9179013967514038,0.42989641427993774
1759335055501819600,2.782819580078125,-0.04237877577543259,0.8439866900444031,0.5673410892486572
1759335055511819800,2.79281982421875,0.09628763794898987,1.1213195323944092,0.15256360173225403
1759335055521819600,2.802819580078125,0.3174208402633667,0.7847327589988708,-0.45524731278419495
1759335055531819800,2.81281982421875,0.39561161398887634,0.2832123935222626,-0.7154759168624878
1759335055541819600,2.822819580078125,0.4597524404525757,-0.2726749777793884,-0.632398247718811
1759335055551818800,2.83281884765625,0.5318345427513123,-0.6911176443099976,-0.39416080713272095
1759335055561819000,2.84281884765625,0.5874232649803162,-0.9067531228065491,-0.23105977475643158
1759335055571818800,2.85281884765625,0.6931029558181763,-0.8969792723655701,-0.23105977475643158
1759335055581819000,2.86281884765625,0.8482627272605896,-0.7448738217353821,-0.3507893681526184
1759335055591818800,2.87281884765625,0.9789879322052002,-0.6324746012687683,-0.5328271985054016
1759335055601819000,2.88281884765625,0.956996738910675,-0.4669301211833954,-0.6611089110374451
1759335055611818800,2.89281884765625,1.080391526222229,-0.20242546498775482,-0.49067750573158264
1759335055621819000,2.90281884765625,0.8647561073303223,-0.5817728042602539,-0.2554943859577179
1759335055631818800,2.91281884765625,0.5941427946090698,-1.0124328136444092,0.10430523753166199
1759335055641819000,2.92281884765625,0.4579198658466339,-1.4601969718933105,0.4011857509613037
1759335055651819800,2.93281982421875,0.40599632263183594,-1.571374535560608,0.660803496837616
1759335055661819600,2.942819580078125,0.1659262776374817,-1.6061937808990479,0.7426594495773315
1759335055671819800,2.95281982421875,-0.02955060638487339,-1.6904932260513306,0.7579310536384583
1759335055681819600,2.962819580078125,-0.052152618765830994,-1.9910389184951782,0.546571671962738
1759335055691819800,2.97281982421875,0.2257910668849945,-1.9867628812789917,0.22831088304519653
1759335055701819600,2.982819580078125,0.12927435338497162,-1.856648564338684,-0.13148874044418335
1759335055711819800,2.99281982421875,0.021762074902653694,-1.313589334487915,-0.32268956303596497
1759335055721819600,3.002819580078125,-0.05093089118599892,-0.771751880645752,-0.30863967537879944
1759335055731819800,3.01281982421875,-0.3814089894294739,-0.36308303475379944,-0.3214678466320038
1759335055741819600,3.022819580078125,-0.43944117426872253,-0.0668133869767189,-0.2768746614456177
1759335055751818800,3.03281884765625,-0.5823836326599121,0.041920628398656845,-0.24694228172302246
1759335055761819000,3.04281884765625,-0.7693084478378296,-0.0020616701804101467,-0.18341228365898132
1759335055771818800,3.05281884765625,-0.7845800518989563,-0.016722436994314194,-0.0013744467869400978
1759335055781819000,3.06281884765625,-0.6599635481834412,-0.1584431678056717,0.18005253374576569
1759335055791818800,3.07281884765625,-0.554283857345581,-0.5377904772758484,0.4427245855331421
1759335055801819000,3.08281884765625,-0.3612504303455353,-0.991052508354187,0.7823656797409058
1759335055811818800,3.09281884765625,-0.12362385541200638,-1.3276392221450806,0.9723447561264038
1759335055821819000,3.10281884765625,0.2367866337299347,-1.2861003875732422,0.9308059215545654
1759335055831818800,3.11281884765625,0.6582836508750916,-1.0900126695632935,0.7017314434051514
1759335055841819000,3.12281884765625,1.2343295812606812,-0.8517752289772034,0.22098049521446228
1759335055851819800,3.13281982421875,1.5385404825210571,-0.7430412173271179,-0.12965615093708038
1759335055861819600,3.142819580078125,2.0046305656433105,-0.4369977116584778,-0.46929723024368286
1759335055871819800,3.15281982421875,2.555020332336426,-0.18226692080497742,-0.6855435371398926
1759335055881819600,3.162819580078125,3.1243467330932617,-0.04360050708055496,-0.755793035030365
1759335055891819800,3.17281982421875,3.848222017288208,0.5599343776702881,-0.9720393419265747
1759335055901819600,3.182819580078125,4.922122955322266,1.261818528175354,-1.1100949048995972
1759335055911819800,3.19281982421875,6.0968170166015625,1.3540592193603516,-0.8755226135253906
1759335055921819600,3.202819580078125,6.536028861999512,1.120708703994751,-0.554818332195282
1759335055931819800,3.21281982421875,5.528101444244385,0.24472789466381073,0.05665775015950203
1759335055941819600,3.222819580078125,3.8158462047576904,-0.23968824744224548,0.46532660722732544
1759335055951818800,3.23281884765625,2.6527585983276367,-0.09918924421072006,0.446389764547348
1759335055961819000,3.24281884765625,1.5971835851669312,0.511676013469696,0.09208793938159943
1759335055971818800,3.25281884765625,1.2001211643218994,0.5916993618011475,0.08109235763549805
1759335055981819000,3.26281884765625,0.9368382096290588,0.4072180390357971,0.2252565622329712
1759335055991818800,3.27281884765625,0.6613379716873169,-0.000839939690195024,0.3058907687664032
1759335056001819000,3.28281884765625,0.4542546570301056,-0.49625164270401,0.3113885521888733
1759335056011818800,3.29281884765625,0.29359710216522217,-0.7919104099273682,0.23136521875858307
1759335056021819000,3.30281884765625,0.1598176211118698,-0.8114581108093262,0.05971207842230797
1759335056031818800,3.31281884765625,0.01992947794497013,-0.6709591150283813,-0.1693623960018158
1759335056041819000,3.32281884765625,-0.16638441383838654,-0.4901430010795593,-0.3165809214115143
1759335056051819800,3.33281982421875,-0.44860416650772095,-0.06131559982895851,-0.1999056488275528
1759335056061819600,3.342819580078125,-0.8206210732460022,0.45181119441986084,-0.1589776873588562
1759335056071819800,3.35281982421875,-1.427821159362793,0.47196975350379944,-0.20601430535316467
1759335056081819600,3.362819580078125,-1.7375298738479614,0.03520110994577408,-0.0936150997877121
1759335056091819800,3.37281982421875,-2.111990213394165,-0.20975585281848907,0.194713294506073
1759335056101819600,3.382819580078125,-2.142533540725708,-0.6037639379501343,0.3352122902870178
1759335056111819800,3.39281982421875,-2.086333990097046,-0.8059603571891785,0.4060726761817932
1759335056121819600,3.402819580078125,-2.044795036315918,-0.7748062014579773,0.5441282391548157
1759335056131819800,3.41281982421875,-1.723479986190796,-0.8426122665405273,0.6345362663269043
1759335056141819600,3.422819580078125,-1.144379734992981,-0.7656432390213013,0.528245747089386
1759335056151818800,3.43281884765625,-0.5176319479942322,-1.0380891561508179,0.3376557528972626
1759335056161819000,3.44281884765625,0.17203491926193237,-1.599474310874939,0.03588833287358284
1759335056171818800,3.45281884765625,1.0712286233901978,-1.6990453004837036,-0.3104722499847412
1759335056181819000,3.46281884765625,2.1249711513519287,-1.1523209810256958,-0.5682573914527893
1759335056191818800,3.47281884765625,3.052264451980591,-0.8322275280952454,-0.613461434841156
1759335056201819000,3.48281884765625,3.0565407276153564,-0.9195812940597534,-0.34162637591362
1759335056211818800,3.49281884765625,2.457892656326294,0.4133267104625702,0.851393461227417
1759335056221819000,3.50281884765625,1.9844721555709839,-0.5109124183654785,1.1049025058746338
1759335056231818800,3.51281884765625,1.602681279182434,-1.3545173406600952,1.109789490699768
1759335056241819000,3.52281884765625,1.4310282468795776,-1.4522557258605957,0.9295842051506042
1759335056251819500,3.532819580078125,1.6142877340316772,-0.9440158605575562,0.4213443100452423
1759335056261819600,3.542819580078125,2.016847848892212,-0.7338782548904419,-0.08750644326210022
1759335056271819500,3.552819580078125,2.438955783843994,-0.5329035520553589,-0.3452915847301483
1759335056281819600,3.562819580078125,2.7688231468200684,-0.21158844232559204,-0.2970332205295563
1759335056291819500,3.572819580078125,3.0150017738342285,0.14637859165668488,-0.056352317333221436
1759335056301819600,3.582819580078125,3.0736448764801025,0.4695262908935547,0.2594650089740753
1759335056311818800,3.59281884765625,2.9502501487731934,0.4243222773075104,0.31810808181762695
1759335056321819000,3.60281884765625,2.6655869483947754,0.3131448030471802,0.31383201479911804
1759335056331818800,3.61281884765625,2.1127538681030273,0.3009274899959564,0.2606867551803589
1759335056341819000,3.62281884765625,1.459738850593567,0.20196732878684998,0.17577648162841797
1759335056351818000,3.63281787109375,0.7102072238922119,0.16409367322921753,0.19715675711631775
1759335056361817900,3.64281787109375,0.1549306958913803,0.26855164766311646,0.14828753471374512
1759335056371818000,3.65281787109375,0.0071013085544109344,0.37606391310691833,-0.0025961773935705423
1759335056381817900,3.66281787109375,0.30214923620224,0.4377613067626953,-0.128434419631958
1759335056391818000,3.67281787109375,0.7438048124313354,0.47135889530181885,-0.050243668258190155
1759335056401817900,3.68281787109375,1.1023826599121094,0.4542546570301056,0.0780380368232727
1759335056411818000,3.69281787109375,1.005255103111267,0.14760030806064606,0.26313021779060364
1759335056421817900,3.70281787109375,-0.12484558671712875,-0.980667769908905,0.11957687139511108
1759335056431818000,3.71281787109375,-0.8688794374465942,-1.4479796886444092,-0.1437060534954071
1759335056441817900,3.72281787109375,-0.781525731086731,-0.9256899356842041,-0.28909197449684143
1759335056451818800,3.73281884765625,-0.2079232633113861,-0.23724478483200073,-0.18096883594989777
1759335056461819000,3.74281884765625,0.16959145665168762,0.2111303061246872,0.07681630551815033
1759335056471818800,3.75281884765625,0.180587038397789,0.46036332845687866,0.2955060601234436
1759335056481819000,3.76281884765625,0.08407033234834671,0.7065420150756836,0.3352122902870178
1759335056491818800,3.77281884765625,-0.03321579843759537,0.7199810743331909,0.2454151064157486
1759335056501819000,3.78281884765625,-0.1077413558959961,0.5562691688537598,0.05604688450694084
1759335056511818000,3.79281787109375,-0.11385001242160797,0.3027600944042206,-0.15653422474861145
1759335056521817900,3.80281787109375,-0.07658722996711731,0.0443640872836113,-0.28787025809288025
1759335056531818000,3.81281787109375,-0.05581781268119812,-0.18959729373455048,-0.23716843128204346
1759335056541817900,3.82281787109375,-0.060704734176397324,-0.17615826427936554,-0.13148874044418335
1759335056551817200,3.832817138671875,-0.07964155822992325,-0.07414376735687256,-0.030695978552103043
1759335056561817000,3.842817138671875,-0.09857837855815887,0.005268712528049946,0.0377209298312664
1759335056571817200,3.852817138671875,-0.11934779584407806,0.03153591975569725,0.08292495459318161
1759335056581817000,3.862817138671875,-0.142560675740242,0.02054034359753132,0.10919216275215149
1759335056591817200,3.872817138671875,-0.14561499655246735,-0.027718011289834976,0.10247264802455902
1759335056601816800,3.88281689453125,-0.13523028790950775,-0.09063713252544403,0.09392052888870239
1759335056611817700,3.892817626953125,-0.1431715488433838,-0.13156510889530182,0.09269879758358002
1759335056621817600,3.902817626953125,-0.15477798879146576,-0.16455182433128357,0.05849034711718559
1759335056631817500,3.9128173828125,-0.13889548182487488,-0.18593211472034454,0.03405573591589928
1759335056641817600,3.922817626953125,-0.11690433323383331,-0.22197316586971283,0.022449297830462456
1759335056651818500,3.932818603515625,-0.11507174372673035,-0.21708624064922333,0.0377209298312664
1759335056661818400,3.942818359375,-0.1077413558959961,-0.12667818367481232,0.06887505948543549
1759335056671818500,3.952818603515625,-0.10835222154855728,0.010155634954571724,0.08536841720342636
1759335056681818400,3.962818359375,-0.11201741546392441,0.11155926436185837,0.10919216275215149
1759335056691818500,3.972818603515625,-0.11629346758127213,0.15920674800872803,0.1293507218360901
1759335056701818400,3.982818359375,-0.11446087807416916,0.22273674607276917,0.12018773704767227
1759335056711818500,3.992818603515625,-0.09430231899023056,0.3119230568408966,0.0981965884566307
1759335056721818400,4.002818359375,-0.06864598393440247,0.373009592294693,0.08231408894062042
1759335056731818500,4.012818603515625,-0.02710714563727379,0.3723987340927124,0.07437284290790558
1759335056741818400,4.022818359375,0.025427265092730522,0.3381902575492859,0.06765332818031311
1759335056751817500,4.0328173828125,0.06818783283233643,0.24228443205356598,0.06948592513799667
1759335056761817600,4.042817626953125,0.08101600408554077,0.03459024429321289,0.13484850525856018
1759335056771817500,4.0528173828125,0.07918340712785721,-0.03565925732254982,0.1892155110836029
1759335056781817600,4.062817626953125,0.06513350456953049,-0.03565925732254982,0.24113905429840088
1759335056791817500,4.0728173828125,0.027870727702975273,0.05535966157913208,0.2600758671760559
1759335056801817600,4.082817626953125,-0.018555032089352608,0.1811978965997696,0.2301434874534607
1759335056811818500,4.092818603515625,-0.06559165567159653,0.27343854308128357,0.17150041460990906
1759335056821818400,4.102818359375,-0.1071304902434349,0.28504499793052673,0.10308351367712021
1759335056831818500,4.112818603515625,-0.1272890418767929,0.24228443205356598,0.05543602257966995
1759335056841818400,4.122818359375,-0.12301298975944519,0.1915826052427292,0.03833179548382759
1759335056851819300,4.1328193359375,-0.10957395285367966,0.1555415689945221,0.04993823543190956
1759335056871819800,4.15281982421875,-0.09063713252544403,0.08529205620288849,0.16111570596694946
1759335056881820000,4.16281982421875,-0.07475463300943375,0.04375322163105011,0.19349156320095062
1759335056891819800,4.17281982421875,-0.05276348441839218,0.0016035212902352214,0.22159136831760406
1759335056901820200,4.182820068359375,-0.022831087931990623,-0.025885414332151413,0.23808473348617554
1759335056911820000,4.192820068359375,0.008323038928210735,-0.03565925732254982,0.2710714638233185
1759335056921820200,4.202820068359375,0.04558581858873367,-0.028328875079751015,0.30894508957862854
1759335056931820000,4.212820068359375,0.08162686973810196,-0.010002918541431427,0.33460143208503723
1759335056941820200,4.222820068359375,0.11888964474201202,0.027870727702975273,0.34926220774650574
1759335056951819300,4.2328193359375,0.15676330029964447,0.0797942727804184,0.3413209617137909
1759335056961819400,4.2428193359375,0.1854739636182785,0.12255483865737915,0.3248275816440582
1759335056971819300,4.2528193359375,0.2056325078010559,0.1604284793138504,0.29856038093566895
1759335056981819400,4.2628193359375,0.23434318602085114,0.19769126176834106,0.275347501039505
1759335056991819300,4.2728193359375,0.2569451928138733,0.17753271758556366,0.26313021779060364
1759335057001819400,4.2828193359375,0.2929862439632416,0.18486309051513672,0.26251932978630066
1759335057011819300,4.2928193359375,0.33024901151657104,0.18852828443050385,0.27229318022727966
1759335057021819400,4.3028193359375,0.3675118088722229,0.18180876970291138,0.2912299931049347
1759335057031819000,4.312819091796875,0.3980550765991211,0.14821118116378784,0.29917123913764954
1759335057041819000,4.32281884765625,0.41149410605430603,0.09384417533874512,0.29245173931121826
1759335057051819800,4.33281982421875,0.41149410605430603,0.0541379339993,0.2796235680580139
1759335057061820000,4.34281982421875,0.40477457642555237,0.04130976274609566,0.26679539680480957
1759335057071819800,4.35281982421875,0.39072468876838684,0.06269004940986633,0.27229318022727966
1759335057081820000,4.36281982421875,0.3778965175151825,0.1048397496342659,0.2863430976867676
1759335057091819800,4.37281982421875,0.3723987340927124,0.1506546437740326,0.3052799105644226
1759335057101820000,4.38281982421875,0.373009592294693,0.1909717470407486,0.3309362530708313
1759335057111819800,4.39281982421875,0.37545305490493774,0.16714800894260406,0.32971450686454773
1759335057121820000,4.40281982421875,0.37484219670295715,0.11155926436185837,0.3260493278503418
1759335057131819800,4.41281982421875,0.3620140254497528,0.03825543448328972,0.3095559775829315
1759335057141820000,4.42281982421875,0.34063372015953064,-0.02955060638487339,0.28695395588874817
1759335057151819000,4.432819091796875,0.3174208402633667,-0.08025242388248444,0.2588541507720947
1759335057161819000,4.44281884765625,0.2972623109817505,-0.10590875893831253,0.21914790570735931
1759335057171818500,4.452818603515625,0.2722168266773224,-0.10835222154855728,0.17760907113552094
1759335057181818400,4.462818359375,0.24228443205356598,-0.08880453556776047,0.14156801998615265
1759335057191818500,4.472818603515625,0.2062433809041977,-0.07108944654464722,0.10002918541431427
1759335057201818400,4.482818359375,0.16348281502723694,-0.05826127156615257,0.06154467165470123
1759335057211818500,4.492818603515625,0.10911580175161362,-0.04970915988087654,0.02428189292550087
1759335057221818400,4.502818359375,0.018707748502492905,-0.042989641427993774,-0.07651086896657944
1759335057231818200,4.512818359375,-0.03565925732254982,-0.05948300287127495,-0.1944078654050827
1759335057241818400,4.522818359375,-0.12851077318191528,-0.12118039280176163,-0.34284812211990356
1759335057251819300,4.5328193359375,-0.24762949347496033,-0.22258402407169342,-0.483957976102829
1759335057261819100,4.542819091796875,-0.34720054268836975,-0.33864840865135193,-0.5963571667671204
1759335057271819300,4.5528193359375,-0.40278926491737366,-0.47792568802833557,-0.6824892163276672
1759335057281819100,4.562819091796875,-0.435165137052536,-0.7045567035675049,-0.765566885471344
1759335057291819300,4.5728193359375,-0.47914743423461914,-1.0154870748519897,-0.8871290683746338
1759335057301819100,4.582819091796875,-0.5261840224266052,-1.267163634300232,-1.0404561758041382
1759335057311819300,4.5928193359375,-0.5487860441207886,-1.3728432655334473,-1.2078332901000977
1759335057321819100,4.602819091796875,-0.5280166268348694,-1.352684736251831,-1.356884479522705
1759335057331819500,4.612819580078125,-0.4559345543384552,-1.2079097032546997,-1.5401439666748047
1759335057341819600,4.622819580078125,-0.4113413989543915,-1.0313695669174194,-1.7001906633377075
1759335057351818800,4.63281884765625,-0.3551417887210846,-0.8420013785362244,-1.9029979705810547
1759335057361819000,4.64281884765625,-0.292833536863327,-0.7106653451919556,-2.0984747409820557
1759335057371818800,4.65281884765625,-0.2879466116428375,-0.6239224672317505,-2.266462802886963
1759335057381819000,4.66281884765625,-0.38873937726020813,-0.44860416650772095,-2.4332289695739746
1759335057391818800,4.67281884765625,-0.5188536643981934,-0.048487428575754166,-2.6091582775115967
1759335057401819000,4.68281884765625,-0.5909357666969299,0.4395939111709595,-2.7087292671203613
1759335057411818800,4.69281884765625,-0.639194130897522,0.6943247318267822,-2.662914276123047
1759335057421819000,4.70281884765625,-0.6453027725219727,0.5147303342819214,-2.439948558807373
1759335057431818800,4.71281884765625,-0.6104834675788879,0.20502164959907532,-2.155285358428955
1759335057441819000,4.72281884765625,-0.5836054086685181,-0.08880453556776047,-1.924989104270935
1759335057451819800,4.73281982421875,-0.5988770127296448,-0.6660721898078918,-1.6751452684402466
1759335057461819600,4.742819580078125,-0.6159812211990356,-1.1107821464538574,-1.5584700107574463
1759335057471819800,4.75281982421875,-0.5982661247253418,-1.4516448974609375,-1.5114333629608154
1759335057481819600,4.762819580078125,-0.5738315582275391,-1.6367371082305908,-1.468672752380371
1759335057491819800,4.77281982421875,-0.6269767880439758,-1.6324609518051147,-1.4283556938171387
1759335057501819600,4.782819580078125,-0.7503715753555298,-1.476690411567688,-1.3581061363220215
1759335057511819800,4.79281982421875,-0.8872054219245911,-1.2848787307739258,-1.2328788042068481
1759335057521819600,4.802819580078125,-0.9843329787254333,-1.095510482788086,-1.118036150932312
1759335057531819800,4.81281982421875,-1.0215957164764404,-1.002048134803772,-1.0178542137145996
1759335057541819600,4.822819580078125,-0.9800569415092468,-1.1089495420455933,-0.8969029188156128
1759335057551818800,4.83281884765625,-0.8927031755447388,-1.4052191972732544,-0.7612907886505127
1759335057561819000,4.84281884765625,-0.7344890832901001,-1.8413769006729126,-0.5890268087387085
1759335057571818800,4.85281884765625,-0.6795112490653992,-1.9830976724624634,-0.5328271985054016
1759335057581819000,4.86281884765625,-0.6850090026855469,-1.9470566511154175,-0.46929723024368286
1759335057591818800,4.87281884765625,-0.7393760085105896,-1.7094299793243408,-0.3556762933731079
1759335057601819000,4.88281884765625,-0.8077929019927979,-1.3936127424240112,-0.23900102078914642
1759335057611818800,4.89281884765625,-0.820010244846344,-1.1633164882659912,-0.11682797968387604
1759335057621819000,4.90281884765625,-0.7650323510169983,-0.9989937543869019,0.012064588256180286
1759335057631818800,4.91281884765625,-0.6715700030326843,-0.9214138388633728,0.1342376321554184
1759335057641819000,4.92281884765625,-0.5988770127296448,-0.8884271383285522,0.2539672255516052
1759335057651819500,4.932819580078125,-0.5567272901535034,-0.8927031755447388,0.35475999116897583
1759335057661819600,4.942819580078125,-0.5041928887367249,-0.8438339829444885,0.4158465266227722
1759335057671819500,4.952819580078125,-0.40217840671539307,-0.7027240991592407,0.4531092941761017
1759335057681819600,4.962819580078125,-0.18409951031208038,-0.4357759952545166,0.5013676285743713
1759335057691819500,4.972819580078125,-0.04604396969079971,-0.2690097689628601,0.5551238059997559
1759335057701819600,4.982819580078125,0.07735081017017365,-0.012446379289031029,0.5905539989471436
1759335057711819500,4.992819580078125,0.18913915753364563,0.2716059684753418,0.6131559610366821
1759335057721819600,5.002819580078125,0.29970577359199524,0.47563496232032776,0.6656904220581055
1759335057731819500,5.012819580078125,0.39011383056640625,0.6424011588096619,0.7096726894378662
1759335057741819600,5.022819580078125,0.46097418665885925,0.7053202986717224,0.7780895829200745
1759335057751818800,5.03281884765625,0.5495496392250061,0.7682393789291382,0.8306240439414978
1759335057761818600,5.042818603515625,0.6136904954910278,0.8006152510643005,0.8349000811576843
1759335057771818800,5.05281884765625,0.6393468379974365,0.7712937593460083,0.7890852093696594
1759335057781819000,5.06281884765625,0.644233763217926,0.6857725977897644,0.7108944058418274
1759335057791818800,5.07281884765625,0.6283512711524963,0.5067890882492065,0.5239696502685547
1759335057801818600,5.082818603515625,0.5690973401069641,0.35407277941703796,0.35842517018318176
1759335057811818800,5.09281884765625,0.4395939111709595,0.2557234764099121,0.14034628868103027
1759335057821818600,5.102818603515625,0.21846067905426025,0.24839307367801666,-0.09117163717746735
1759335057831818800,5.11281884765625,-0.10041097551584244,0.24961480498313904,-0.2756529450416565
1759335057841818600,5.122818603515625,-0.5048037767410278,0.17325665056705475,-0.37888917326927185
1759335057851819500,5.132819580078125,-0.8621599078178406,-0.15050192177295685,-0.36850446462631226
1759335057861819600,5.142819580078125,-1.0985647439956665,-0.4913647174835205,-0.34345898032188416
1759335057871819500,5.152819580078125,-1.1688143014907837,-0.7528150677680969,-0.24572055041790009
1759335057881819600,5.162819580078125,-1.1107821464538574,-0.8493317365646362,-0.08750644326210022
1759335057891819500,5.172819580078125,-0.9489027857780457,-0.5982661247253418,0.005955935921519995
1759335057901819600,5.182819580078125,-0.5585598945617676,-0.051541756838560104,0.24419337511062622
1759335057911819800,5.19281982421875,-0.2879466116428375,0.3107013404369354,0.5148066878318787
1759335057921819600,5.202819580078125,-0.057039543986320496,0.5061782002449036,0.7744244337081909
1759335057931819800,5.21281982421875,0.09017898142337799,0.6271295547485352,0.9320276379585266
1759335057941819600,5.222819580078125,0.11217013001441956,0.8531496524810791,0.9686795473098755
1759335057951818800,5.23281884765625,0.008933904580771923,1.0810023546218872,0.8642216324806213
1759335057961819000,5.24281884765625,-0.10163270682096481,0.6478989720344543,0.6003278493881226
1759335057971818800,5.25281884765625,-0.10590875893831253,-0.2079232633113861,0.02122756652534008
1759335057981819000,5.26281884765625,0.03703370690345764,-0.5622251033782959,-0.5926920175552368
1759335057991818800,5.27281884765625,0.21723894774913788,-0.19692768156528473,-0.7985535860061646
1759335058001819000,5.28281884765625,0.3516293168067932,0.5831472277641296,-0.5823072791099548
1759335058011818800,5.29281884765625,0.41149410605430603,1.4921146631240845,-0.16203200817108154
1759335058021819000,5.30281884765625,0.40110939741134644,2.4713315963745117,0.508087158203125
1759335058031818800,5.31281884765625,0.4078288972377777,2.7413341999053955,0.880104124546051
1759335058041819000,5.32281884765625,0.4481460154056549,2.731560230255127,1.1342240571975708
1759335058051819800,5.33281982421875,0.49212831258773804,2.5006532669067383,1.242347240447998
1759335058061819600,5.342819580078125,0.4878522455692291,2.1268036365509033,1.170875906944275
1759335058071819800,5.35281982421875,0.4744132161140442,1.7205783128738403,0.9729556441307068
1759335058081819600,5.362819580078125,0.47013717889785767,1.3216832876205444,0.7493789196014404
1759335058091819800,5.37281982421875,0.47685667872428894,0.9166796803474426,0.5343543887138367
1759335058101819600,5.382819580078125,0.47258061170578003,0.444480836391449,0.33887749910354614
1759335058111819800,5.39281982421875,0.4493677318096161,-0.09796751290559769,0.17821992933750153
1759335058121819600,5.402819580078125,0.40477457642555237,-0.5952118039131165,0.09636399149894714
1759335058131819800,5.41281982421875,0.38095083832740784,-0.8988118767738342,0.19532416760921478
1759335058141819600,5.422819580078125,0.5147303342819214,-0.5408447980880737,0.4433354437351227
1759335058151818800,5.43281884765625,0.6521750092506409,-0.008170322515070438,0.7603744864463806
1759335058161819000,5.44281884765625,0.6375142335891724,0.2624429762363434,1.0273226499557495
1759335058171818800,5.45281884765625,0.4854087829589844,0.2606103718280792,1.1287262439727783
1759335058181819000,5.46281884765625,0.3467423915863037,0.22456933557987213,1.0450377464294434
1759335058191818800,5.47281884765625,0.28015807271003723,0.12377656996250153,0.8538368940353394
1759335058201819000,5.48281884765625,0.26855164766311646,-0.11629346758127213,0.6473644375801086
1759335058211818800,5.49281884765625,0.26916250586509705,-0.4247804284095764,0.4983133375644684
1759335058221819000,5.50281884765625,0.28015807271003723,-0.6709591150283813,0.4360050559043884
1759335058231818800,5.51281884765625,0.31925344467163086,-0.8615490794181824,0.4622722864151001
1759335058241819000,5.52281884765625,0.34002286195755005,-0.9110291600227356,0.5587889552116394
1759335058251819500,5.532819580078125,0.3638466000556946,-0.7943539023399353,0.7738135457038879
1759335058261819600,5.542819580078125,0.382783442735672,-0.6947828531265259,0.9576839804649353
1759335058271819500,5.552819580078125,0.3974441885948181,-0.6538549065589905,1.1745411157608032
1759335058281819600,5.562819580078125,0.41027235984802246,-0.6184247136116028,1.3535246849060059
1759335058291819500,5.572819580078125,0.40660718083381653,-0.5408447980880737,1.4592043161392212
1759335058301819600,5.582819580078125,0.382783442735672,-0.41806089878082275,1.4805846214294434
1759335058311819500,5.592819580078125,0.36629006266593933,-0.2879466116428375,1.4524848461151123
1759335058321819600,5.602819580078125,0.34429892897605896,-0.17066048085689545,1.3981177806854248
1759335058331819500,5.612819580078125,0.32536208629608154,-0.014278975315392017,1.3242031335830688
1759335058341819600,5.622819580078125,0.301538348197937,0.2007455974817276,1.2484558820724487
1759335058351818800,5.63281884765625,0.2819906771183014,0.45181119441986084,1.180649757385254
1759335058361819000,5.64281884765625,0.2960405647754669,0.8097782135009766,1.0914634466171265
1759335058371818800,5.65281884765625,0.3430771827697754,0.9490554928779602,1.067639708518982
1759335058381819000,5.66281884765625,0.3968333303928375,0.9808205366134644,1.070694088935852
1759335058391818800,5.67281884765625,0.47258061170578003,0.919734001159668,1.0798569917678833
1759335058401819000,5.68281884765625,0.5519931316375732,0.8030587434768677,1.0639744997024536
1759335058411818800,5.69281884765625,0.6118578910827637,0.6485098004341125,0.9980010986328125
1759335058421819000,5.70281884765625,0.6613379716873169,0.4646393656730652,0.9039278626441956
1759335058431818800,5.71281884765625,0.6766096353530884,0.2361757755279541,0.7848091125488281
1759335058441819000,5.72281884765625,0.6411794424057007,-0.0020616701804101467,0.6681338548660278
1759335058451819500,5.732819580078125,0.5367214679718018,-0.15966489911079407,0.5752823352813721
1759335058461819600,5.742819580078125,0.39988765120506287,-0.1376737505197525,0.5032002329826355
1759335058471819500,5.752819580078125,0.26855164766311646,0.07002042979001999,0.44577890634536743
1759335058481819600,5.762819580078125,0.1750892549753189,0.41638103127479553,0.35414913296699524
1759335058491819500,5.772819580078125,0.17875444889068604,0.4218788146972656,0.2698497176170349
1759335058501819600,5.782819580078125,0.18425223231315613,0.190360888838768,0.1788308024406433
1759335058511819500,5.792819580078125,0.12805262207984924,-0.2183079719543457,0.1287398487329483
1759335058521819600,5.802819580078125,0.016264287754893303,-0.4522693455219269,0.17760907113552094
1759335058531819500,5.812819580078125,-0.060704734176397324,-0.23968824744224548,0.2649627923965454
1759335058541819600,5.822819580078125,-0.1126282811164856,0.12316570430994034,0.34437528252601624
1759335058551818800,5.83281884765625,-0.14989106357097626,0.4475351572036743,0.35964691638946533
1759335058561819000,5.84281884765625,-0.16638441383838654,0.6882160305976868,0.266184538602829
1759335058571818800,5.85281884765625,-0.182877779006958,0.7810675501823425,0.06887505948543549
1759335058581819000,5.86281884765625,-0.19570595026016235,0.663170576095581,-0.1944078654050827
1759335058591818800,5.87281884765625,-0.19142989814281464,0.10606148093938828,-0.6336199641227722
1759335058601819000,5.88281884765625,-0.2079232633113861,-0.3258202373981476,-0.897513747215271
1759335058611818800,5.89281884765625,-0.26656633615493774,-0.5958226919174194,-1.1039862632751465
1759335058621819000,5.90281884765625,-0.36858081817626953,-0.7021132707595825,-1.2334896326065063
1759335058631818800,5.91281884765625,-0.47426050901412964,-0.7369325757026672,-1.3391693830490112
1759335058641819000,5.92281884765625,-0.5811619162559509,-0.7705301642417908,-1.5016595125198364
1759335058651819500,5.932819580078125,-0.687452495098114,-0.8658251166343689,-1.782657504081726
1759335058661819600,5.942819580078125,-0.7803040146827698,-0.9879981875419617,-2.1424572467803955
1759335058671819500,5.952819580078125,-0.8224536776542664,-1.027093529701233,-2.472935199737549
1759335058681819600,5.962819580078125,-0.828562319278717,-0.9391289353370667,-2.6708555221557617
1759335058691819500,5.972819580078125,-0.82917320728302,-0.7754170894622803,-2.7099509239196777
1759335058701819600,5.982819580078125,-0.7888560891151428,-0.4510476291179657,-2.7001771926879883
1759335058711819800,5.99281982421875,-0.7015023827552795,0.2416735589504242,-2.665357828140259
1759335058721819600,6.002819580078125,-0.6636287569999695,0.6271295547485352,-2.62076473236084
1759335058731819800,6.01281982421875,-0.7186065912246704,0.6924921274185181,-2.5871670246124268
1759335058741819600,6.022819580078125,-0.7839691638946533,0.5073999166488647,-2.6201536655426025
1759335058751818800,6.03281884765625,-0.7925212979316711,0.18425223231315613,-2.6678011417388916
1759335058761819000,6.04281884765625,-0.7760279178619385,-0.28733575344085693,-2.6305384635925293
1759335058771818800,6.05281884765625,-0.7485389709472656,-0.6019313335418701,-2.560288906097412
1759335058781819000,6.06281884765625,-0.6819546818733215,-0.697226345539093,-2.4436137676239014
1759335058791818800,6.07281884765625,-0.554894745349884,-0.6813437938690186,-2.283566951751709
1759335058801819000,6.08281884765625,-0.3704134225845337,-0.5939900875091553,-2.0758728981018066
1759335058811818800,6.09281884765625,-0.22197316586971283,-0.5854379534721375,-1.7912095785140991
1759335058821819000,6.10281884765625,-0.25251641869544983,-0.6544657349586487,-1.422247052192688
1759335058831818800,6.11281884765625,-0.44799330830574036,-0.828562319278717,-1.2023354768753052
1759335058841819000,6.12281884765625,-0.716163158416748,-1.0032697916030884,-1.0758863687515259
1759335058851819800,6.13281982421875,-0.9452376365661621,-1.046641230583191,-1.0447323322296143
1759335058861819600,6.142819580078125,-1.0997865200042725,-1.0900126695632935,-1.0166324377059937
1759335058871819800,6.15281982421875,-1.1785881519317627,-1.3697890043258667,-0.8767443299293518
1759335058881819600,6.162819580078125,-1.2323442697525024,-1.6758323907852173,-0.7130324840545654
1759335058891819800,6.17281982421875,-1.161483883857727,-1.6923258304595947,-0.5798638463020325
1759335058901819600,6.182819580078125,-1.0197631120681763,-1.5194509029388428,-0.4735732674598694
1759335058911819800,6.19281982421875,-0.8676577210426331,-1.378951907157898,-0.3666718602180481
1759335058921819600,6.202819580078125,-0.7393760085105896,-1.2824351787567139,-0.21395555138587952
1759335058931819800,6.21281982421875,-0.667904794216156,-1.2311224937438965,-0.01970040425658226
1759335058941819600,6.222819580078125,-0.5866597294807434,-1.036867380142212,0.29245173931121826
1759335058951819000,6.232819091796875,-0.5109124183654785,-0.8303949236869812,0.4726569950580597
1759335058961819000,6.24281884765625,-0.406454473733902,-0.6343072056770325,0.6217080950737
1759335058971819000,6.252819091796875,-0.2885574698448181,-0.5145776271820068,0.7414376735687256
1759335058981819000,6.26281884765625,-0.15172365307807922,-0.3753003478050232,0.8177958726882935
1759335058991819000,6.272819091796875,-0.030161472037434578,-0.2286926805973053,0.899040937423706
1759335059011818800,6.29281884765625,0.18364135921001434,0.2508365511894226,1.1012372970581055
1759335059021819000,6.30281884765625,0.3161991238594055,0.605749249458313,1.2441798448562622
1759335059031818800,6.31281884765625,0.4273765981197357,0.957607626914978,1.422552466392517
1759335059041819000,6.32281884765625,0.5055673718452454,1.2123384475708008,1.6223053932189941
1759335059051819800,6.33281982421875,0.5947536826133728,1.407204508781433,1.7609717845916748
1759335059061819600,6.342819580078125,0.5916993618011475,1.3986523151397705,1.6210836172103882
1759335059071819800,6.35281982421875,0.4878522455692291,1.1824060678482056,1.267392635345459
1759335059081819600,6.362819580078125,0.33452507853507996,0.7993935346603394,0.7389942407608032
1759335059091819800,6.37281982421875,0.1958586722612381,0.282601535320282,0.17638733983039856
1759335059101819600,6.382819580078125,0.04008803144097328,-0.27145323157310486,-0.31291571259498596
1759335059111819800,6.39281982421875,-0.19142989814281464,-0.5658903121948242,-0.5957463383674622
1759335059121819600,6.402819580078125,-0.41317397356033325,-0.5866597294807434,-0.6623306274414062
1759335059131819800,6.41281982421875,-0.5915466547012329,-0.515188455581665,-0.5908594131469727
1759335059141819600,6.422819580078125,-0.7412086129188538,-0.5878814458847046,-0.45891252160072327
1759335059151818800,6.43281884765625,-0.8371144533157349,-0.848720908164978,-0.3043636083602905
1759335059161819000,6.44281884765625,-0.9464593529701233,-1.237842082977295,-0.18524488806724548
1759335059171818800,6.45281884765625,-0.9544005990028381,-1.1425471305847168,-0.1137736514210701
1759335059181819000,6.46281884765625,-0.8529969453811646,-0.8908706307411194,-0.0074830991216003895
1759335059191818800,6.47281884765625,-0.6239224672317505,-0.48403435945510864,0.1085812970995903
1759335059201819000,6.48281884765625,-0.33192890882492065,-0.20425806939601898,0.19776763021945953
1759335059211818800,6.49281884765625,-0.11507174372673035,0.059635721147060394,0.2606867551803589
1759335059221819000,6.50281884765625,-0.10651962459087372,0.5080108046531677,0.42867469787597656
1759335059231818800,6.51281884765625,-0.334983229637146,1.0070877075195312,0.5820018649101257
1759335059241819000,6.52281884765625,-0.5793293118476868,1.1139891147613525,0.5740606188774109
1759335059251819500,6.532819580078125,-0.6025422215461731,0.5135086178779602,0.21181751787662506
1759335059261819600,6.542819580078125,-0.38873937726020813,-0.1578323096036911,-0.25305092334747314
1759335059271819500,6.552819580078125,-0.09063713252544403,-0.22502748668193817,-0.3978259861469269
1759335059281819600,6.562819580078125,0.31864258646965027,0.5373323559761047,-0.1840231567621231
1759335059291819500,6.572819580078125,0.5733733773231506,1.271592378616333,0.051770828664302826
1759335059301819600,6.582819580078125,0.795728325843811,1.9582048654556274,0.3376557528972626
1759335059311819800,6.59281982421875,0.9728792905807495,2.4768295288085938,0.6436992287635803
1759335059321819600,6.602819580078125,1.0553460121154785,2.679025888442993,0.8825475573539734
1759335059331819800,6.61281982421875,1.1005500555038452,2.5690701007843018,1.0004445314407349
1759335059341819600,6.622819580078125,1.1225411891937256,2.3314435482025146,1.0089967250823975
1759335059351818800,6.63281884765625,1.0944414138793945,2.0217349529266357,0.9295842051506042
1759335059361819000,6.64281884765625,1.03579843044281,1.6937001943588257,0.7945829629898071
1759335059371818800,6.65281884765625,0.9893726110458374,1.4511867761611938,0.670577347278595
1759335059381819000,6.66281884765625,0.9716575145721436,1.3222942352294922,0.5771149396896362
1759335059391818800,6.67281884765625,0.9832639694213867,1.0626764297485352,0.3920227587223053
1759335059401819000,6.68281884765625,0.9661597609519958,0.7694611549377441,0.2344195395708084
1759335059411818800,6.69281884765625,0.9069058299064636,0.42065706849098206,0.11713340878486633
1759335059421819000,6.70281884765625,0.815886914730072,0.07918340712785721,0.09025534242391586
1759335059431818800,6.71281884765625,0.8189412355422974,-0.060093868523836136,0.20204368233680725
1759335059441818600,6.722818603515625,0.8751408457756042,0.0742964819073677,0.4488332271575928
1759335059451819300,6.7328193359375,0.8928559422492981,0.3742313086986542,0.7426594495773315
1759335059461819400,6.7428193359375,0.8207738399505615,0.6020840406417847,0.9595165848731995
1759335059471819300,6.7528193359375,0.6601162552833557,0.6509532928466797,1.0138835906982422
1759335059481819400,6.7628193359375,0.4481460154056549,0.4982369542121887,0.9552405476570129
1759335059491819300,6.7728193359375,0.2606103718280792,0.26855164766311646,0.8239045143127441
1759335059501819400,6.7828193359375,0.11155926436185837,0.10789407044649124,0.6638578176498413
1759335059511819300,6.7928193359375,-0.05032002553343773,-0.010002918541431427,0.5502368807792664
1759335059521819400,6.8028193359375,-0.042989641427993774,0.05902485549449921,0.6571382880210876
1759335059531819300,6.8128193359375,0.05291620269417763,0.11705705523490906,0.8947648406028748
1759335059541819400,6.8228193359375,0.1750892549753189,0.016264287754893303,1.1507173776626587
1759335059551818500,6.832818603515625,0.27832546830177307,-0.17127133905887604,1.326035737991333
1759335059561818600,6.842818603515625,0.34490978717803955,-0.32826370000839233,1.4140002727508545
1759335059571818500,6.852818603515625,0.3742313086986542,-0.42294782400131226,1.4103351831436157
1759335059581818600,6.862818603515625,0.39011383056640625,-0.4113413989543915,1.3339769840240479
1759335059591818500,6.872818603515625,0.40538543462753296,-0.2836705446243286,1.2209669351577759
1759335059601818600,6.882818603515625,0.41577014327049255,-0.09308059513568878,1.0798569917678833
1759335059611818500,6.892818603515625,0.4292092025279999,0.07918340712785721,0.9283624291419983
1759335059621818400,6.902818359375,0.4835762083530426,0.22762365639209747,0.7444919943809509
1759335059631818500,6.912818603515625,0.5507713556289673,0.30947959423065186,0.6785185933113098
1759335059641818400,6.922818359375,0.606360137462616,0.373009592294693,0.660803496837616
1759335059651819300,6.9328193359375,0.6497315168380737,0.4041637182235718,0.6730207800865173
1759335059661819400,6.9428193359375,0.6912704110145569,0.40660718083381653,0.7206682562828064
1759335059671819300,6.9528193359375,0.7230353951454163,0.4072180390357971,0.7854200005531311
1759335059681819400,6.9628193359375,0.7334200739860535,0.42126795649528503,0.8532260060310364
1759335059691819300,6.9728193359375,0.7260897159576416,0.444480836391449,0.9326385259628296
1759335059701819400,6.9828193359375,0.7047094106674194,0.4340961277484894,1.020603060722351
1759335059711819300,6.9928193359375,0.6747770309448242,0.3815616965293884,1.0823005437850952
1759335059721819400,7.0028193359375,0.6362925171852112,0.28932106494903564,1.1146763563156128
1759335059731819300,7.0128193359375,0.5532148480415344,0.16348281502723694,1.1195632219314575
1759335059741819600,7.022819580078125,0.3638466000556946,0.09323330968618393,1.126282811164856
1759335059751818800,7.03281884765625,0.2703842222690582,0.2264019250869751,1.1213958263397217
1759335059761818600,7.042818603515625,0.22456933557987213,0.38950294256210327,1.0542006492614746
1759335059771818800,7.05281884765625,0.190360888838768,0.3571271002292633,0.880104124546051
1759335059781818600,7.062818603515625,0.10728321224451065,-0.022831087931990623,0.6339253783226013
1759335059791818800,7.07281884765625,0.0034361169673502445,-0.4901430010795593,0.4121813178062439
1759335059801818600,7.082818603515625,-0.08086328953504562,-0.638583242893219,0.2906191349029541
1759335059811818800,7.09281884765625,-0.1627192348241806,-0.5072472095489502,0.26374107599258423
1759335059821818600,7.102818603515625,-0.24762949347496033,-0.22563834488391876,0.2845104932785034
1759335059831818800,7.11281884765625,-0.2439643144607544,0.15431983768939972,0.2405281960964203
1759335059841818600,7.122818603515625,-0.22624921798706055,0.4835762083530426,0.03894266113638878
1759335059851819500,7.132819580078125,-0.23480132222175598,0.41454842686653137,-0.4216497242450714
1759335059861819600,7.142819580078125,-0.2244166135787964,0.018096882849931717,-0.7783950567245483
1759335059871819500,7.152819580078125,-0.2848922908306122,-0.5634468197822571,-1.1186469793319702
1759335059881819600,7.162819580078125,-0.4516584873199463,-1.0002155303955078,-1.4173600673675537
1759335059891819500,7.172819580078125,-0.5946009755134583,-1.1101711988449097,-1.6391041278839111
1759335059901819100,7.182819091796875,-0.619646430015564,-0.9928851127624512,-1.8437440395355225
1759335059911819300,7.1928193359375,-0.6135377883911133,-0.8786532878875732,-2.0929770469665527
1759335059921819100,7.202819091796875,-0.5933791995048523,-0.7864126563072205,-2.3996315002441406
1759335059931819300,7.2128193359375,-0.6007096171379089,-0.8035168647766113,-2.7062857151031494
1759335059941819100,7.222819091796875,-0.6642395853996277,-1.0405325889587402,-2.8773279190063477
1759335059951818500,7.232818603515625,-0.7137196660041809,-1.152931809425354,-2.9634599685668945
1759335059961818400,7.242818359375,-0.7179957628250122,-0.8988118767738342,-2.972623109817505
1759335059971818500,7.252818603515625,-0.6440810561180115,-0.1071304902434349,-2.8577802181243896
1759335059981818400,7.262818359375,-0.6330854892730713,0.3064252734184265,-2.6891815662384033
1759335059991818500,7.272818603515625,-0.667904794216156,0.49579349160194397,-2.5535695552825928
1759335060001818400,7.282818359375,-0.7179957628250122,0.5733733773231506,-2.557234525680542
1759335060011818500,7.292818603515625,-0.799851655960083,0.5067890882492065,-2.6897923946380615
1759335060021818400,7.302818359375,-0.9061422348022461,0.28993192315101624,-2.8510608673095703
1759335060031818500,7.312818603515625,-0.9537897109985352,0.18425223231315613,-2.937192916870117
1759335060041818400,7.322818359375,-0.9366855025291443,0.13232868909835815,-2.8736627101898193
1759335060051819300,7.3328193359375,-0.8420013785362244,0.12927435338497162,-2.6732990741729736
1759335060061819100,7.342819091796875,-0.7112762331962585,0.08651378750801086,-2.3513729572296143
1759335060071819300,7.3528193359375,-0.5610033869743347,-0.22563834488391876,-1.952478051185608
1759335060081819100,7.362819091796875,-0.37774381041526794,-0.7228826880455017,-1.3672691583633423
1759335060091819300,7.3728193359375,-0.31238120794296265,-0.828562319278717,-1.0532844066619873
1759335060101819100,7.382819091796875,-0.49441906809806824,-0.9098074436187744,-0.8675813674926758
1759335060111819300,7.3928193359375,-0.828562319278717,-0.9892199039459229,-0.8700248003005981
1759335060121819100,7.402819091796875,-1.1217776536941528,-1.0222066640853882,-0.9928087592124939
1759335060131819300,7.4128193359375,-1.35940420627594,-1.3716216087341309,-0.9995282292366028
1759335060141819100,7.422819091796875,-1.4125494956970215,-1.9360610246658325,-0.9085093140602112
1759335060151818500,7.432818603515625,-1.2909873723983765,-2.2610414028167725,-0.7698429226875305
1759335060161818400,7.442818359375,-1.087569236755371,-2.181018114089966,-0.603687584400177
1759335060171818500,7.452818603515625,-0.8969792723655701,-1.8706984519958496,-0.4210388660430908
1759335060181818400,7.462818359375,-0.7497607469558716,-1.4803556203842163,-0.2451096773147583
1759335060191818500,7.472818603515625,-0.6245333552360535,-1.141936182975769,-0.06612616032361984
1759335060201819000,7.48281884765625,-0.47426050901412964,-0.6978371739387512,0.21609358489513397
1759335060211818800,7.49281884765625,-0.37285688519477844,-0.4858669340610504,0.4170682430267334
1759335060221819000,7.50281884765625,-0.2647337317466736,-0.31115949153900146,0.5636758804321289
1759335060231818800,7.51281884765625,-0.1731039434671402,-0.2140319049358368,0.669355571269989
1759335060241819000,7.52281884765625,-0.09430231899023056,-0.16943874955177307,0.7512115240097046
1759335060251819500,7.532819580078125,-0.006337726954370737,-0.09613491594791412,0.8171849846839905
1759335060261819600,7.542819580078125,0.09017898142337799,0.05230533704161644,0.9161451458930969
1759335060271819500,7.552819580078125,0.17753271758556366,0.2960405647754669,1.031598687171936
1759335060281819600,7.562819580078125,0.2960405647754669,0.6088035702705383,1.1885910034179688
1759335060291819500,7.572819580078125,0.4340961277484894,0.9521098136901855,1.3889548778533936
1759335060301819600,7.582819580078125,0.5849798321723938,1.3033573627471924,1.600925087928772
1759335060311819800,7.59281982421875,0.7731263041496277,1.6961437463760376,1.8513798713684082
1759335060321819600,7.602819580078125,0.8684213161468506,1.852525234222412,1.8532124757766724
1759335060331819800,7.61281982421875,0.8843038082122803,1.7773888111114502,1.6687310934066772
1759335060341819600,7.622819580078125,0.8079456686973572,1.4334716796875,1.228297233581543
1759335060351818800,7.63281884765625,0.624686062335968,0.9172905087471008,0.536797821521759
1759335060361819000,7.64281884765625,0.3326924741268158,0.21357376873493195,-0.23716843128204346
1759335060371818800,7.65281884765625,-0.030161472037434578,-0.4699844419956207,-0.8077165484428406
1759335060381819000,7.66281884765625,-0.39851322770118713,-0.8145124316215515,-0.9702067375183105
1759335060391818800,7.67281884765625,-0.6825655698776245,-1.002048134803772,-0.813825249671936
1759335060401819000,7.68281884765625,-0.8963683843612671,-1.1834750175476074,-0.5816964507102966
1759335060411818800,7.69281884765625,-0.9971611499786377,-1.446147084236145,-0.32879820466041565
1759335060421819000,7.70281884765625,-1.0307587385177612,-1.6043611764907837,-0.06368270516395569
1759335060431818800,7.71281884765625,-0.9452376365661621,-1.2231812477111816,0.05421429127454758
1759335060441819000,7.72281884765625,-0.7179957628250122,-0.4650975167751312,0.16661348938941956
1759335060451819800,7.73281982421875,-0.396680623292923,0.2154063582420349,0.2997821271419525
1759335060461819600,7.742819580078125,-0.04787656292319298,0.49762609601020813,0.4317290186882019
1759335060471819800,7.75281982421875,0.20746511220932007,0.5550474524497986,0.43967026472091675
1759335060481819600,7.762819580078125,0.2777146100997925,0.5654321312904358,0.3205515444278717
1759335060491819800,7.77281982421875,0.10300715267658234,0.5715407729148865,0.11407908797264099
1759335060501819600,7.782819580078125,-0.24274258315563202,0.5067890882492065,-0.011759156361222267
1759335060511819800,7.79281982421875,-0.45898887515068054,0.32475122809410095,-0.12538009881973267
1759335060521819600,7.802819580078125,-0.4308890700340271,0.3131448030471802,-0.20051652193069458
1759335060531819800,7.81281982421875,-0.2787836194038391,0.5752059817314148,-0.14492778480052948
1759335060541819600,7.822819580078125,0.060246583074331284,0.9020189046859741,-0.02580905705690384
1759335060551819000,7.832819091796875,0.3125339448451996,1.298470377922058,0.13729196786880493
1759335060561819000,7.84281884765625,0.531223714351654,1.870240330696106,0.34865134954452515
1759335060571819000,7.852819091796875,0.7193701863288879,2.341217517852783,0.5832235813140869
1759335060581819000,7.86281884765625,0.8653669953346252,2.5397486686706543,0.7896960377693176
1759335060591819000,7.872819091796875,0.966770589351654,2.4841599464416504,0.9295842051506042
1759335060601818600,7.882818603515625,1.031522274017334,2.2758548259735107,0.9772316813468933
1759335060611818500,7.892818603515625,1.0376310348510742,1.9808069467544556,0.9369145631790161
1759335060621818400,7.902818359375,0.9948704242706299,1.6827046871185303,0.8471173644065857
1759335060631818500,7.912818603515625,0.9240100383758545,1.4291956424713135,0.7304421067237854
1759335060641818400,7.922818359375,0.8409323692321777,1.2208905220031738,0.6033821702003479
1759335060651819300,7.9328193359375,0.7749589085578918,0.8769733905792236,0.3901901841163635
1759335060661819400,7.9428193359375,0.7731263041496277,0.5324454307556152,0.25641068816185
1759335060671819300,7.9528193359375,0.7755697965621948,0.1952477991580963,0.18555031716823578
1759335060681819400,7.9628193359375,0.8488736152648926,0.016264287754893303,0.20631973445415497
1759335060691819300,7.9728193359375,0.9777661561965942,0.11766792088747025,0.3352122902870178
1759335060701819400,7.9828193359375,1.0076985359191895,0.40477457642555237,0.5728389024734497
1759335060711819300,7.9928193359375,0.9209557175636292,0.6576728224754333,0.8232936263084412
1759335060721819400,8.0028193359375,0.748080849647522,0.7615199089050293,0.9900598526000977
1759335060731819300,8.0128193359375,0.5422192811965942,0.7829001545906067,1.023046612739563
1759335060741819400,8.0228193359375,0.3968333303928375,0.7114289402961731,0.9405797719955444
1759335060751818500,8.032818603515626,0.2703842222690582,0.5825363397598267,0.7750352621078491
1759335060761818400,8.042818359375,0.17814357578754425,0.46036332845687866,0.5679519772529602
1759335060771818500,8.052818603515625,0.14332425594329834,0.2868776023387909,0.4720461070537567
1759335060781818400,8.062818359375,0.19891299307346344,0.2673299014568329,0.5820018649101257
1759335060791818500,8.072818603515625,0.30214923620224,0.04619668424129486,0.782976508140564
1759335060801818400,8.082818359375,0.3687335252761841,-0.254349023103714,0.9845620393753052
1759335060811818500,8.092818603515624,0.37972912192344666,-0.4113413989543915,1.1537717580795288
1759335060821818400,8.102818359375,0.3717878460884094,-0.42416954040527344,1.2484558820724487
1759335060831818500,8.112818603515626,0.37545305490493774,-0.325209379196167,1.26067316532135
1759335060841818400,8.122818359375,0.3717878460884094,-0.24029912054538727,1.2111930847167969
1759335060851819300,8.1328193359375,0.3742313086986542,-0.1737148016691208,1.1171197891235352
1759335060861819100,8.142819091796875,0.3974441885948181,-0.11018481850624084,1.0279334783554077
1759335060871819300,8.1528193359375,0.4322635233402252,-0.02344195358455181,0.9497427344322205
1759335060881819100,8.162819091796875,0.49640437960624695,0.2166280895471573,0.889267086982727
1759335060891819300,8.1728193359375,0.5422192811965942,0.3980550765991211,0.8788823485374451
1759335060901819600,8.182819580078124,0.5904776453971863,0.5458844304084778,0.8739954233169556
1759335060911819800,8.19281982421875,0.6375142335891724,0.624686062335968,0.8721628785133362
1759335060921819600,8.202819580078126,0.6686683893203735,0.6130796074867249,0.8587238192558289
1759335060931819800,8.21281982421875,0.7016550898551941,0.5452736020088196,0.8550586104393005
1759335060941819600,8.222819580078125,0.7309766411781311,0.46036332845687866,0.8489499688148499
1759335060951818800,8.23281884765625,0.7505242824554443,0.36629006266593933,0.8495608568191528
1759335060961819000,8.24281884765625,0.7541894912719727,0.25511258840560913,0.8684976696968079
1759335060971818800,8.25281884765625,0.7450265288352966,0.10545061528682709,0.899040937423706
1759335060981819000,8.26281884765625,0.7157049775123596,-0.057039543986320496,0.9570731520652771
1759335060991818800,8.27281884765625,0.6485098004341125,-0.14622586965560913,1.0615310668945312
1759335061001819000,8.28281884765625,0.4279874563217163,0.030314188450574875,1.231351613998413
1759335061011818800,8.29281884765625,0.2764928936958313,0.33941200375556946,1.2832751274108887
1759335061021819000,8.30281884765625,0.1854739636182785,0.6173557043075562,1.209971308708191
1759335061031818800,8.31281884765625,0.14760030806064606,0.5739842653274536,1.0041097402572632
1759335061041819000,8.32281884765625,0.14821118116378784,0.15615242719650269,0.6687447428703308
1759335061051819800,8.33281982421875,0.11766792088747025,-0.49380818009376526,0.2967278063297272
1759335061061819600,8.342819580078125,-0.013057244941592216,-1.0472520589828491,0.06643159687519073
1759335061071819800,8.35281982421875,-0.13950635492801666,-0.9678395986557007,-0.013591751456260681
1759335061081819100,8.362819091796876,-0.2781727612018585,-0.48953214287757874,0.01817324012517929
1759335061091819300,8.3728193359375,-0.36858081817626953,0.16775886714458466,0.02977968007326126
1759335061101819100,8.382819091796875,-0.4314999282360077,0.6106361746788025,-0.1033889427781105
1759335061111819300,8.3928193359375,-0.5048037767410278,0.6075818538665771,-0.5682573914527893
1759335061121819100,8.402819091796875,-0.5842162370681763,0.272827684879303,-0.8914051055908203
1759335061131819300,8.4128193359375,-0.6746243238449097,-0.11323914676904678,-1.1693488359451294
1759335061141819100,8.422819091796875,-0.667293906211853,-0.6031530499458313,-1.4869986772537231
1759335061151818500,8.432818603515624,-0.5964335799217224,-1.1083385944366455,-1.8290832042694092
1759335061161818400,8.442818359375,-0.5658903121948242,-1.4064408540725708,-2.16322660446167
1759335061171818500,8.452818603515626,-0.5848271250724792,-1.4638621807098389,-2.4747679233551025
1759335061181818400,8.462818359375,-0.6159812211990356,-1.2806025743484497,-2.7533223628997803
1759335061191818500,8.472818603515625,-0.6831763982772827,-1.010600209236145,-2.9323058128356934
1759335061201818400,8.482818359375,-0.7564802765846252,-0.9348528981208801,-2.981786012649536
1759335061211818200,8.492818359375,-0.7827474474906921,-0.8688794374465942,-3.0196595191955566
1759335061221818400,8.502818359375,-0.781525731086731,-0.5035820603370667,-3.0642528533935547
1759335061231818200,8.512818359375,-0.7405977249145508,0.3766747713088989,-3.009885787963867
1759335061241818400,8.522818359375,-0.7778605222702026,0.63507080078125,-2.8962647914886475
1759335061251819300,8.5328193359375,-0.790688693523407,0.6833291053771973,-2.8321239948272705
1759335061261819100,8.542819091796876,-0.780914843082428,0.45547640323638916,-2.8046350479125977
1759335061271819300,8.5528193359375,-0.7479281425476074,0.09017898142337799,-2.7881417274475098
1759335061281819100,8.562819091796875,-0.76136714220047,-0.17554740607738495,-2.7795896530151367
1759335061291819300,8.5728193359375,-0.7577019929885864,-0.3197115957736969,-2.676964282989502
1759335061301819100,8.582819091796875,-0.6978371739387512,-0.33681583404541016,-2.4906504154205322
1759335061311819300,8.5928193359375,-0.6007096171379089,-0.4162282943725586,-2.2157609462738037
1759335061321819000,8.60281884765625,-0.5298492312431335,-0.545120894908905,-1.9310977458953857
1759335061331818800,8.61281884765625,-0.4876995384693146,-0.6514114141464233,-1.6653714179992676
1759335061341819000,8.62281884765625,-0.5335144400596619,-0.6599635481834412,-1.288467526435852
1759335061351818000,8.63281787109375,-0.687452495098114,-0.7015023827552795,-1.0630582571029663
1759335061361817900,8.64281787109375,-0.913472592830658,-0.8206210732460022,-0.8419250249862671
1759335061371818000,8.65281787109375,-1.0924561023712158,-1.1309406757354736,-0.6831000447273254
1759335061381818400,8.662818359375,-1.1969140768051147,-1.5927547216415405,-0.6244570016860962
1759335061391818200,8.672818359375,-1.1718685626983643,-1.9641607999801636,-0.6629415154457092
1759335061401818400,8.682818359375,-1.058247685432434,-2.050903797149658,-0.623235285282135
1759335061411818200,8.692818359375,-0.8884271383285522,-1.903685212135315,-0.49128836393356323
1759335061421818400,8.702818359375,-0.7173848748207092,-1.6807193756103516,-0.2860376536846161
1759335061431818200,8.712818359375,-0.5884923338890076,-1.4137712717056274,-0.039248090237379074
1759335061441818400,8.722818359375,-0.4974733889102936,-1.1309406757354736,0.1837177276611328
1759335061451819300,8.7328193359375,-0.3948480188846588,-0.8358927369117737,0.47448956966400146
1759335061461819100,8.742819091796875,-0.21036672592163086,-0.415617436170578,0.6357579827308655
1759335061471819300,8.7528193359375,-0.07903069257736206,-0.14928019046783447,0.7701483368873596
1759335061481819100,8.762819091796874,0.035811975598335266,0.06696610152721405,0.8874344825744629
1759335061491819300,8.7728193359375,0.14149166643619537,0.2154063582420349,1.0071641206741333
1759335061501819100,8.782819091796876,0.24228443205356598,0.3375793993473053,1.145830512046814
1759335061511819300,8.7928193359375,0.33452507853507996,0.5342780351638794,1.288162112236023
1759335061521819100,8.802819091796875,0.44509169459342957,0.8586474657058716,1.4555391073226929
1759335061531819300,8.8128193359375,0.5837581157684326,1.2373839616775513,1.6644550561904907
1759335061541819100,8.822819091796875,0.7181484699249268,1.6271159648895264,1.8666514158248901
1759335061551818200,8.832818359375,0.8116108179092407,1.9130008220672607,2.0413589477539062
1759335061561818400,8.842818359375,0.8366563320159912,2.0638844966888428,2.102445363998413
1759335061571818200,8.852818359375,0.7364743947982788,1.8696293830871582,1.725541591644287
1759335061581818400,8.862818359375,0.5593234896659851,1.4542410373687744,1.0077749490737915
1759335061591818200,8.872818359375,0.23923009634017944,0.758465588092804,0.08903361111879349
1759335061601818400,8.882818359375,-0.07597636431455612,-0.09002626687288284,-0.7087563872337341
1759335061611818200,8.892818359375,-0.3557526469230652,-0.6941719651222229,-1.1155925989151
1759335061621818600,8.902818603515625,-0.6172029972076416,-0.9660070538520813,-1.1669052839279175
1759335061631818800,8.91281884765625,-0.8114581108093262,-1.1559860706329346,-1.0190759897232056
1759335061641818600,8.922818603515625,-0.9873872995376587,-1.3734540939331055,-0.8193230032920837
1759335061651819500,8.932819580078124,-1.0851258039474487,-1.5628223419189453,-0.6091853380203247
1759335061661819600,8.942819580078124,-1.126664638519287,-1.6379587650299072,-0.35811975598335266
1759335061671819500,8.952819580078126,-1.084514856338501,-1.5805374383926392,-0.14676037430763245
1759335061681819600,8.962819580078126,-0.7943539023399353,-0.8517752289772034,-0.01725694350898266
1759335061691819500,8.972819580078125,-0.5329035520553589,-0.3044399619102478,0.11774427443742752
1759335061701819600,8.982819580078125,-0.20120373368263245,0.030314188450574875,0.3614795207977295
1759335061711819500,8.992819580078125,0.14332425594329834,0.382172554731369,0.5673410892486572
1759335061721819600,9.002819580078125,0.4273765981197357,0.5990297198295593,0.6290385127067566
1759335061731819500,9.012819580078125,0.5037347674369812,0.5208389759063721,0.4634940028190613
1759335061741819600,9.022819580078124,0.19280433654785156,0.3742313086986542,0.14278975129127502
1759335061751818800,9.03281884765625,-0.3997349441051483,0.06574437022209167,-0.21639901399612427
1759335061761818600,9.042818603515625,-0.6660721898078918,-0.22747094929218292,-0.5340489149093628
1759335061771818800,9.05281884765625,-0.5322927236557007,0.013820826075971127,-0.5682573914527893
1759335061781818400,9.062818359375,-0.27756190299987793,0.3229186534881592,-0.4992296099662781
1759335061791818500,9.072818603515625,0.04375322163105011,0.8580365777015686,-0.34284812211990356
1759335061801818400,9.082818359375,0.5837581157684326,2.0883193016052246,0.16233743727207184
1759335061811818500,9.092818603515624,0.8678104281425476,2.779207706451416,0.4732678532600403
1759335061821818400,9.102818359375,1.0712286233901978,3.1188488006591797,0.7860308289527893
1759335061831818500,9.112818603515626,1.2068406343460083,3.195207118988037,1.0462594032287598
1759335061841818600,9.122818603515626,1.2709815502166748,3.0980794429779053,1.211803913116455
1759335061851819300,9.1328193359375,1.2386056184768677,2.7969229221343994,1.2429580688476562
1759335061861819400,9.1428193359375,1.1317042112350464,2.310063362121582,1.1617130041122437
1759335061871819300,9.1528193359375,1.0095311403274536,1.682093858718872,1.0102183818817139
1759335061881819400,9.1628193359375,0.929507851600647,1.0022008419036865,0.7689266204833984
1759335061891819300,9.1728193359375,0.8739190697669983,0.3986659348011017,0.4732678532600403
1759335061901819400,9.1828193359375,0.8213846683502197,-0.05276348441839218,0.20876319706439972
1759335061911819500,9.192819580078124,0.8140543103218079,-0.3948480188846588,0.004123340360820293
1759335061921819400,9.2028193359375,0.9655488729476929,-0.3093268871307373,0.052381694316864014
1759335061931819500,9.212819580078126,1.0828349590301514,-0.06131559982895851,0.23686300218105316
1759335061941819400,9.2228193359375,0.9912052154541016,0.17875444889068604,0.5343543887138367
1759335061951818800,9.23281884765625,0.7126506567001343,0.24778221547603607,0.8397870063781738
1759335061961818600,9.242818603515625,0.42065706849098206,0.28382325172424316,1.031598687171936
1759335061971818800,9.25281884765625,0.20807597041130066,0.38644862174987793,1.0810787677764893
1759335061981818600,9.262818603515624,0.060246583074331284,0.5342780351638794,0.9980010986328125
1759335061991818800,9.27281884765625,-0.021609358489513397,0.6723335385322571,0.8489499688148499
1759335062001818600,9.282818603515626,-0.04054617881774902,0.6839399933815002,0.7121161818504333
1759335062011818800,9.29281884765625,-0.0069485921412706375,0.596586287021637,0.6345362663269043
1759335062021818600,9.302818603515625,0.08223773539066315,0.5031238794326782,0.6559165716171265
1759335062031818800,9.31281884765625,0.24839307367801666,0.4127158224582672,0.7787004709243774
1759335062041818600,9.322818603515625,0.36995527148246765,0.301538348197937,0.9124799370765686
1759335062051819500,9.332819580078125,0.47135889530181885,0.12805262207984924,1.077413558959961
1759335062061819400,9.3428193359375,0.5238932967185974,0.0022143865935504436,1.182482361793518
1759335062071819500,9.352819580078124,0.5581017732620239,-0.03199406713247299,1.2429580688476562
1759335062081819600,9.362819580078124,0.5880341529846191,0.04864014685153961,1.2368494272232056
1759335062091819800,9.37281982421875,0.595975399017334,0.14393512904644012,1.2026410102844238
1759335062101820000,9.38281982421875,0.5837581157684326,0.2465604841709137,1.1385000944137573
1759335062111819800,9.39281982421875,0.5874232649803162,0.34368807077407837,1.0395399332046509
1759335062121819600,9.402819580078125,0.6173557043075562,0.4243222773075104,0.9375254511833191
1759335062131819800,9.41281982421875,0.6552293300628662,0.4676937162876129,0.8495608568191528
1759335062141819600,9.422819580078125,0.7095963358879089,0.46647197008132935,0.7652614116668701
1759335062151818800,9.43281884765625,0.7328092455863953,0.42615485191345215,0.7646505832672119
1759335062161819000,9.44281884765625,0.7517460584640503,0.3675118088722229,0.7988590002059937
1759335062171818800,9.45281884765625,0.7590764164924622,0.31375566124916077,0.8550586104393005
1759335062181819000,9.46281884765625,0.7541894912719727,0.2777146100997925,0.9344711303710938
1759335062191818800,9.47281884765625,0.7315874695777893,0.18180876970291138,1.0267117023468018
1759335062201819000,9.48281884765625,0.6955464482307434,0.029703322798013687,1.1006264686584473
1759335062211818800,9.49281884765625,0.6222426295280457,-0.17127133905887604,1.1452195644378662
1759335062221819000,9.50281884765625,0.5110651254653931,-0.32826370000839233,1.1678216457366943
1759335062231818800,9.51281884765625,0.37972912192344666,-0.28244882822036743,1.1910345554351807
1759335062241819000,9.52281884765625,0.2361757755279541,0.08162686973810196,1.2166908979415894
1759335062251819500,9.532819580078124,0.12316570430994034,0.6802747845649719,1.2191343307495117
1759335062261819600,9.542819580078126,0.09628763794898987,1.2819770574569702,1.0407617092132568
1759335062271819500,9.552819580078125,0.15431983768939972,1.147586703300476,0.7011205554008484
1759335062281819600,9.562819580078125,0.20318904519081116,0.6026949286460876,0.2539672255516052
1759335062291819500,9.572819580078125,0.1549306958913803,-0.09430231899023056,-0.13087788224220276
1759335062301819600,9.582819580078125,0.019318614155054092,-0.6184247136116028,-0.3043636083602905
1759335062311819500,9.592819580078125,-0.14011721312999725,-0.619646430015564,-0.3000875413417816
1759335062321819600,9.602819580078124,-0.2439643144607544,-0.1126282811164856,-0.23411411046981812
1759335062331819500,9.612819580078124,-0.3465896546840668,0.42982006072998047,-0.22678372263908386
1759335062341819600,9.622819580078126,-0.5206862688064575,0.6576728224754333,-0.35445454716682434
1759335062351818800,9.63281884765625,-0.7021132707595825,0.5416083931922913,-0.6195700764656067
1759335062361818600,9.642818603515625,-0.8426122665405273,0.1909717470407486,-0.9207266569137573
1759335062371818800,9.65281884765625,-0.9317985773086548,-0.3288745880126953,-1.2841914892196655
1759335062381818600,9.662818603515625,-0.8523861169815063,-0.5335144400596619,-1.5627460479736328
1759335062391818800,9.67281884765625,-0.6569092273712158,-0.3710242807865143,-2.0612120628356934
1759335062401818600,9.682818603515624,-0.5432882905006409,-0.20486892759799957,-2.5499043464660645
1759335062411818800,9.69281884765625,-0.4809800088405609,-0.2293035387992859,-2.8516716957092285
1759335062421818600,9.702818603515626,-0.43944117426872253,-0.22686007618904114,-3.088076591491699
1759335062431818800,9.71281884765625,-0.5096907019615173,-0.16027577221393585,-3.3489160537719727
1759335062441818600,9.722818603515625,-0.619035542011261,-0.28611400723457336,-3.444211006164551
1759335062451819500,9.732819580078125,-0.677678644657135,-0.4956407845020294,-3.3819026947021484
1759335062461819600,9.742819580078125,-0.7051675915718079,-0.6251442432403564,-3.1558825969696045
1759335062471819500,9.752819580078125,-0.5884923338890076,-0.5475643277168274,-2.8742737770080566
1759335062481819100,9.762819091796874,-0.4907538592815399,-0.496862530708313,-2.5755605697631836
1759335062491819300,9.7728193359375,-0.6117051839828491,-0.5946009755134583,-2.509587049484253
1759335062501819100,9.782819091796876,-0.7790822386741638,-0.6245333552360535,-2.5804474353790283
1759335062511819300,9.7928193359375,-0.8597164750099182,-0.6446918845176697,-2.6623034477233887
1759335062521819100,9.802819091796875,-0.9611201286315918,-1.0674107074737549,-2.4796547889709473
1759335062531819300,9.8128193359375,-0.9696722030639648,-1.523116111755371,-2.1815524101257324
1759335062541819100,9.822819091796875,-0.9507353901863098,-1.905517816543579,-1.8327484130859375
1759335062551818500,9.832818603515625,-0.7821365594863892,-2.1077141761779785,-1.5486961603164673
1759335062561818400,9.842818359375,-0.525573194026947,-2.0741164684295654,-1.2927435636520386
1759335062571818500,9.852818603515624,-0.31115949153900146,-1.864589810371399,-1.0655016899108887
1759335062581818400,9.862818359375,-0.3093268871307373,-1.4052191972732544,-0.9970847964286804
1759335062591818500,9.872818603515626,-0.46448665857315063,-0.8774315714836121,-1.0123564004898071
1759335062601818400,9.882818359375,-0.8603273630142212,-0.4150065779685974,-0.9256135821342468
1759335062611818200,9.892818359375,-1.143157958984375,-0.5371796488761902,-0.7851145267486572
1759335062621818400,9.902818359375,-1.2598332166671753,-1.0533607006072998,-0.5914703011512756
1759335062631818200,9.912818359375,-1.1682034730911255,-1.8181639909744263,-0.4265366494655609
1759335062641818400,9.922818359375,-0.9605092406272888,-2.3563363552093506,-0.342237263917923
1759335062651819300,9.9328193359375,-0.7076110243797302,-2.6831493377685547,-0.1638645976781845
1759335062661819100,9.942819091796874,-0.47975829243659973,-2.6416103839874268,0.025503624230623245
1759335062671819300,9.9528193359375,-0.34231361746788025,-2.181628942489624,0.1635591685771942
1759335062681819100,9.962819091796876,-0.2891683280467987,-1.6019177436828613,0.3205515444278717
1759335062691819300,9.9728193359375,-0.30627256631851196,-1.151710033416748,0.5117523670196533
1759335062701819100,9.982819091796875,-0.3404810130596161,-0.8041277527809143,0.679740309715271
1759335062711819300,9.9928193359375,-0.29100093245506287,-0.406454473733902,0.9485210180282593
1759335062721819100,10.002819091796875,-0.1272890418767929,-0.15172365307807922,1.1256719827651978
1759335062731819300,10.0128193359375,0.012599095702171326,0.036422841250896454,1.2539535760879517
1759335062741819100,10.022819091796874,0.14393512904644012,0.2160172164440155,1.399950385093689
1759335062751818200,10.032818359375,0.22945626080036163,0.4744132161140442,1.5685492753982544
1759335062761818400,10.042818359375,0.1909717470407486,0.8714756369590759,1.6852245330810547
1759335062771818200,10.052818359375,0.26977336406707764,1.317407250404358,1.88558828830719
1759335062781818600,10.062818603515625,0.5275585055351257,1.752954125404358,2.1201605796813965
1759335062791818800,10.07281884765625,0.7902305722236633,1.9881372451782227,2.1867449283599854
1759335062801818600,10.082818603515625,0.8415432572364807,2.0235674381256104,1.8807014226913452
1759335062811818800,10.09281884765625,0.6992116570472717,1.682093858718872,1.221577763557434
1759335062821818600,10.102818603515624,0.45547640323638916,0.996703028678894,0.4231768846511841
1759335062831818800,10.11281884765625,0.10545061528682709,-0.2500729560852051,-0.7154759168624878
1759335062841818600,10.122818603515626,-0.16027577221393585,-0.7741953134536743,-1.013578176498413
1759335062851819500,10.132819580078126,-0.4553236961364746,-0.9550114274024963,-1.0764973163604736
1759335062861819600,10.142819580078125,-0.6630178689956665,-0.9898307919502258,-0.9152288436889648
1759335062871819500,10.152819580078125,-0.6813437938690186,-0.8163450360298157,-0.603076696395874
1759335062881819600,10.162819580078125,-0.6752351522445679,-0.6648504734039307,-0.251218318939209
1759335062891819500,10.172819580078125,-0.7112762331962585,-0.30138564109802246,-0.1589776873588562
1759335062901819600,10.182819580078124,-0.8615490794181824,0.11400272697210312,-0.20112738013267517
1759335062911819500,10.192819580078124,-0.6941719651222229,0.22273674607276917,-0.30375275015830994
1759335062921819600,10.202819580078126,-0.5194645524024963,0.1555415689945221,-0.22861631214618683
1759335062931819500,10.212819580078126,-0.3844633102416992,0.47624582052230835,0.13118331134319305
1759335062941819600,10.222819580078125,-0.15477798879146576,0.9887617826461792,0.2704605758190155
1759335062951818800,10.23281884765625,-0.12179125845432281,0.7566329836845398,0.19288070499897003
1759335062961819000,10.24281884765625,-0.182877779006958,0.3882812261581421,0.043218716979026794
1759335062971818800,10.25281884765625,-0.24152085185050964,0.22823452949523926,-0.14187344908714294
1759335062981819000,10.26281884765625,-0.22136229276657104,0.27954721450805664,-0.2848159074783325
1759335062991818800,10.27281884765625,-0.13950635492801666,0.7694611549377441,-0.18707747757434845
1759335063001819000,10.28281884765625,0.17936530709266663,1.5556447505950928,0.0835358202457428
1759335063011818800,10.29281884765625,0.6918812394142151,2.424906015396118,0.5917757153511047
1759335063021819000,10.30281884765625,1.1249847412109375,3.1884875297546387,0.9900598526000977
1759335063031818800,10.31281884765625,1.3503940105438232,3.576997756958008,1.2087496519088745
1759335063041819000,10.32281884765625,1.3051899671554565,3.429168462753296,1.1635456085205078
1759335063051819500,10.332819580078125,0.96799236536026,2.1726186275482178,0.6461427211761475
1759335063061819600,10.342819580078125,0.43470698595046997,-0.10163270682096481,0.11163562536239624
1759335063071819500,10.352819580078124,0.31864258646965027,-0.7686975598335266,-0.02275473065674305
1759335063081819600,10.362819580078124,0.401720255613327,-0.8591055870056152,-0.06734789162874222
1759335063091819500,10.372819580078126,0.6289620995521545,-0.5243514776229858,-0.14065171778202057
1759335063101819600,10.382819580078126,0.8207738399505615,-0.08452847599983215,-0.1388191282749176
1759335063111819500,10.392819580078125,0.9233991503715515,0.36018142104148865,-0.1088867336511612
1759335063121819600,10.402819580078125,0.919123113155365,0.7315874695777893,-0.008704829961061478
1759335063131819800,10.41281982421875,0.8488736152648926,1.0321332216262817,0.14828753471374512
1759335063151818800,10.43281884765625,0.6759987473487854,1.3070225715637207,0.5099197626113892
1759335063161819000,10.44281884765625,0.5745950937271118,1.2740358114242554,0.7053966522216797
1759335063171818800,10.45281884765625,0.47013717889785767,1.137812852859497,0.9631817936897278
1759335063181819000,10.46281884765625,0.4328743815422058,1.0449613332748413,1.069472312927246
1759335063191818800,10.47281884765625,0.4121049642562866,0.9435577392578125,1.0841331481933594
1759335063201819000,10.48281884765625,0.3937790095806122,0.7804567217826843,1.002277135848999
1759335063211818800,10.49281884765625,0.330859899520874,0.5428301095962524,0.9259189963340759
1759335063221819000,10.50281884765625,0.2557234764099121,0.2661081850528717,0.8581129312515259
1759335063231818800,10.51281884765625,0.20013472437858582,0.04986187443137169,0.7939720749855042
1759335063241819000,10.52281884765625,0.1353830099105835,-0.1676061451435089,0.7536550164222717
1759335063251819500,10.532819580078124,0.07307475805282593,-0.3753003478050232,0.7444919943809509
1759335063261819600,10.542819580078126,0.05780312418937683,-0.4608214795589447,0.7725918292999268
1759335063271819500,10.552819580078125,0.12072224169969559,-0.38201984763145447,0.8086328506469727
1759335063281819600,10.562819580078125,0.2215150147676468,-0.20731239020824432,0.7970264554023743
1759335063291819500,10.572819580078125,0.33024901151657104,0.012599095702171326,0.7096726894378662
1759335063301819600,10.582819580078125,0.3516293168067932,0.05902485549449921,0.6162103414535522
1759335063311819800,10.59281982421875,0.3815616965293884,0.09384417533874512,0.5239696502685547
1759335063321819600,10.602819580078124,0.401720255613327,0.04253149405121803,0.5044219493865967
1759335063331819800,10.61281982421875,0.3461315333843231,-0.09124799817800522,0.5783366560935974
1759335063341819600,10.622819580078126,0.6833291053771973,-0.07414376735687256,0.737772524356842
1759335063351818800,10.63281884765625,1.6759852170944214,0.453643798828125,0.698066234588623
1759335063361819000,10.64281884765625,1.757230281829834,0.8531496524810791,0.6663012504577637
1759335063371818800,10.65281884765625,1.3406201601028442,0.4218788146972656,0.9955576062202454
1759335063381819000,10.66281884765625,0.9857074022293091,-0.6269767880439758,1.0175487995147705
1759335063391818800,10.67281884765625,0.8733082413673401,-1.4944055080413818,0.7096726894378662
1759335063401819000,10.68281884765625,0.6332381963729858,-1.7558557987213135,0.4421137273311615
1759335063411818800,10.69281884765625,0.2960405647754669,-1.3386348485946655,0.6265950202941895
1759335063421819000,10.70281884765625,0.009544769302010536,-0.7265478372573853,0.9705121517181396
1759335063431818800,10.71281884765625,-0.10102184116840363,-0.3001639246940613,1.3388638496398926
1759335063441819000,10.72281884765625,-0.039324451237916946,-0.1975385546684265,1.7395914793014526
1759335063451819500,10.732819580078125,0.15248723328113556,-0.31726813316345215,2.0248656272888184
1759335063461819600,10.742819580078125,0.24045182764530182,-0.6172029972076416,2.0285308361053467
1759335063471820000,10.752820068359375,0.3430771827697754,-0.8022951483726501,1.7402023077011108
1759335063481820000,10.76281982421875,0.43531784415245056,-0.5231297016143799,1.5801557302474976
1759335063491820000,10.772820068359374,0.31497737765312195,0.0797942727804184,1.62047278881073
1759335063501820000,10.78281982421875,-0.07108944654464722,0.6729444265365601,1.8128952980041504
1759335063511820000,10.792820068359376,-0.5280166268348694,0.966770589351654,1.9100228548049927
1759335063521820000,10.80281982421875,-0.82917320728302,1.0009790658950806,1.3584115505218506
1759335063531820000,10.812820068359375,-0.7302130460739136,0.9716575145721436,0.6137668490409851
1759335063541820000,10.82281982421875,-0.506025493144989,0.9924269318580627,-0.09422596544027328
1759335063551819000,10.832819091796875,-0.26351198554039,0.8720865249633789,-0.5902485251426697
1759335063561819100,10.842819091796875,-0.09124799817800522,0.5128977298736572,-0.9873109459877014
1759335063581819100,10.862819091796876,0.0749073475599289,-0.48831039667129517,-1.6067283153533936
1759335063591819000,10.872819091796876,0.1604284793138504,-0.7369325757026672,-1.9860756397247314
1759335063601819100,10.882819091796875,0.24350616335868835,-0.6630178689956665,-2.2261457443237305
1759335063611819000,10.892819091796875,0.18975001573562622,-0.5390121936798096,-2.2261457443237305
1759335063621819100,10.902819091796875,0.20746511220932007,-0.4901430010795593,-2.119244337081909
1759335063631819000,10.912819091796875,0.190360888838768,-0.5842162370681763,-2.0813705921173096
1759335063641819100,10.922819091796875,-0.011224648915231228,-0.5744423866271973,-1.7343991994857788
1759335063651820000,10.932820068359375,-0.18532124161720276,0.0749073475599289,-1.3947581052780151
1759335063661819600,10.942819580078124,-0.4113413989543915,0.6332381963729858,-1.507768154144287
1759335063671819500,10.952819580078126,-0.6055965423583984,0.9319512844085693,-1.5963436365127563
1759335063681819600,10.962819580078126,-0.7387651801109314,1.0712286233901978,-1.574352502822876
1759335063691819500,10.972819580078125,-0.971504807472229,1.0382418632507324,-1.4631749391555786
1759335063701819600,10.982819580078125,-1.2109639644622803,0.9545533061027527,-1.2927435636520386
1759335063711819500,10.992819580078125,-1.2683852910995483,0.8531496524810791,-1.2157745361328125
1759335063721819600,11.002819580078125,-1.2164617776870728,0.6191883087158203,-1.2206615209579468
1759335063731819500,11.012819580078125,-1.200579285621643,0.4127158224582672,-1.202946424484253
1759335063741819600,11.022819580078124,-1.1840859651565552,0.19952386617660522,-1.162629246711731
1759335063751818800,11.03281884765625,-1.1590404510498047,-0.152334526181221,-0.9042332768440247
1759335063761818600,11.042818603515625,-1.0979539155960083,-0.24518603086471558,-0.6281222105026245
1759335063771818500,11.052818603515625,-0.8914814591407776,-0.23113614320755005,-0.39354994893074036
1759335063781818400,11.062818359375,-0.6141486167907715,0.0071013085544109344,-0.20234911143779755
1759335063791818500,11.072818603515625,-0.38873937726020813,0.29359710216522217,-0.1394299864768982
1759335063801818400,11.082818359375,-0.31787899136543274,0.5794820189476013,-0.22800545394420624
1759335063811818500,11.092818603515624,-0.3563635051250458,0.8470410108566284,-0.36300668120384216
1759335063821818400,11.102818359375,-0.4626540541648865,0.9172905087471008,-0.5126686692237854
1759335063831818500,11.112818603515626,-0.5005277395248413,0.9423360228538513,-0.5755877494812012
1759335063841818400,11.122818359375,-0.4412737786769867,0.9954812526702881,-0.5028948187828064
1759335063851819300,11.1328193359375,-0.5048037767410278,1.1005500555038452,-0.3623957931995392
1759335063861819100,11.142819091796875,-0.7393760085105896,1.4017066955566406,-0.10583240538835526
1759335063871819300,11.1528193359375,-0.8859837055206299,1.2483794689178467,-0.00809396430850029
1759335063881819100,11.162819091796875,-1.0576368570327759,0.6185774207115173,0.07864890247583389
1759335063891818800,11.17281884765625,-1.0839040279388428,-0.10651962459087372,0.22342395782470703
1759335063901819000,11.18281884765625,-0.9495136737823486,-0.9055313467979431,0.3413209617137909
1759335063911818800,11.19281884765625,-0.8890380263328552,-1.2665526866912842,0.5135849714279175
1759335063921819000,11.20281884765625,-0.8701011538505554,-1.3740650415420532,0.660803496837616
1759335063931818800,11.21281884765625,-0.7876343727111816,-1.2812135219573975,0.8349000811576843
1759335063941819000,11.22281884765625,-0.7784714102745056,-0.951957106590271,0.8978192210197449
1759335063951818000,11.23281787109375,-0.6807329654693604,-0.35330918431282043,0.7756461501121521
1759335063961818400,11.242818359375,-0.3997349441051483,0.9319512844085693,0.45005497336387634
1759335063971818200,11.252818359375,0.37972912192344666,3.886706590652466,0.12996158003807068
1759335063981818400,11.262818359375,0.8232172727584839,4.61119270324707,-0.30253100395202637
1759335063991818200,11.272818359375,1.1274281740188599,4.770628452301025,-0.8706356883049011
1759335064001818400,11.282818359375,1.3253484964370728,5.004590034484863,-1.0954340696334839
1759335064011818200,11.292818359375,1.4762321710586548,4.910516738891602,-0.926835298538208
1759335064021818400,11.302818359375,1.688813328742981,3.7297141551971436,-0.8407033085823059
1759335064031818200,11.312818359375,1.7480672597885132,2.9007699489593506,-0.7411322593688965
1759335064041818400,11.322818359375,1.7211891412734985,2.7401123046875,-0.6073527932167053
1759335064051819300,11.3328193359375,1.8158732652664185,2.9343676567077637,-0.6177374720573425
1759335064061819100,11.342819091796875,1.752954125404358,3.142061710357666,-0.5254968404769897
1759335064071819300,11.3528193359375,1.517160177230835,2.6405413150787354,-0.09728029370307922
1759335064081819100,11.362819091796876,1.272814154624939,2.3222806453704834,0.4763221740722656
1759335064091819300,11.3728193359375,0.625296950340271,0.5733733773231506,0.7909177541732788
1759335064101819100,11.382819091796875,0.2917645275592804,-0.33131805062294006,1.0444267988204956
1759335064111819300,11.3928193359375,-0.024052819237113,0.16836974024772644,1.0358747243881226
1759335064121819100,11.402819091796875,-0.2787836194038391,0.47624582052230835,1.5575536489486694
1759335064131819300,11.4128193359375,-0.3600287139415741,0.7688502669334412,1.7200437784194946
1759335064141819100,11.422819091796875,-0.34720054268836975,0.8562039732933044,2.0425806045532227
1759335064151818200,11.432818359375,-0.2745075821876526,0.8079456686973572,2.47568416595459
1759335064161818400,11.442818359375,-0.17066048085689545,0.9759336113929749,2.8440358638763428
1759335064171818200,11.452818359375,0.03275764733552933,1.1072696447372437,3.1635184288024902
1759335064181818400,11.462818359375,0.2880993187427521,0.4487568736076355,3.910606622695923
1759335064191818800,11.47281884765625,0.3980550765991211,0.4194353520870209,4.142124652862549
1759335064201819000,11.48281884765625,1.1274281740188599,1.33573317527771,4.6912922859191895
1759335064211818800,11.49281884765625,1.5330426692962646,2.5489115715026855,4.685183525085449
1759335064221819000,11.50281884765625,1.7944929599761963,3.2660675048828125,4.50803279876709
1759335064231818800,11.51281884765625,1.9716439247131348,3.4615442752838135,4.424344062805176
1759335064241819000,11.52281884765625,2.316171884536743,3.237356662750244,4.48604154586792
1759335064251819500,11.532819580078124,2.7352254390716553,3.577608585357666,4.247193336486816
1759335064261819600,11.542819580078126,3.153057336807251,4.954498767852783,3.419471025466919
1759335064271819500,11.552819580078125,3.3161582946777344,7.756537914276123,1.5795447826385498
1759335064281819600,11.562819580078125,3.0901381969451904,10.156627655029297,-0.6831000447273254
1759335064291819500,11.572819580078125,2.441399335861206,10.400362968444824,-2.303114652633667
1759335064301819600,11.582819580078125,1.3620004653930664,8.60686206817627,-2.8571693897247314
1759335064311818800,11.59281884765625,0.22945626080036163,5.278257369995117,-2.524247884750366
1759335064321818600,11.602818603515624,-1.5878678560256958,0.6949355602264404,-1.9909625053405762
1759335064341818600,11.622818603515626,-3.4955999851226807,0.5080108046531677,-1.8309158086776733
1759335064351817700,11.632817626953125,-4.118682384490967,1.204397201538086,-1.195005178451538
1759335064361817600,11.642817626953125,-4.680678367614746,1.470123529434204,-0.7057020664215088
1759335064371817700,11.652817626953125,-5.04841947555542,1.7712801694869995,-0.3776674270629883
1759335064381817600,11.662817626953125,-5.671502113342285,2.547689914703369,0.2301434874534607
1759335064391817700,11.672817626953124,-6.362390518188477,3.2966105937957764,1.0713049173355103
1759335064401817600,11.682817626953126,-6.842530727386475,3.5983781814575195,1.8978055715560913
1759335064411817700,11.692817626953126,-6.9286627769470215,3.4981961250305176,2.6479480266571045
1759335064421817600,11.702817626953125,-6.678818702697754,3.306384563446045,3.453679323196411
1759335064431817700,11.712817626953125,-6.1357598304748535,3.751094341278076,4.745659351348877
1759335064441817600,11.722817626953125,-5.6696696281433105,4.222682476043701,5.600259780883789
1759335064451818500,11.732818603515625,-5.174868583679199,4.448091506958008,6.2599945068359375
1759335064461818600,11.742818603515625,-4.684954643249512,4.55438232421875,6.725473403930664
1759335064471818500,11.752818603515625,-4.268344402313232,4.493906497955322,7.080996990203857
1759335064481818600,11.762818603515624,-4.024609088897705,4.401665687561035,7.444461822509766
1759335064491818500,11.772818603515624,-3.8633408546447754,4.221460819244385,7.809148788452148
1759335064501818600,11.782818603515626,-3.708181142807007,3.9447386264801025,8.146346092224121
1759335064511817700,11.792817626953125,-3.6825246810913086,3.6509125232696533,8.464607238769531
1759335064521817600,11.802817626953125,-3.907323122024536,3.013780117034912,8.56051254272461
1759335064531817700,11.812817626953125,-4.262846946716309,1.8622990846633911,8.300894737243652
1759335064551817700,11.832817626953124,-5.273828506469727,-1.0044915676116943,6.633233070373535
1759335064561817600,11.842817626953124,-5.814444541931152,-1.4204907417297363,5.696776390075684
1759335064571817700,11.852817626953126,-6.264041423797607,-1.4412602186203003,4.655862331390381
1759335064581817600,11.862817626953126,-6.495559215545654,-1.1003973484039307,3.573409080505371
1759335064591817700,11.872817626953125,-6.800381183624268,-0.17676913738250732,2.6986498832702637
1759335064601817600,11.882817626953125,-7.114976406097412,1.3039681911468506,2.068237066268921
1759335064611818500,11.892818603515625,-6.986694812774658,2.622826337814331,1.4701999425888062
1759335064621818600,11.902818603515625,-6.53465461730957,3.963064670562744,0.9894489645957947
1759335064631818800,11.91281884765625,-5.972047805786133,5.394321918487549,0.7664831876754761
1759335064641818600,11.922818603515625,-5.400277614593506,6.453562259674072,0.737772524356842
1759335064651819500,11.932819580078124,-4.937242031097412,7.109020709991455,0.9301950335502625
1759335064661819400,11.9428193359375,-4.507803916931152,6.961191177368164,1.422552466392517
1759335064671819500,11.952819580078126,-4.298276901245117,6.4987664222717285,1.7548631429672241
1759335064681819400,11.9628193359375,-4.041713714599609,6.305732727050781,2.0535762310028076
1759335064701819400,11.9828193359375,-3.7637698650360107,6.890941619873047,2.046245813369751
1759335064711818800,11.99281884765625,-3.6098318099975586,5.102939128875732,1.3016011714935303
1759335064721818600,12.002818603515625,-3.638542413711548,2.74316668510437,0.4964807331562042
1759335064731818800,12.01281884765625,-3.750330924987793,1.2013428211212158,-0.2396118938922882
1759335064741818600,12.022818603515624,-3.5817320346832275,0.90018630027771,-0.7637342810630798
1759335064751817700,12.032817626953126,-2.983083963394165,0.8500953316688538,-1.220050573348999
1759335064761817900,12.04281787109375,-1.9446130990982056,1.0199159383773804,-1.468061923980713
1759335064771817700,12.052817626953125,-0.7155522704124451,1.2972487211227417,-1.5364787578582764
1759335064781817900,12.06281787109375,1.20622980594635,0.8097782135009766,-1.193172574043274
1759335064791817700,12.072817626953125,1.9001727104187012,-0.17737999558448792,-0.6855435371398926
1759335064801817900,12.08281787109375,2.505540132522583,-0.7271587252616882,0.03527746722102165
1759335064811818500,12.092818603515624,3.0510427951812744,-0.6233116388320923,0.7585419416427612
1759335064821818600,12.102818603515624,3.4755942821502686,-0.5982661247253418,1.4818063974380493
1759335064831818500,12.112818603515626,3.766976833343506,-0.4516584873199463,1.6418530941009521
1759335064841818600,12.122818603515626,3.8109591007232666,0.09140071272850037,1.4622586965560913
1759335064851818800,12.13281884765625,3.359529733657837,0.36934441328048706,1.1385000944137573
1759335064861818600,12.142818603515625,2.5483007431030273,0.16226108372211456,0.7634288668632507
1759335064871818800,12.15281884765625,1.5794684886932373,-0.07597636431455612,0.32421672344207764
1759335064881818600,12.162818603515625,0.6796639561653137,-0.0038942659739404917,-0.07712173461914062
1759335064891818800,12.17281884765625,-0.1779908537864685,-0.13645201921463013,-0.25182920694351196
1759335064901818600,12.182818603515624,-0.2702315151691437,-1.0918452739715576,-0.3043636083602905
1759335064911818800,12.19281884765625,-0.12362385541200638,-2.623284339904785,-0.3165809214115143
1759335064921818600,12.202818603515626,0.1201113760471344,-4.080197811126709,-0.2102903574705124
1759335064931818800,12.21281884765625,0.37606391310691833,-5.206633567810059,-0.18280142545700073
1759335064941818600,12.222818603515625,0.5910884737968445,-5.970215320587158,-0.21884247660636902
1759335064951818000,12.23281787109375,0.708985447883606,-6.449133396148682,-0.2719877362251282
1759335064961817900,12.24281787109375,0.7633524537086487,-6.515106678009033,-0.2921462953090668
1759335064971818000,12.25281787109375,0.825049877166748,-6.293362617492676,-0.2151772826910019
1759335064981817900,12.26281787109375,0.8128325939178467,-5.661728382110596,-0.098502017557621
1759335064991818000,12.27281787109375,1.0321332216262817,-5.579261302947998,0.365755558013916
1759335065001817900,12.28281787109375,1.2862530946731567,-5.620189189910889,1.002277135848999
1759335065011818800,12.29281884765625,1.5318210124969482,-5.017265319824219,1.9839376211166382
1759335065021818600,12.302818603515625,1.4340825080871582,-3.33494234085083,2.5703682899475098
1759335065031818800,12.31281884765625,0.9728792905807495,-1.644067406654358,2.81654691696167
1759335065041818600,12.322818603515625,0.39622247219085693,-1.1761447191238403,2.632065534591675
1759335065071819500,12.352819580078124,-0.4461607038974762,-1.1853076219558716,0.6650795340538025
1759335065081819600,12.362819580078124,-0.34720054268836975,-0.8352818489074707,0.1085812970995903
1759335065091819500,12.372819580078126,-0.102243572473526,-0.5225188732147217,-0.5022839307785034
1759335065121819000,12.40281884765625,0.5446627140045166,0.43592870235443115,-1.7282904386520386
1759335065131818800,12.41281884765625,0.40477457642555237,0.7028768062591553,-1.6256651878356934
1759335065141819000,12.42281884765625,0.1958586722612381,0.9240100383758545,-1.4344643354415894
1759335065151818800,12.43281884765625,-0.0069485921412706375,0.9857074022293091,-1.2066116333007812
1759335065161819000,12.44281884765625,-0.10835222154855728,0.9105709791183472,-0.9017898440361023
1759335065171818800,12.45281884765625,-0.11629346758127213,0.8079456686973572,-0.5224425196647644
1759335065181819000,12.46281884765625,-0.12056952714920044,0.76762855052948,0.019394971430301666
1759335065191818800,12.47281884765625,-0.2134210467338562,0.9087384343147278,0.4378376603126526
1759335065201819000,12.48281884765625,-0.334983229637146,1.2147818803787231,0.6284276247024536
1759335065211818800,12.49281884765625,-0.3563635051250458,1.5415948629379272,0.6345362663269043
1759335065221818600,12.502818603515625,-0.2897791862487793,1.7059175968170166,0.44516804814338684
1759335065231818800,12.51281884765625,-0.09430231899023056,1.612455129623413,-0.023365596309304237
1759335065241818600,12.522818603515624,0.018096882849931717,1.3607786893844604,-0.251218318939209
1759335065251819500,12.532819580078124,0.10422888398170471,0.9111818671226501,-0.2713768780231476
1759335065261819600,12.542819580078126,0.17264579236507416,0.5672647356987,-0.02275473065674305
1759335065271819500,12.552819580078125,0.2777146100997925,0.15798501670360565,0.3107776939868927
1759335065281819600,12.562819580078125,0.4371504485607147,-0.3612504303455353,0.6259841322898865
1759335065291819500,12.572819580078125,0.5275585055351257,-0.7570911049842834,0.801913321018219
1759335065301819400,12.5828193359375,0.4994587004184723,-0.8890380263328552,0.8135197758674622
1759335065311819500,12.592819580078125,0.3687335252761841,-0.6697373986244202,0.6901249885559082
1759335065321819400,12.6028193359375,0.20318904519081116,-0.43455424904823303,0.46105054020881653
1759335065331819500,12.612819580078124,0.0443640872836113,-0.31115949153900146,0.17272214591503143
1759335065341819400,12.6228193359375,-0.05093089118599892,-0.23663392663002014,-0.050243668258190155
1759335065351818500,12.632818603515625,-0.04726569727063179,-0.20731239020824432,-0.22678372263908386
1759335065361818600,12.642818603515625,0.016264287754893303,-0.24640776216983795,-0.23839016258716583
1759335065371818500,12.652818603515625,0.013209961354732513,-0.3044399619102478,-0.24266621470451355
1759335065381818600,12.662818603515625,-0.0918588638305664,-0.34720054268836975,-0.26710084080696106
1759335065401818600,12.682818603515624,-0.223194882273674,-0.44982588291168213,-0.15286903083324432
1759335065411819500,12.692819580078124,-0.1987602859735489,-0.496862530708313,-0.027641652151942253
1759335065421819400,12.7028193359375,-0.14439326524734497,-0.5170210599899292,0.10186178237199783
