time,seconds_elapsed,z,y,x
1759335052889451800,0.17045166015625,0.24923302233219147,0.40256020426750183,-0.2474004179239273
1759335052899451600,0.18045166015625,0.16371189057826996,0.4996877610683441,-0.2376265823841095
1759335052909452800,0.190452880859375,0.07696902006864548,0.4489859640598297,-0.19547687470912933
1759335052919452700,0.20045263671875,0.014049900695681572,0.39217549562454224,-0.12461651116609573
1759335052929452800,0.210452880859375,-0.013439035043120384,0.2932153046131134,-0.08002334833145142
1759335052939452700,0.22045263671875,-0.014049900695681572,0.16004669666290283,-0.03787364438176155
1759335052949447700,0.23044775390625,0.006108652334660292,0.02076941914856434,0.0012217304902151227
1759335052959447800,0.24044775390625,0.054367005825042725,-0.10995574295520782,0.009162978269159794
1759335052969447700,0.25044775390625,0.11423180252313614,-0.2932153046131134,0.014049900695681572
1759335052979447800,0.26044775390625,0.21380282938480377,-0.6236934065818787,0.0354301854968071
1759335052989447700,0.27044775390625,0.23579397797584534,-0.7507534027099609,0.05375614017248154
1759335052999447800,0.28044775390625,0.20341812074184418,-0.8057312369346619,0.03787364438176155
1759335053009447700,0.29044775390625,0.12767083942890167,-0.8698720932006836,0.013439035043120384
1759335053019447800,0.30044775390625,0.030543262138962746,-0.9272934198379517,0.09529497474431992
1759335053029447700,0.31044775390625,-0.0354301854968071,-1.036027431488037,0.19364428520202637
1759335053039447800,0.32044775390625,-0.016493361443281174,-1.3359622955322266,0.2877175211906433
1759335053049447700,0.33044775390625,0.056810468435287476,-1.4587461948394775,0.394008070230484
1759335053059447800,0.34044775390625,0.2687807083129883,-1.4599679708480835,0.4758640229701996
1759335053069447700,0.35044775390625,0.4300491213798523,-1.4001030921936035,0.46731191873550415
1759335053079447800,0.36044775390625,0.578489363193512,-1.1887437105178833,0.484416127204895
1759335053089447700,0.37044775390625,0.5803219676017761,-1.1484266519546509,0.4709770977497101
1759335053099447800,0.38044775390625,0.5369505286216736,-1.218676209449768,0.50335294008255
1759335053109447700,0.39044775390625,0.4801400899887085,-1.4508049488067627,0.543059229850769
1759335053119447800,0.40044775390625,0.4495968222618103,-1.9077321290969849,0.6298020482063293
1759335053129447700,0.41044775390625,0.46853363513946533,-2.612670660018921,0.7666358947753906
1759335053139447800,0.42044775390625,0.5833762884140015,-3.5069773197174072,0.9248499870300293
1759335053149446700,0.43044677734375,0.817337691783905,-4.404949188232422,1.1539244651794434
1759335053159446800,0.44044677734375,1.0965031385421753,-5.236947536468506,1.3976596593856812
1759335053169446700,0.45044677734375,1.379333734512329,-5.933945178985596,1.6285667419433594
1759335053179446800,0.46044677734375,1.644449234008789,-6.477004051208496,1.8784105777740479
1759335053189446700,0.47044677734375,1.8869627714157104,-6.853297233581543,2.119091510772705
1759335053199446800,0.48044677734375,2.1453588008880615,-7.04694128036499,2.3408355712890625
1759335053209446700,0.49044677734375,2.5088236331939697,-7.198436260223389,2.747061014175415
1759335053219446800,0.50044677734375,2.6871962547302246,-7.318776607513428,3.079371690750122
1759335053229446700,0.51044677734375,2.7152960300445557,-7.398189067840576,3.4733798503875732
1759335053239446800,0.52044677734375,2.529592990875244,-7.313889503479004,3.907705068588257
1759335053249447400,0.530447509765625,2.171625852584839,-6.973026752471924,4.283998012542725
1759335053259447600,0.540447509765625,1.7556266784667969,-6.3633832931518555,4.418388366699219
1759335053269447400,0.550447509765625,1.3274102210998535,-5.597358226776123,4.199087619781494
1759335053279447600,0.560447509765625,0.8869763612747192,-4.617530345916748,3.6700782775878906
1759335053289447400,0.570447509765625,0.48685958981513977,-3.4238996505737305,2.883283853530884
1759335053299447600,0.580447509765625,0.20830504596233368,-2.3218986988067627,1.80510675907135
1759335053309446700,0.59044677734375,0.1514945775270462,-1.387274980545044,0.7287622094154358
1759335053319446800,0.60044677734375,0.029932396486401558,-0.3017674386501312,-0.6285803318023682
1759335053329446700,0.61044677734375,-0.252287358045578,0.07757988572120667,-1.13926362991333
1759335053339446800,0.62044677734375,-0.37079519033432007,-0.0757472887635231,-1.3072515726089478
1759335053349446000,0.63044580078125,-0.4129449129104614,-0.42271876335144043,-1.0983357429504395
1759335053359445800,0.64044580078125,-0.41111230850219727,-0.7531968355178833,-0.6206390857696533
1759335053369446000,0.65044580078125,-0.4098905920982361,-0.931569516658783,-0.04459316283464432
1759335053379445800,0.66044580078125,-0.44226643443107605,-1.0885618925094604,0.33658674359321594
1759335053389446000,0.67044580078125,-0.5027421116828918,-1.2180652618408203,0.4764748811721802
1759335053399445800,0.68044580078125,-0.5381723046302795,-1.214400053024292,0.46181413531303406
1759335053409446000,0.69044580078125,-0.5461135506629944,-1.0751228332519531,0.38728857040405273
1759335053419445800,0.70044580078125,-0.5858197808265686,-0.8949176073074341,0.3023782968521118
1759335053429446000,0.71044580078125,-0.6194173693656921,-0.7580837607383728,0.2174680233001709
1759335053439445800,0.72044580078125,-0.6047565937042236,-0.5326744914054871,0.22418753802776337
1759335053449446700,0.73044677734375,-0.49357911944389343,-0.3634648323059082,0.182648703455925
1759335053459446800,0.74044677734375,-0.3677408695220947,-0.12217304855585098,0.10812314599752426
1759335053469446700,0.75044677734375,-0.3182607889175415,0.2376265823841095,0.0708603709936142
1759335053479446800,0.76044677734375,-0.38667771220207214,0.4495968222618103,0.06291911751031876
1759335053489446700,0.77044677734375,-0.4129449129104614,0.47342056035995483,0.06780604273080826
1759335053499446800,0.78044677734375,-0.41111230850219727,0.4355469346046448,0.060475658625364304
1759335053509447200,0.790447265625,-0.33108896017074585,0.27488934993743896,-0.018325956538319588
1759335053519447000,0.800447021484375,-0.2993239760398865,0.14355333149433136,-0.10751228034496307
1759335053529447200,0.810447265625,-0.4862487316131592,0.04703662544488907,-0.21807889640331268
1759335053539447000,0.820447021484375,-0.7104362845420837,0.033597588539123535,-0.18448130786418915
1759335053549446400,0.8304462890625,-1.1093312501907349,0.16249015927314758,0.10934487730264664
1759335053559446300,0.8404462890625,-1.1496484279632568,0.0806342139840126,0.11423180252313614
1759335053569446400,0.8504462890625,-1.1074986457824707,-0.03481931984424591,0.07635815441608429
1759335053579446300,0.8604462890625,-1.0036516189575195,-0.2119702398777008,0.09407325088977814
1759335053589446400,0.8704462890625,-0.7733554244041443,-0.31642818450927734,0.0861319974064827
1759335053599446300,0.8804462890625,-0.5668829679489136,-0.14844025671482086,-0.009162978269159794
1759335053609447200,0.890447265625,-0.5070181488990784,0.059864792972803116,-0.14905111491680145
1759335053619447000,0.900447021484375,-0.5564982295036316,0.1814269721508026,-0.19853121042251587
1759335053629447200,0.910447265625,-0.656069278717041,0.2119702398777008,-0.12339477986097336
1759335053639447000,0.920447021484375,-0.675006091594696,0.1966986060142517,-0.025656340643763542
1759335053649448000,0.930447998046875,-0.6597344875335693,0.10812314599752426,0.05009094998240471
1759335053659448000,0.940447998046875,-0.47708576917648315,-0.09162978827953339,0.11728613078594208
1759335053669448000,0.950447998046875,-0.12767083942890167,-0.4349360466003418,0.26022860407829285
1759335053679448000,0.960447998046875,0.005497787147760391,-0.5607742667198181,0.3390302062034607
1759335053689448000,0.970447998046875,0.08124507963657379,-0.5674937963485718,0.41233405470848083
1759335053699448000,0.980447998046875,-0.001832595793530345,-0.6481280326843262,0.41172316670417786
1759335053709448000,0.990447998046875,-0.1215621829032898,-0.8778133392333984,0.36590829491615295
1759335053719448000,1.000447998046875,-0.09468411654233932,-0.9804387092590332,0.33719760179519653
1759335053729448000,1.010447998046875,0.09468411654233932,-0.9352346658706665,0.18570303916931152
1759335053739448000,1.020447998046875,0.2785545587539673,-0.7611380815505981,0.11056660860776901
1759335053749447200,1.030447265625,0.3488040566444397,-0.6572909951210022,-0.003054326167330146
1759335053759447000,1.040447021484375,0.304210901260376,-0.7263187766075134,-0.14844025671482086
1759335053769447200,1.050447265625,0.251676470041275,-0.7709119319915771,-0.05375614017248154
1759335053779447000,1.060447021484375,0.1062905490398407,-0.7574729323387146,0.38606682419776917
1759335053789447200,1.070447265625,-0.05375614017248154,-0.921184778213501,0.5595525503158569
1759335053799447000,1.080447021484375,-0.19608774781227112,-0.9486737251281738,0.5955936312675476
1759335053809446700,1.09044677734375,-0.21135938167572021,-0.8350527882575989,0.5962044596672058
1759335053819446500,1.100446533203125,-0.19975294172763824,-0.6493497490882874,0.4440990388393402
1759335053829446700,1.11044677734375,-0.1918116807937622,-0.43676865100860596,0.3280346393585205
1759335053839446500,1.120446533203125,-0.14905111491680145,-0.21807889640331268,0.2681698501110077
1759335053849447400,1.130447509765625,-0.05314527451992035,-0.05497787147760391,0.2583959996700287
1759335053859447600,1.140447509765625,0.004886921960860491,0.06780604273080826,0.10201449692249298
1759335053869447400,1.150447509765625,0.07635815441608429,0.3176499307155609,-0.1508837193250656
1759335053879447600,1.160447509765625,0.12767083942890167,0.4355469346046448,-0.36529740691185
1759335053889447400,1.170447509765625,0.19853121042251587,0.2889392673969269,-0.342695415019989
1759335053899447600,1.180447509765625,0.32131510972976685,-0.5406157374382019,0.01466076634824276
1759335053909447400,1.190447509765625,0.5283984541893005,-1.0390818119049072,0.37140607833862305
1759335053919447600,1.200447509765625,0.7348709106445312,-1.3200798034667969,0.5974262356758118
1759335053929447400,1.210447509765625,0.7751879692077637,-1.42637038230896,0.7299839854240417
1759335053939447600,1.220447509765625,0.5510004758834839,-1.376279354095459,0.779464066028595
1759335053949446700,1.23044677734375,0.192422553896904,-1.2901474237442017,0.5057964324951172
1759335053959446800,1.24044677734375,0.12950342893600464,-1.0629055500030518,-0.17043140530586243
1759335053969446400,1.2504462890625,0.43615779280662537,-0.27611109614372253,-0.9486737251281738
1759335053979446500,1.260446533203125,0.8735373020172119,0.8057312369346619,-1.4917329549789429
1759335053989446400,1.2704462890625,1.2486085891723633,1.6194037199020386,-1.6450600624084473
1759335053999446500,1.280446533203125,1.718363881111145,2.2430970668792725,-1.3811663389205933
1759335054009446400,1.2904462890625,2.517986536026001,2.7085764408111572,-0.4141666293144226
1759335054019446500,1.300446533203125,2.902831554412842,2.7128524780273438,0.4331034719944
1759335054029446400,1.3104462890625,3.1508429050445557,2.015244483947754,1.1630873680114746
1759335054039446500,1.320446533203125,3.19665789604187,0.808174729347229,1.4984524250030518
1759335054049447400,1.330447509765625,3.0335566997528076,-0.1667662113904953,1.368949055671692
1759335054059447300,1.340447265625,2.855794906616211,-0.4355469346046448,0.8704829812049866
1759335054069447400,1.350447509765625,2.9071075916290283,-0.6139195561408997,0.6310238242149353
1759335054079447300,1.360447265625,2.6358835697174072,-0.6707300543785095,0.9205739498138428
1759335054089447400,1.370447509765625,2.1368067264556885,-0.44165557622909546,0.759916365146637
1759335054099447300,1.380447265625,1.7654005289077759,-0.01160643994808197,0.4343251883983612
1759335054109447400,1.390447509765625,1.6646077632904053,0.4050036668777466,0.31154128909111023
1759335054119447300,1.400447265625,1.588249683380127,0.7244861721992493,0.2993239760398865
1759335054129447400,1.410447509765625,1.436144232749939,0.7733554244041443,0.3988949954509735
1759335054139447300,1.420447265625,1.4129313230514526,0.5503895878791809,0.50335294008255
1759335054149446400,1.4304462890625,1.560760736465454,0.028099801391363144,0.7024950385093689
1759335054159446500,1.440446533203125,1.6792685985565186,-0.4948008358478546,0.7819074988365173
1759335054169446400,1.4504462890625,1.8490891456604004,-0.8332201838493347,0.7629706859588623
1759335054179446500,1.460446533203125,1.9590448141098022,-0.8735373020172119,0.6646214127540588
1759335054191818500,1.472818603515625,1.8686367273330688,-0.836885392665863,0.684779942035675
1759335054201818600,1.482818603515625,1.6688838005065918,-0.959669291973114,0.7409795522689819
1759335054211818500,1.492818603515625,1.4599679708480835,-0.7104362845420837,0.8515461683273315
1759335054221818600,1.502818603515625,1.1246029138565063,-0.3023782968521118,0.856433093547821
1759335054231818500,1.512818603515625,0.8295549750328064,0.025656340643763542,0.8552113175392151
1759335054241818600,1.522818603515625,0.5412266254425049,0.2590068578720093,1.0616837739944458
1759335054251819500,1.532819580078125,0.21624629199504852,0.26633724570274353,1.1264355182647705
1759335054261819400,1.5428193359375,-0.25595253705978394,0.28649580478668213,0.9645562171936035
1759335054271819800,1.55281982421875,-0.7092145681381226,0.39706242084503174,0.7440338730812073
1759335054281819600,1.562819580078125,-1.0555751323699951,0.8283332586288452,0.5839871764183044
1759335054291819800,1.57281982421875,-1.2791517972946167,1.3836097717285156,0.23518311977386475
1759335054301819600,1.582819580078125,-1.4159855842590332,1.9101755619049072,-0.05192354694008827
1759335054311818800,1.59281884765625,-1.5039502382278442,2.232712507247925,-0.1765400618314743
1759335054321819000,1.60281884765625,-1.643227458000183,2.2125539779663086,-0.2871066629886627
1759335054331818800,1.61281884765625,-1.8582520484924316,1.9889771938323975,-0.4147774875164032
1759335054341819000,1.62281884765625,-2.116037130355835,1.7776178121566772,-0.32986724376678467
1759335054351818000,1.63281787109375,-2.3457224369049072,1.6255123615264893,-0.02626720629632473
1759335054361817900,1.64281787109375,-2.8185322284698486,0.8527678847312927,0.6065891981124878
1759335054371818000,1.65281787109375,-3.009122133255005,0.22540926933288574,0.9492846131324768
1759335054381817900,1.66281787109375,-2.7458393573760986,0.07330382615327835,0.41233405470848083
1759335054391818000,1.67281787109375,-2.1795670986175537,0.32070425152778625,-0.45204028487205505
1759335054401817900,1.68281787109375,-1.8735237121582031,0.42638394236564636,-0.8949176073074341
1759335054411818000,1.69281787109375,-1.8625280857086182,-0.02015855349600315,-0.778853178024292
1759335054421817900,1.70281787109375,-1.8106045722961426,-0.5406157374382019,-0.37568211555480957
1759335054431818000,1.71281787109375,-1.5925257205963135,-0.7177666425704956,-0.0659734457731247
1759335054441817900,1.72281787109375,-1.217454433441162,-0.5461135506629944,0.060475658625364304
1759335054451818800,1.73281884765625,-1.026253581047058,-0.21135938167572021,0.13744467496871948
1759335054461819000,1.74281884765625,-1.014647126197815,-0.03481931984424591,0.16859880089759827
1759335054471818800,1.75281884765625,-1.0433578491210938,0.039095375686883926,0.12522737681865692
1759335054481819000,1.76281884765625,-1.0348057746887207,0.11301007121801376,0.07635815441608429
1759335054491818800,1.77281884765625,-1.0097602605819702,0.24190263450145721,-0.01038470957428217
1759335054501819000,1.78281884765625,-1.0604621171951294,0.2932153046131134,-0.09285151958465576
1759335054511818000,1.79281787109375,-1.214400053024292,0.15271630883216858,-0.12217304855585098
1759335054521817900,1.80281787109375,-1.405600905418396,-0.1612684279680252,-0.20891591906547546
1759335054531818000,1.81281787109375,-1.5790866613388062,-0.3481931984424591,-0.3433062732219696
1759335054541817900,1.82281787109375,-1.4483615159988403,-0.16310101747512817,-0.45631635189056396
1759335054551817000,1.83281689453125,-1.3158037662506104,0.11301007121801376,-0.5558874011039734
1759335054561817000,1.842817138671875,-1.1924089193344116,0.3029891550540924,-0.5412266254425049
1759335054571817000,1.85281689453125,-1.187522053718567,0.3536909818649292,-0.5051855444908142
1759335054581817000,1.862817138671875,-1.370781660079956,0.18325957655906677,-0.46181413531303406
1759335054591817000,1.87281689453125,-1.4789047241210938,0.056810468435287476,-0.45814892649650574
1759335054601817000,1.882817138671875,-1.431868076324463,0.07819075137376785,-0.37079519033432007
1759335054611818000,1.89281787109375,-1.3170254230499268,-0.22357667982578278,-0.22663100063800812
1759335054621817900,1.90281787109375,-1.1166616678237915,-0.6866125464439392,-0.048258353024721146
1759335054631818000,1.91281787109375,-0.8087855577468872,-0.9584475755691528,0.10262536257505417
1759335054641817900,1.92281787109375,-0.5174028873443604,-0.9932668805122375,0.25534167885780334
1759335054651818800,1.93281884765625,-0.3744603991508484,-0.8936958312988281,0.3494149148464203
1759335054661819000,1.94281884765625,-0.24190263450145721,-0.4996877610683441,0.2883284091949463
1759335054671818800,1.95281884765625,-0.13011430203914642,0.10690141469240189,0.08796459436416626
1759335054681819000,1.96281884765625,-0.0861319974064827,0.5381723046302795,-0.1264491081237793
1759335054691818800,1.97281884765625,-0.060475658625364304,0.6041457056999207,-0.1765400618314743
1759335054701819000,1.98281884765625,0.015271631069481373,0.41722095012664795,-0.015271631069481373
1759335054711818800,1.99281884765625,0.05253441259264946,0.13439035415649414,0.14966198801994324
1759335054721819000,2.00281884765625,0.1563815027475357,-0.2272418737411499,0.24068090319633484
1759335054731818800,2.01281884765625,0.27550023794174194,-0.4795292317867279,0.33658674359321594
1759335054741819000,2.02281884765625,0.36529740691185,-0.5949827432632446,0.3225368559360504
1759335054751818000,2.03281787109375,0.5522221922874451,-0.46181413531303406,0.26145032048225403
1759335054761818000,2.042818115234375,0.8228355050086975,-0.39706242084503174,0.10812314599752426
1759335054771818000,2.05281787109375,1.0879509449005127,-0.40256020426750183,-0.04948008432984352
1759335054781818000,2.062818115234375,1.605353832244873,-0.1661553531885147,-0.04764748737215996
1759335054791818000,2.07281787109375,2.0757200717926025,-0.08246681094169617,-0.1368338167667389
1759335054801818000,2.082818115234375,2.445293664932251,-0.13988813757896423,-0.04092797264456749
1759335054811818800,2.09281884765625,2.7207937240600586,-0.09712757170200348,-0.0555887371301651
1759335054821819000,2.10281884765625,2.7592782974243164,0.16493362188339233,-0.21624629199504852
1759335054831818800,2.11281884765625,2.649933338165283,0.12461651116609573,-0.48319441080093384
1759335054841819000,2.12281884765625,2.4715607166290283,-0.1661553531885147,-0.6719517707824707
1759335054851819800,2.13281982421875,2.1502456665039062,-0.3903428912162781,-0.4092797040939331
1759335054861819600,2.142819580078125,1.863139033317566,-0.7464773058891296,0.1368338167667389
1759335054871819800,2.15281982421875,1.2424999475479126,-1.1160508394241333,0.3781255781650543
1759335054881819600,2.162819580078125,0.7629706859588623,-1.091616153717041,0.46303585171699524
1759335054891819800,2.17281982421875,0.5119050741195679,-0.6914994716644287,0.40072759985923767
1759335054901819600,2.182819580078125,0.47342056035995483,-0.17959438264369965,0.16982053220272064
1759335054911819800,2.19281982421875,0.5326744914054871,0.38240164518356323,-0.05009094998240471
1759335054921819600,2.202819580078125,0.5479460954666138,0.9156870245933533,-0.17959438264369965
1759335054931819800,2.21281982421875,0.3481931984424591,1.2302825450897217,-0.2767219543457031
1759335054941820000,2.22281982421875,0.1814269721508026,1.1740829944610596,-0.29016098380088806
1759335054951819000,2.232819091796875,0.05314527451992035,0.9566149711608887,-0.2620611786842346
1759335054961819000,2.24281884765625,-0.02321287989616394,0.5833762884140015,-0.1966986060142517
1759335054971819000,2.252819091796875,-0.06841690838336945,0.025656340643763542,-0.07880161702632904
1759335054981819000,2.26281884765625,-0.09773843735456467,-0.8393288254737854,0.03481931984424591
1759335054991819000,2.272819091796875,-0.07147123664617538,-1.5845844745635986,0.17959438264369965
1759335055001819000,2.28281884765625,0.030543262138962746,-1.7495180368423462,0.3597996234893799
1759335055011819000,2.292819091796875,0.17959438264369965,-1.6047430038452148,0.4355469346046448
1759335055021819000,2.30281884765625,0.3536909818649292,-1.3054190874099731,0.40133845806121826
1759335055031819000,2.312819091796875,0.5051855444908142,-1.1215485334396362,0.3891211748123169
1759335055041819000,2.32281884765625,0.8582656979560852,-1.6853772401809692,0.6646214127540588
1759335055051819800,2.33281982421875,1.0519099235534668,-2.045787811279297,1.014647126197815
1759335055061819600,2.342819580078125,1.0366383790969849,-2.174069404602051,1.0983357429504395
1759335055071819800,2.35281982421875,0.9248499870300293,-1.870469331741333,0.9932668805122375
1759335055081819600,2.362819580078125,0.8228355050086975,-1.6572774648666382,0.7397578358650208
1759335055091819800,2.37281982421875,0.6695083379745483,-1.5302174091339111,0.40622538328170776
1759335055101819600,2.382819580078125,0.6035348773002625,-1.0525208711624146,0.18631389737129211
1759335055111819800,2.39281982421875,0.6145304441452026,-0.38117989897727966,0.11423180252313614
1759335055121819600,2.402819580078125,0.588263213634491,0.252287358045578,-0.025656340643763542
1759335055131819800,2.41281982421875,0.48808133602142334,0.8857545852661133,-0.1875356286764145
1759335055141819600,2.422819580078125,0.11850785464048386,1.5473216772079468,-0.2675589919090271
1759335055151818800,2.43281884765625,-0.35613444447517395,1.909564733505249,-0.31642818450927734
1759335055161819000,2.44281884765625,-0.588874101638794,1.455691933631897,-0.31581732630729675
1759335055171818800,2.45281884765625,-0.4856378734111786,0.8246681094169617,-0.24556782841682434
1759335055181819000,2.46281884765625,-0.33292156457901,0.033597588539123535,-0.24984388053417206
1759335055191818800,2.47281884765625,-0.2730567753314972,-0.7507534027099609,-0.3830125033855438
1759335055201819000,2.48281884765625,-0.2767219543457031,-1.1606439352035522,-0.5748242139816284
1759335055211818800,2.49281884765625,-0.07513642311096191,-0.8118399381637573,-0.543059229850769
1759335055221819000,2.50281884765625,0.16859880089759827,0.06719517707824707,-0.22479841113090515
1759335055231818800,2.51281884765625,0.06841690838336945,0.9963212013244629,0.13744467496871948
1759335055241819000,2.52281884765625,-0.30543261766433716,1.6982053518295288,0.40256020426750183
1759335055251819800,2.53281982421875,-0.8668177723884583,2.233934164047241,0.6420193910598755
1759335055261819600,2.542819580078125,-1.4550809860229492,2.306016206741333,0.7305948138237
1759335055271819800,2.55281982421875,-2.02929425239563,1.4477506875991821,0.47280970215797424
1759335055281819600,2.562819580078125,-2.127643585205078,0.8613200187683105,0.34636059403419495
1759335055291819800,2.57281982421875,-1.9700404405593872,0.5192354321479797,0.24129177629947662
1759335055301819600,2.582819580078125,-1.550986886024475,0.8448266386985779,0.3078760802745819
1759335055311819800,2.59281982421875,-0.959669291973114,1.3353514671325684,0.2535090744495392
1759335055321819600,2.602819580078125,-0.6591235995292664,1.9908097982406616,0.0861319974064827
1759335055331819800,2.61281982421875,-0.44226643443107605,2.39520263671875,0.03176499158143997
1759335055341819600,2.622819580078125,-0.303600013256073,2.548529863357544,0.07330382615327835
1759335055351818800,2.63281884765625,-0.2938261926174164,2.4269676208496094,0.07635815441608429
1759335055361819000,2.64281884765625,-0.5955936312675476,2.188119411468506,0.2675589919090271
1759335055371818800,2.65281884765625,-0.8301658630371094,1.5253305435180664,0.4758640229701996
1759335055381819000,2.66281884765625,-0.9004153609275818,0.3787364661693573,0.7079927921295166
1759335055391818800,2.67281884765625,-0.8497135639190674,-0.19303341209888458,0.9279043078422546
1759335055401819000,2.68281884765625,-0.8613200187683105,-0.5510004758834839,1.1533136367797852
1759335055411818800,2.69281884765625,-0.7910705208778381,-0.7855727076530457,1.2046263217926025
1759335055421819000,2.70281884765625,-0.5363397002220154,-0.9395107626914978,0.9822713136672974
1759335055431818800,2.71281884765625,-0.26450464129447937,-0.3445279896259308,0.7385360598564148
1759335055441819000,2.72281884765625,-0.015882495790719986,0.054367005825042725,0.2877175211906433
1759335055451819800,2.73281982421875,0.17898350954055786,0.2993239760398865,0.039706241339445114
1759335055461819600,2.742819580078125,0.2730567753314972,0.35124751925468445,-0.019547687843441963
1759335055471819800,2.75281982421875,0.21441370248794556,0.23518311977386475,-0.018325956538319588
1759335055481819600,2.762819580078125,0.13255776464939117,0.39767327904701233,0.09773843735456467
1759335055491819800,2.77281982421875,-0.04153883829712868,0.9126327037811279,0.4398229718208313
1759335055501819600,2.782819580078125,-0.04459316283464432,0.8387179970741272,0.5772676467895508
1759335055511819800,2.79281982421875,0.09407325088977814,1.1160508394241333,0.16249015927314758
1759335055521819600,2.802819580078125,0.31520646810531616,0.779464066028595,-0.4453207552433014
1759335055531819800,2.81281982421875,0.3933972120285034,0.2779437005519867,-0.7055493593215942
1759335055541819600,2.822819580078125,0.45753806829452515,-0.2779437005519867,-0.6224716901779175
1759335055551818800,2.83281884765625,0.5296201705932617,-0.6963863968849182,-0.3842342495918274
1759335055561819000,2.84281884765625,0.5852088928222656,-0.912021815776825,-0.22113321721553802
1759335055571818800,2.85281884765625,0.6908885836601257,-0.902247965335846,-0.22113321721553802
1759335055581819000,2.86281884765625,0.8460483551025391,-0.750142514705658,-0.34086281061172485
1759335055591818800,2.87281884765625,0.9767735004425049,-0.6377432942390442,-0.5229006409645081
1759335055601819000,2.88281884765625,0.9547823667526245,-0.47219884395599365,-0.6511823534965515
1759335055611818800,2.89281884765625,1.0781772136688232,-0.2076941877603531,-0.4807509481906891
1759335055621819000,2.90281884765625,0.8625417351722717,-0.5870414972305298,-0.24556782841682434
1759335055631818800,2.91281884765625,0.5919284224510193,-1.017701506614685,0.11423180252313614
1759335055641819000,2.92281884765625,0.455705463886261,-1.4654656648635864,0.41111230850219727
1759335055651819800,2.93281982421875,0.403781920671463,-1.5766432285308838,0.6707300543785095
1759335055661819600,2.942819580078125,0.16371189057826996,-1.6114624738693237,0.7525860071182251
1759335055671819800,2.95281982421875,-0.03176499158143997,-1.6957619190216064,0.7678576111793518
1759335055681819600,2.962819580078125,-0.054367005825042725,-1.996307611465454,0.5564982295036316
1759335055691819800,2.97281982421875,0.22357667982578278,-1.9920315742492676,0.2382374405860901
1759335055701819600,2.982819580078125,0.1270599663257599,-1.86191725730896,-0.1215621829032898
1759335055711819800,2.99281982421875,0.019547687843441963,-1.318858027458191,-0.3127630054950714
1759335055721819600,3.002819580078125,-0.05314527451992035,-0.7770205736160278,-0.2987131178379059
1759335055731819800,3.01281982421875,-0.3836233615875244,-0.3683517575263977,-0.31154128909111023
1759335055741819600,3.022819580078125,-0.44165557622909546,-0.07208210229873657,-0.2669481039047241
1759335055751818800,3.03281884765625,-0.5845980644226074,0.036651913076639175,-0.2370157092809677
1759335055761819000,3.04281884765625,-0.7715228199958801,-0.00733038317412138,-0.17348572611808777
1759335055771818800,3.05281884765625,-0.7867944240570068,-0.021991148591041565,0.00855211354792118
1759335055781819000,3.06281884765625,-0.6621779203414917,-0.16371189057826996,0.18997909128665924
1759335055791818800,3.07281884765625,-0.5564982295036316,-0.543059229850769,0.45265114307403564
1759335055801819000,3.08281884765625,-0.3634648323059082,-0.9963212013244629,0.7922922372817993
1759335055811818800,3.09281884765625,-0.1258382350206375,-1.3329079151153564,0.9822713136672974
1759335055821819000,3.10281884765625,0.23457226157188416,-1.291369080543518,0.940732479095459
1759335055831818800,3.11281884765625,0.656069278717041,-1.0952813625335693,0.7116580009460449
1759335055841819000,3.12281884765625,1.2321151494979858,-0.8570439219474792,0.23090706765651703
1759335055851819800,3.13281982421875,1.5363260507583618,-0.7483099102973938,-0.11972958594560623
1759335055861819600,3.142819580078125,2.0024163722991943,-0.44226643443107605,-0.4593706727027893
1759335055871819800,3.15281982421875,2.5528059005737305,-0.1875356286764145,-0.675616979598999
1759335055881819600,3.162819580078125,3.1221323013305664,-0.04886921867728233,-0.7458664774894714
1759335055891819800,3.17281982421875,3.8460075855255127,0.5546656250953674,-0.9621127843856812
1759335055901819600,3.182819580078125,4.91990852355957,1.2565498352050781,-1.1001683473587036
1759335055911819800,3.19281982421875,6.094602584838867,1.3487904071807861,-0.8655960559844971
1759335055921819600,3.202819580078125,6.533814430236816,1.1154398918151855,-0.5448917746543884
1759335055931819800,3.21281982421875,5.5258870124816895,0.23945917189121246,0.06658431142568588
1759335055941819600,3.222819580078125,3.813631772994995,-0.24495697021484375,0.475253164768219
1759335055951818800,3.23281884765625,2.6505444049835205,-0.10445795953273773,0.45631635189056396
1759335055961819000,3.24281884765625,1.5949691534042358,0.5064072608947754,0.10201449692249298
1759335055971818800,3.25281884765625,1.197906732559204,0.5864306092262268,0.0910189226269722
1759335055981819000,3.26281884765625,0.9346238374710083,0.40194934606552124,0.23518311977386475
1759335055991818800,3.27281884765625,0.6591235995292664,-0.006108652334660292,0.31581732630729675
1759335056001819000,3.28281884765625,0.45204028487205505,-0.5015203952789307,0.32131510972976685
1759335056011818800,3.29281884765625,0.29138273000717163,-0.7971791625022888,0.24129177629947662
1759335056021819000,3.30281884765625,0.15760323405265808,-0.816726803779602,0.06963863968849182
1759335056031818800,3.31281884765625,0.01771509274840355,-0.6762278079986572,-0.15943582355976105
1759335056041819000,3.32281884765625,-0.16859880089759827,-0.4954117238521576,-0.3066543638706207
1759335056051819800,3.33281982421875,-0.4508185386657715,-0.06658431142568588,-0.18997909128665924
1759335056061819600,3.342819580078125,-0.8228355050086975,0.44654250144958496,-0.14905111491680145
1759335056071819800,3.35281982421875,-1.4300355911254883,0.46670106053352356,-0.19608774781227112
1759335056081819600,3.362819580078125,-1.7397441864013672,0.029932396486401558,-0.08368854224681854
1759335056091819800,3.37281982421875,-2.1142046451568604,-0.21502456068992615,0.20463985204696655
1759335056101819600,3.382819580078125,-2.1447479724884033,-0.6090326309204102,0.34513887763023376
1759335056111819800,3.39281982421875,-2.088548183441162,-0.8112290501594543,0.41599923372268677
1759335056121819600,3.402819580078125,-2.0470094680786133,-0.7800748944282532,0.5540547966957092
1759335056131819800,3.41281982421875,-1.7256942987442017,-0.8478809595108032,0.6444628238677979
1759335056141819600,3.422819580078125,-1.1465940475463867,-0.7709119319915771,0.5381723046302795
1759335056151818800,3.43281884765625,-0.5198463201522827,-1.0433578491210938,0.34758231043815613
1759335056161819000,3.44281884765625,0.16982053220272064,-1.6047430038452148,0.04581489413976669
1759335056171818800,3.45281884765625,1.0690141916275024,-1.7043139934539795,-0.30054569244384766
1759335056181819000,3.46281884765625,2.1227567195892334,-1.1575896739959717,-0.5583308339118958
1759335056191818800,3.47281884765625,3.0500502586364746,-0.837496280670166,-0.6035348773002625
1759335056201819000,3.48281884765625,3.054326295852661,-0.9248499870300293,-0.33169981837272644
1759335056211818800,3.49281884765625,2.4556782245635986,0.4080579876899719,0.8613200187683105
1759335056221819000,3.50281884765625,1.9822577238082886,-0.5161811113357544,1.1148290634155273
1759335056231818800,3.51281884765625,1.6004669666290283,-1.359786033630371,1.1197160482406616
1759335056241819000,3.52281884765625,1.4288138151168823,-1.4575244188308716,0.9395107626914978
1759335056251819500,3.532819580078125,1.6120734214782715,-0.9492846131324768,0.43127086758613586
1759335056261819600,3.542819580078125,2.0146336555480957,-0.7391469478607178,-0.07757988572120667
1759335056271819500,3.552819580078125,2.436741352081299,-0.5381723046302795,-0.33536502718925476
1759335056281819600,3.562819580078125,2.766608715057373,-0.2168571650981903,-0.2871066629886627
1759335056291819500,3.572819580078125,3.012787342071533,0.1411098688840866,-0.04642575979232788
1759335056301819600,3.582819580078125,3.0714304447174072,0.4642575979232788,0.26939156651496887
1759335056311818800,3.59281884765625,2.948035717010498,0.4190535545349121,0.3280346393585205
1759335056321819000,3.60281884765625,2.66337251663208,0.3078760802745819,0.3237585723400116
1759335056331818800,3.61281884765625,2.110539436340332,0.29565876722335815,0.27061331272125244
1759335056341819000,3.62281884765625,1.4575244188308716,0.1966986060142517,0.18570303916931152
1759335056351818000,3.63281787109375,0.7079927921295166,0.15882496535778046,0.2070833146572113
1759335056361817900,3.64281787109375,0.15271630883216858,0.2632829248905182,0.15821409225463867
1759335056371818000,3.65281787109375,0.004886921960860491,0.37079519033432007,0.00733038317412138
1759335056381817900,3.66281787109375,0.29993483424186707,0.43249258399009705,-0.11850785464048386
1759335056391818000,3.67281787109375,0.7415903806686401,0.4660901725292206,-0.0403171069920063
1759335056401817900,3.68281787109375,1.1001683473587036,0.4489859640598297,0.08796459436416626
1759335056411818000,3.69281787109375,1.0030407905578613,0.14233160018920898,0.2730567753314972
1759335056421817900,3.70281787109375,-0.1270599663257599,-0.9859365224838257,0.12950342893600464
1759335056431818000,3.71281787109375,-0.8710938692092896,-1.453248381614685,-0.13377949595451355
1759335056441817900,3.72281787109375,-0.7837401032447815,-0.93095862865448,-0.2791654169559479
1759335056451818800,3.73281884765625,-0.21013765037059784,-0.242513507604599,-0.17104226350784302
1759335056461819000,3.74281884765625,0.16737708449363708,0.20586158335208893,0.08674286305904388
1759335056471818800,3.75281884765625,0.17837265133857727,0.4550946056842804,0.30543261766433716
1759335056481819000,3.76281884765625,0.08185594528913498,0.7012733221054077,0.34513887763023376
1759335056491818800,3.77281884765625,-0.0354301854968071,0.7147123217582703,0.25534167885780334
1759335056501819000,3.78281884765625,-0.10995574295520782,0.5510004758834839,0.0659734457731247
1759335056511818000,3.79281787109375,-0.1160643994808197,0.2974913716316223,-0.1466076523065567
1759335056521817900,3.80281787109375,-0.07880161702632904,0.039095375686883926,-0.2779437005519867
1759335056531818000,3.81281787109375,-0.05803219974040985,-0.19486601650714874,-0.2272418737411499
1759335056541817900,3.82281787109375,-0.06291911751031876,-0.1814269721508026,-0.1215621829032898
1759335056551817200,3.832817138671875,-0.08185594528913498,-0.07941248267889023,-0.02076941914856434
1759335056561817000,3.842817138671875,-0.1007927656173706,0,0.04764748737215996
1759335056571817200,3.852817138671875,-0.1215621829032898,0.02626720629632473,0.09285151958465576
1759335056581817000,3.862817138671875,-0.14477506279945374,0.015271631069481373,0.11911872029304504
1759335056591817200,3.872817138671875,-0.14782938361167908,-0.03298672288656235,0.11239920556545258
1759335056601816800,3.88281689453125,-0.13744467496871948,-0.0959058403968811,0.10384709388017654
1759335056611817700,3.892817626953125,-0.14538592100143433,-0.1368338167667389,0.10262536257505417
1759335056621817600,3.902817626953125,-0.1569923609495163,-0.16982053220272064,0.06841690838336945
1759335056631817500,3.9128173828125,-0.1411098688840866,-0.19120082259178162,0.04398229718208313
1759335056641817600,3.922817626953125,-0.11911872029304504,-0.2272418737411499,0.03237585723400116
1759335056651818500,3.932818603515625,-0.11728613078594208,-0.2223549485206604,0.04764748737215996
1759335056661818400,3.942818359375,-0.10995574295520782,-0.1319468915462494,0.07880161702632904
1759335056671818500,3.952818603515625,-0.11056660860776901,0.004886921960860491,0.09529497474431992
1759335056681818400,3.962818359375,-0.11423180252313614,0.1062905490398407,0.11911872029304504
1759335056691818500,3.972818603515625,-0.11850785464048386,0.15393804013729095,0.13927727937698364
1759335056701818400,3.982818359375,-0.11667526513338089,0.2174680233001709,0.13011430203914642
1759335056711818500,3.992818603515625,-0.09651670604944229,0.3066543638706207,0.10812314599752426
1759335056721818400,4.002818359375,-0.0708603709936142,0.3677408695220947,0.09224065393209457
1759335056731818500,4.012818603515625,-0.02932153269648552,0.36713001132011414,0.08429940044879913
1759335056741818400,4.022818359375,0.02321287989616394,0.33292156457901,0.07757988572120667
1759335056751817500,4.0328173828125,0.0659734457731247,0.2370157092809677,0.07941248267889023
1759335056761817600,4.042817626953125,0.07880161702632904,0.02932153269648552,0.14477506279945374
1759335056771817500,4.0528173828125,0.07696902006864548,-0.04092797264456749,0.19914206862449646
1759335056781817600,4.062817626953125,0.06291911751031876,-0.04092797264456749,0.25106561183929443
1759335056791817500,4.0728173828125,0.025656340643763542,0.05009094998240471,0.27000242471694946
1759335056801817600,4.082817626953125,-0.02076941914856434,0.17592918872833252,0.24007004499435425
1759335056811818500,4.092818603515625,-0.06780604273080826,0.2681698501110077,0.1814269721508026
1759335056821818400,4.102818359375,-0.10934487730264664,0.27977627515792847,0.11301007121801376
1759335056831818500,4.112818603515625,-0.12950342893600464,0.2370157092809677,0.06536258012056351
1759335056841818400,4.122818359375,-0.12522737681865692,0.18631389737129211,0.048258353024721146
1759335056851819300,4.1328193359375,-0.11178833991289139,0.15027284622192383,0.059864792972803116
1759335056871819800,4.15281982421875,-0.09285151958465576,0.08002334833145142,0.17104226350784302
1759335056881820000,4.16281982421875,-0.07696902006864548,0.03848451003432274,0.20341812074184418
1759335056891819800,4.17281982421875,-0.05497787147760391,-0.00366519158706069,0.23151792585849762
1759335056901820200,4.182820068359375,-0.025045474991202354,-0.031154127791523933,0.2480112910270691
1759335056911820000,4.192820068359375,0.006108652334660292,-0.04092797264456749,0.28099802136421204
1759335056921820200,4.202820068359375,0.04337143152952194,-0.033597588539123535,0.3188716471195221
1759335056931820000,4.212820068359375,0.07941248267889023,-0.015271631069481373,0.3445279896259308
1759335056941820200,4.222820068359375,0.11667526513338089,0.022602014243602753,0.3591887652873993
1759335056951819300,4.2328193359375,0.15454891324043274,0.07452555745840073,0.35124751925468445
1759335056961819400,4.2428193359375,0.18325957655906677,0.11728613078594208,0.33475416898727417
1759335056971819300,4.2528193359375,0.20341812074184418,0.15515977144241333,0.3084869384765625
1759335056981819400,4.2628193359375,0.2321287989616394,0.192422553896904,0.28527405858039856
1759335056991819300,4.2728193359375,0.25473082065582275,0.1722639948129654,0.2730567753314972
1759335057001819400,4.2828193359375,0.29077184200286865,0.17959438264369965,0.2724458873271942
1759335057011819300,4.2928193359375,0.3280346393585205,0.18325957655906677,0.2822197377681732
1759335057021819400,4.3028193359375,0.36529740691185,0.1765400618314743,0.30115658044815063
1759335057031819000,4.312819091796875,0.39584067463874817,0.14294247329235077,0.3090978264808655
1759335057041819000,4.32281884765625,0.4092797040939331,0.08857546001672745,0.3023782968521118
1759335057051819800,4.33281982421875,0.4092797040939331,0.04886921867728233,0.28955012559890747
1759335057061820000,4.34281982421875,0.40256020426750183,0.036041051149368286,0.2767219543457031
1759335057071819800,4.35281982421875,0.3885102868080139,0.05742133408784866,0.2822197377681732
1759335057081820000,4.36281982421875,0.37568211555480957,0.09957103431224823,0.29626965522766113
1759335057091819800,4.37281982421875,0.3701843321323395,0.14538592100143433,0.31520646810531616
1759335057101820000,4.38281982421875,0.37079519033432007,0.18570303916931152,0.34086281061172485
1759335057111819800,4.39281982421875,0.3732386529445648,0.1618792861700058,0.3396410644054413
1759335057121820000,4.40281982421875,0.37262779474258423,0.1062905490398407,0.33597588539123535
1759335057131819800,4.41281982421875,0.3597996234893799,0.03298672288656235,0.3194825351238251
1759335057141820000,4.42281982421875,0.3384193480014801,-0.03481931984424591,0.2968805134296417
1759335057151819000,4.432819091796875,0.31520646810531616,-0.08552113175392151,0.2687807083129883
1759335057161819000,4.44281884765625,0.29504790902137756,-0.1111774742603302,0.22907446324825287
1759335057171818500,4.452818603515625,0.27000242471694946,-0.11362093687057495,0.1875356286764145
1759335057181818400,4.462818359375,0.24007004499435425,-0.09407325088977814,0.1514945775270462
1759335057191818500,4.472818603515625,0.20402899384498596,-0.07635815441608429,0.10995574295520782
1759335057201818400,4.482818359375,0.1612684279680252,-0.06352998316287994,0.07147123664617538
1759335057211818500,4.492818603515625,0.10690141469240189,-0.05497787147760391,0.03420845419168472
1759335057221818400,4.502818359375,0.016493361443281174,-0.048258353024721146,-0.06658431142568588
1759335057231818200,4.512818359375,-0.03787364438176155,-0.06475171446800232,-0.18448130786418915
1759335057241818400,4.522818359375,-0.13072516024112701,-0.1264491081237793,-0.33292156457901
1759335057251819300,4.5328193359375,-0.24984388053417206,-0.2278527319431305,-0.4740314185619354
1759335057261819100,4.542819091796875,-0.3494149148464203,-0.3439171314239502,-0.5864306092262268
1759335057271819300,4.5528193359375,-0.4050036668777466,-0.48319441080093384,-0.6725626587867737
1759335057281819100,4.562819091796875,-0.43737950921058655,-0.7098253965377808,-0.7556403279304504
1759335057291819300,4.5728193359375,-0.4813618063926697,-1.0207557678222656,-0.8772025108337402
1759335057301819100,4.582819091796875,-0.5283984541893005,-1.2724323272705078,-1.0305296182632446
1759335057311819300,4.5928193359375,-0.5510004758834839,-1.3781119585037231,-1.197906732559204
1759335057321819100,4.602819091796875,-0.5302310585975647,-1.357953429222107,-1.3469579219818115
1759335057331819500,4.612819580078125,-0.45814892649650574,-1.2131783962249756,-1.5302174091339111
1759335057341819600,4.622819580078125,-0.413555771112442,-1.0366383790969849,-1.690264105796814
1759335057351818800,4.63281884765625,-0.35735616087913513,-0.8472700715065002,-1.8930714130401611
1759335057361819000,4.64281884765625,-0.29504790902137756,-0.7159340381622314,-2.088548183441162
1759335057371818800,4.65281884765625,-0.29016098380088806,-0.6291912198066711,-2.2565362453460693
1759335057381819000,4.66281884765625,-0.39095374941825867,-0.4538728892803192,-2.423302412033081
1759335057391818800,4.67281884765625,-0.5210680365562439,-0.05375614017248154,-2.599231719970703
1759335057401819000,4.68281884765625,-0.5931501388549805,0.4343251883983612,-2.6988027095794678
1759335057411818800,4.69281884765625,-0.6414085030555725,0.6890559792518616,-2.6529877185821533
1759335057421819000,4.70281884765625,-0.6475171446800232,0.5094616413116455,-2.4300220012664795
1759335057441819000,4.72281884765625,-0.5858197808265686,-0.09407325088977814,-1.9150625467300415
1759335057451819800,4.73281982421875,-0.6010913848876953,-0.6713408827781677,-1.665218710899353
1759335057461819600,4.742819580078125,-0.618195652961731,-1.1160508394241333,-1.5485434532165527
1759335057471819800,4.75281982421875,-0.6004805564880371,-1.4569135904312134,-1.5015068054199219
1759335057481819600,4.762819580078125,-0.5760459303855896,-1.6420058012008667,-1.4587461948394775
1759335057491819800,4.77281982421875,-0.6291912198066711,-1.6377297639846802,-1.4184291362762451
1759335057501819600,4.782819580078125,-0.7525860071182251,-1.4819591045379639,-1.348179578781128
1759335057511819800,4.79281982421875,-0.8894197940826416,-1.2901474237442017,-1.2229522466659546
1759335057521819600,4.802819580078125,-0.9865473508834839,-1.1007791757583618,-1.1081095933914185
1759335057531819800,4.81281982421875,-1.0238101482391357,-1.0073168277740479,-1.007927656173706
1759335057541819600,4.822819580078125,-0.9822713136672974,-1.1142182350158691,-0.8869763612747192
1759335057551818800,4.83281884765625,-0.8949176073074341,-1.4104878902435303,-0.7513642311096191
1759335057561819000,4.84281884765625,-0.7367035150527954,-1.8466455936431885,-0.5791002511978149
1759335057571818800,4.85281884765625,-0.6817256212234497,-1.9883663654327393,-0.5229006409645081
1759335057581819000,4.86281884765625,-0.6872233748435974,-1.9523253440856934,-0.4593706727027893
1759335057591818800,4.87281884765625,-0.7415903806686401,-1.7146987915039062,-0.34574973583221436
1759335057601819000,4.88281884765625,-0.8100073337554932,-1.398881435394287,-0.22907446324825287
1759335057611818800,4.89281884765625,-0.8222246170043945,-1.168585181236267,-0.10690141469240189
1759335057621819000,4.90281884765625,-0.7672467231750488,-1.0042624473571777,0.021991148591041565
1759335057631818800,4.91281884765625,-0.6737843751907349,-0.9266825914382935,0.14416420459747314
1759335057641819000,4.92281884765625,-0.6010913848876953,-0.8936958312988281,0.2638937830924988
1759335057651819500,4.932819580078125,-0.5589417219161987,-0.8979719281196594,0.3646865487098694
1759335057661819600,4.942819580078125,-0.5064072608947754,-0.8491026759147644,0.42577308416366577
1759335057671819500,4.952819580078125,-0.4043927788734436,-0.7079927921295166,0.46303585171699524
1759335057681819600,4.962819580078125,-0.18631389737129211,-0.44104471802711487,0.5112941861152649
1759335057691819500,4.972819580078125,-0.048258353024721146,-0.2742784917354584,0.5650503635406494
1759335057701819600,4.982819580078125,0.07513642311096191,-0.01771509274840355,0.6004805564880371
1759335057711819500,4.992819580078125,0.1869247704744339,0.26633724570274353,0.6230825781822205
1759335057721819600,5.002819580078125,0.2974913716316223,0.4703662395477295,0.675616979598999
1759335057731819500,5.012819580078125,0.3878994286060333,0.637132465839386,0.7195992469787598
1759335057741819600,5.022819580078125,0.45875978469848633,0.7000515460968018,0.788016140460968
1759335057751818800,5.03281884765625,0.5473352670669556,0.7629706859588623,0.8405506014823914
1759335057761818600,5.042818603515625,0.6114761233329773,0.7953465580940247,0.8448266386985779
1759335057771818800,5.05281884765625,0.637132465839386,0.7660250067710876,0.799011766910553
1759335057781819000,5.06281884765625,0.6420193910598755,0.6805039048194885,0.720820963382721
1759335057791818800,5.07281884765625,0.6261368989944458,0.5015203952789307,0.5338962078094482
1759335057801818600,5.082818603515625,0.5668829679489136,0.3488040566444397,0.3683517575263977
1759335057811818800,5.09281884765625,0.43737950921058655,0.25045475363731384,0.15027284622192383
1759335057821818600,5.102818603515625,0.21624629199504852,0.2431243658065796,-0.08124507963657379
1759335057831818800,5.11281884765625,-0.10262536257505417,0.24434609711170197,-0.26572638750076294
1759335057841818600,5.122818603515625,-0.5070181488990784,0.16798794269561768,-0.3689626157283783
1759335057851819500,5.132819580078125,-0.8643743395805359,-0.15577064454555511,-0.3585779070854187
1759335057861819600,5.142819580078125,-1.1007791757583618,-0.4966334402561188,-0.3335324227809906
1759335057871819500,5.152819580078125,-1.171028733253479,-0.7580837607383728,-0.23579397797584534
1759335057881819600,5.162819580078125,-1.1129964590072632,-0.8546004891395569,-0.07757988572120667
1759335057891819500,5.172819580078125,-0.9511171579360962,-0.6035348773002625,0.015882495790719986
1759335057901819600,5.182819580078125,-0.5607742667198181,-0.056810468435287476,0.2541199326515198
1759335057911819800,5.19281982421875,-0.29016098380088806,0.30543261766433716,0.5247332453727722
1759335057921819600,5.202819580078125,-0.05925392732024193,0.5009095072746277,0.7843509912490845
1759335057931819800,5.21281982421875,0.08796459436416626,0.6218608021736145,0.9419541954994202
1759335057941819600,5.222819580078125,0.10995574295520782,0.8478809595108032,0.978606104850769
1759335057951818800,5.23281884765625,0.006719517521560192,1.0757336616516113,0.8741481900215149
1759335057961819000,5.24281884765625,-0.10384709388017654,0.6426302194595337,0.6102544069290161
1759335057971818800,5.25281884765625,-0.10812314599752426,-0.21319197118282318,0.031154127791523933
1759335057981819000,5.26281884765625,0.03481931984424591,-0.5674937963485718,-0.5827654600143433
1759335057991818800,5.27281884765625,0.21502456068992615,-0.2021963894367218,-0.788627028465271
1759335058001819000,5.28281884765625,0.3494149148464203,0.5778785347938538,-0.5723807215690613
1759335058011818800,5.29281884765625,0.4092797040939331,1.4868459701538086,-0.152105450630188
1759335058021819000,5.30281884765625,0.3988949954509735,2.4660630226135254,0.5180137157440186
1759335058031818800,5.31281884765625,0.4056145250797272,2.73606538772583,0.8900306820869446
1759335058041819000,5.32281884765625,0.44593164324760437,2.7262916564941406,1.1441506147384644
1759335058051819800,5.33281982421875,0.4899139404296875,2.495384454727173,1.2522737979888916
1759335058061819600,5.342819580078125,0.4856378734111786,2.121535062789917,1.1808024644851685
1759335058071819800,5.35281982421875,0.47219884395599365,1.7153096199035645,0.9828822016716003
1759335058081819600,5.362819580078125,0.46792277693748474,1.3164145946502686,0.759305477142334
1759335058091819800,5.37281982421875,0.4746423065662384,0.911410927772522,0.5442809462547302
1759335058101819600,5.382819580078125,0.4703662395477295,0.4392121136188507,0.3488040566444397
1759335058111819800,5.39281982421875,0.44715335965156555,-0.10323622822761536,0.18814650177955627
1759335058121819600,5.402819580078125,0.40256020426750183,-0.6004805564880371,0.1062905490398407
1759335058131819800,5.41281982421875,0.3787364661693573,-0.9040805697441101,0.20525072515010834
1759335058141819600,5.422819580078125,0.5125159621238708,-0.5461135506629944,0.45326200127601624
1759335058151818800,5.43281884765625,0.6499606370925903,-0.013439035043120384,0.770301103591919
1759335058161819000,5.44281884765625,0.6352998614311218,0.2571742534637451,1.037249207496643
1759335058171818800,5.45281884765625,0.48319441080093384,0.25534167885780334,1.1386528015136719
1759335058181819000,5.46281884765625,0.3445279896259308,0.21930062770843506,1.054964303970337
1759335058191818800,5.47281884765625,0.2779437005519867,0.11850785464048386,0.8637634515762329
1759335058201819000,5.48281884765625,0.26633724570274353,-0.1215621829032898,0.6572909951210022
1759335058211818800,5.49281884765625,0.2669481039047241,-0.4300491213798523,0.5082398653030396
1759335058221819000,5.50281884765625,0.2779437005519867,-0.6762278079986572,0.44593164324760437
1759335058231818800,5.51281884765625,0.3170390725135803,-0.8668177723884583,0.47219884395599365
1759335058241819000,5.52281884765625,0.3378084897994995,-0.9162978529930115,0.5687155723571777
1759335058251819500,5.532819580078125,0.36163222789764404,-0.7996225953102112,0.7837401032447815
1759335058261819600,5.542819580078125,0.3805690407752991,-0.7000515460968018,0.9676105380058289
1759335058271819500,5.552819580078125,0.3952298164367676,-0.6591235995292664,1.1844676733016968
1759335058281819600,5.562819580078125,0.4080579876899719,-0.6236934065818787,1.3634512424468994
1759335058291819500,5.572819580078125,0.4043927788734436,-0.5461135506629944,1.4691308736801147
1759335058301819600,5.582819580078125,0.3805690407752991,-0.423329621553421,1.490511178970337
1759335058311819500,5.592819580078125,0.3640756905078888,-0.2932153046131134,1.4624114036560059
1759335058321819600,5.602819580078125,0.34208452701568604,-0.17592918872833252,1.4080443382263184
1759335058331819500,5.612819580078125,0.323147714138031,-0.019547687843441963,1.3341296911239624
1759335058341819600,5.622819580078125,0.2993239760398865,0.19547687470912933,1.2583824396133423
1759335058351818800,5.63281884765625,0.27977627515792847,0.44654250144958496,1.1905763149261475
1759335058361819000,5.64281884765625,0.2938261926174164,0.8045095205307007,1.10139000415802
1759335058371818800,5.65281884765625,0.34086281061172485,0.9437867999076843,1.0775662660598755
1759335058381819000,5.66281884765625,0.394618958234787,0.9755517840385437,1.0806206464767456
1759335058391818800,5.67281884765625,0.4703662395477295,0.9144652485847473,1.0897835493087769
1759335058401819000,5.68281884765625,0.5497786998748779,0.797789990901947,1.0739010572433472
1759335058411818800,5.69281884765625,0.6096435189247131,0.6432411074638367,1.007927656173706
1759335058421819000,5.70281884765625,0.6591235995292664,0.4593706727027893,0.9138544201850891
1759335058431818800,5.71281884765625,0.6743952035903931,0.23090706765651703,0.7947356700897217
1759335058441819000,5.72281884765625,0.6389650702476501,-0.00733038317412138,0.6780604124069214
1759335058451819500,5.732819580078125,0.5345070958137512,-0.16493362188339233,0.5852088928222656
1759335058461819600,5.742819580078125,0.39767327904701233,-0.14294247329235077,0.513126790523529
1759335058471819500,5.752819580078125,0.26633724570274353,0.06475171446800232,0.455705463886261
1759335058481819600,5.762819580078125,0.17287486791610718,0.41111230850219727,0.3640756905078888
1759335058491819500,5.772819580078125,0.1765400618314743,0.41661009192466736,0.27977627515792847
1759335058501819600,5.782819580078125,0.1820378452539444,0.18509216606616974,0.18875735998153687
1759335058511819500,5.792819580078125,0.1258382350206375,-0.22357667982578278,0.13866640627384186
1759335058521819600,5.802819580078125,0.014049900695681572,-0.45753806829452515,0.1875356286764145
1759335058531819500,5.812819580078125,-0.06291911751031876,-0.24495697021484375,0.27488934993743896
1759335058541819600,5.822819580078125,-0.11484266817569733,0.11789698898792267,0.3543018400669098
1759335058551818800,5.83281884765625,-0.152105450630188,0.44226643443107605,0.3695734739303589
1759335058561819000,5.84281884765625,-0.16859880089759827,0.6829473376274109,0.27611109614372253
1759335058571818800,5.85281884765625,-0.18509216606616974,0.7757988572120667,0.07880161702632904
1759335058581819000,5.86281884765625,-0.19792033731937408,0.6579018831253052,-0.18448130786418915
1759335058591818800,5.87281884765625,-0.19364428520202637,0.1007927656173706,-0.6236934065818787
1759335058601819000,5.88281884765625,-0.21013765037059784,-0.33108896017074585,-0.8875871896743774
1759335058611818800,5.89281884765625,-0.2687807083129883,-0.6010913848876953,-1.094059705734253
1759335058621819000,5.90281884765625,-0.37079519033432007,-0.7073819637298584,-1.2235630750656128
1759335058631818800,5.91281884765625,-0.4764748811721802,-0.7422012686729431,-1.3292428255081177
1759335058641819000,5.92281884765625,-0.5833762884140015,-0.7757988572120667,-1.4917329549789429
1759335058651819500,5.932819580078125,-0.6896668672561646,-0.8710938692092896,-1.7727309465408325
1759335058661819600,5.942819580078125,-0.7825183868408203,-0.9932668805122375,-2.132530689239502
1759335058671819500,5.952819580078125,-0.8246681094169617,-1.0323622226715088,-2.4630086421966553
1759335058681819600,5.962819580078125,-0.8307767510414124,-0.9443976879119873,-2.660928964614868
1759335058691819500,5.972819580078125,-0.8313875794410706,-0.7806857824325562,-2.700024366378784
1759335058701819600,5.982819580078125,-0.7910705208778381,-0.45631635189056396,-2.6902506351470947
1759335058711819800,5.99281982421875,-0.7037167549133301,0.23640485107898712,-2.6554312705993652
1759335058721819600,6.002819580078125,-0.66584312915802,0.6218608021736145,-2.6108381748199463
1759335058731819800,6.01281982421875,-0.720820963382721,0.6872233748435974,-2.577240467071533
1759335058741819600,6.022819580078125,-0.7861835956573486,0.5021312236785889,-2.610227108001709
1759335058751818800,6.03281884765625,-0.7947356700897217,0.17898350954055786,-2.657874584197998
1759335058761819000,6.04281884765625,-0.7782423496246338,-0.2926044464111328,-2.6206119060516357
1759335058771818800,6.05281884765625,-0.7507534027099609,-0.607200026512146,-2.5503623485565186
1759335058781819000,6.06281884765625,-0.6841690540313721,-0.7024950385093689,-2.433687210083008
1759335058791818800,6.07281884765625,-0.5571091175079346,-0.6866125464439392,-2.2736403942108154
1759335058801819000,6.08281884765625,-0.37262779474258423,-0.5992587804794312,-2.065946340560913
1759335058811818800,6.09281884765625,-0.22418753802776337,-0.5907067060470581,-1.7812830209732056
1759335058821819000,6.10281884765625,-0.25473082065582275,-0.6597344875335693,-1.4123204946517944
1759335058831818800,6.11281884765625,-0.4502076804637909,-0.8338310718536377,-1.1924089193344116
1759335058841819000,6.12281884765625,-0.7183775305747986,-1.0085384845733643,-1.0659598112106323
1759335058851819800,6.13281982421875,-0.9474520087242126,-1.0519099235534668,-1.0348057746887207
1759335058861819600,6.142819580078125,-1.1020009517669678,-1.0952813625335693,-1.0067058801651
1759335058871819800,6.15281982421875,-1.1808024644851685,-1.3750576972961426,-0.8668177723884583
1759335058881819600,6.162819580078125,-1.2345587015151978,-1.6811012029647827,-0.7031059265136719
1759335058891819800,6.17281982421875,-1.1636983156204224,-1.6975945234298706,-0.5699372887611389
1759335058901819600,6.182819580078125,-1.0219775438308716,-1.5247195959091187,-0.46364670991897583
1759335058911819800,6.19281982421875,-0.8698720932006836,-1.3842206001281738,-0.35674530267715454
1759335058921819600,6.202819580078125,-0.7415903806686401,-1.2877039909362793,-0.20402899384498596
1759335058931819800,6.21281982421875,-0.6701191663742065,-1.236391305923462,-0.009773843921720982
1759335058941819600,6.222819580078125,-0.588874101638794,-1.0421360731124878,0.3023782968521118
1759335058951819000,6.232819091796875,-0.513126790523529,-0.8356636762619019,0.48258355259895325
1759335058961819000,6.24281884765625,-0.4086688458919525,-0.6395758986473083,0.6316346526145935
1759335058971819000,6.252819091796875,-0.29077184200286865,-0.5198463201522827,0.7513642311096191
1759335058981819000,6.26281884765625,-0.15393804013729095,-0.3805690407752991,0.827722430229187
1759335058991819000,6.272819091796875,-0.03237585723400116,-0.23396138846874237,0.9089674949645996
1759335059011818800,6.29281884765625,0.1814269721508026,0.24556782841682434,1.111163854598999
1759335059021819000,6.30281884765625,0.3139847218990326,0.6004805564880371,1.2541064023971558
1759335059031818800,6.31281884765625,0.4251621961593628,0.9523389339447021,1.4324790239334106
1759335059041819000,6.32281884765625,0.50335294008255,1.207069754600525,1.6322319507598877
1759335059051819800,6.33281982421875,0.5925393104553223,1.4019356966018677,1.7708983421325684
1759335059061819600,6.342819580078125,0.5894849896430969,1.3933836221694946,1.6310101747512817
1759335059071819800,6.35281982421875,0.4856378734111786,1.1771373748779297,1.2773191928863525
1759335059081819600,6.362819580078125,0.3323107063770294,0.7941248416900635,0.7489207983016968
1759335059091819800,6.37281982421875,0.19364428520202637,0.2773328125476837,0.18631389737129211
1759335059101819600,6.382819580078125,0.03787364438176155,-0.2767219543457031,-0.3029891550540924
1759335059111819800,6.39281982421875,-0.19364428520202637,-0.5711590051651001,-0.5858197808265686
1759335059121819600,6.402819580078125,-0.4153883755207062,-0.5919284224510193,-0.6524040699005127
1759335059131819800,6.41281982421875,-0.5937610268592834,-0.5204572081565857,-0.5809328556060791
1759335059141819600,6.422819580078125,-0.7434229850769043,-0.5931501388549805,-0.4489859640598297
1759335059151818800,6.43281884765625,-0.8393288254737854,-0.8539896011352539,-0.294437050819397
1759335059161819000,6.44281884765625,-0.9486737251281738,-1.2431107759475708,-0.17531833052635193
1759335059171818800,6.45281884765625,-0.9566149711608887,-1.1478158235549927,-0.10384709388017654
1759335059181819000,6.46281884765625,-0.8552113175392151,-0.8961393237113953,0.0024434609804302454
1759335059191818800,6.47281884765625,-0.6261368989944458,-0.4893030524253845,0.11850785464048386
1759335059201819000,6.48281884765625,-0.3341432809829712,-0.20952677726745605,0.2076941877603531
1759335059211818800,6.49281884765625,-0.11728613078594208,0.054367005825042725,0.27061331272125244
1759335059221819000,6.50281884765625,-0.10873401165008545,0.5027421116828918,0.4386012554168701
1759335059231818800,6.51281884765625,-0.33719760179519653,1.0018190145492554,0.5919284224510193
1759335059241819000,6.52281884765625,-0.5815436840057373,1.1087204217910767,0.5839871764183044
1759335059251819500,6.532819580078125,-0.6047565937042236,0.5082398653030396,0.2217440903186798
1759335059261819600,6.542819580078125,-0.39095374941825867,-0.16310101747512817,-0.2431243658065796
1759335059271819500,6.552819580078125,-0.09285151958465576,-0.23029619455337524,-0.3878994286060333
1759335059281819600,6.562819580078125,0.31642818450927734,0.5320636034011841,-0.17409659922122955
1759335059291819500,6.572819580078125,0.5711590051651001,1.2663236856460571,0.06169738993048668
1759335059301819600,6.582819580078125,0.7935139536857605,1.9529361724853516,0.34758231043815613
1759335059311819800,6.59281982421875,0.9706648588180542,2.4715607166290283,0.6536257863044739
1759335059321819600,6.602819580078125,1.0531316995620728,2.6737570762634277,0.8924741148948669
1759335059331819800,6.61281982421875,1.0983357429504395,2.5638015270233154,1.0103710889816284
1759335059341819600,6.622819580078125,1.1203268766403198,2.326174736022949,1.018923282623291
1759335059351818800,6.63281884765625,1.0922271013259888,2.0164661407470703,0.9395107626914978
1759335059361819000,6.64281884765625,1.0335839986801147,1.6884315013885498,0.8045095205307007
1759335059371818800,6.65281884765625,0.9871582388877869,1.445918083190918,0.6805039048194885
1759335059381819000,6.66281884765625,0.969443142414093,1.3170254230499268,0.5870414972305298
1759335059391818800,6.67281884765625,0.9810495972633362,1.0574077367782593,0.40194934606552124
1759335059401819000,6.68281884765625,0.9639453291893005,0.7641924023628235,0.24434609711170197
1759335059411818800,6.69281884765625,0.9046914577484131,0.4153883755207062,0.1270599663257599
1759335059421819000,6.70281884765625,0.8136724829673767,0.07391469180583954,0.10018189996480942
1759335059431818800,6.71281884765625,0.816726803779602,-0.06536258012056351,0.2119702398777008
1759335059441818600,6.722818603515625,0.8729264140129089,0.06902777403593063,0.45875978469848633
1759335059451819300,6.7328193359375,0.8906415104866028,0.3689626157283783,0.7525860071182251
1759335059461819400,6.7428193359375,0.8185594081878662,0.5968153476715088,0.969443142414093
1759335059471819300,6.7528193359375,0.6579018831253052,0.645684540271759,1.0238101482391357
1759335059481819400,6.7628193359375,0.44593164324760437,0.49296826124191284,0.9651671051979065
1759335059491819300,6.7728193359375,0.2583959996700287,0.2632829248905182,0.8338310718536377
1759335059501819400,6.7828193359375,0.10934487730264664,0.10262536257505417,0.6737843751907349
1759335059511819300,6.7928193359375,-0.05253441259264946,-0.015271631069481373,0.5601634383201599
1759335059521819400,6.8028193359375,-0.045204028487205505,0.05375614017248154,0.6670648455619812
1759335059531819300,6.8128193359375,0.0507018156349659,0.11178833991289139,0.9046914577484131
1759335059541819400,6.8228193359375,0.17287486791610718,0.010995574295520782,1.1606439352035522
1759335059551818500,6.832818603515625,0.27611109614372253,-0.1765400618314743,1.3359622955322266
1759335059561818600,6.842818603515625,0.342695415019989,-0.3335324227809906,1.423926830291748
1759335059571818500,6.852818603515625,0.37201693654060364,-0.4282165467739105,1.4202617406845093
1759335059581818600,6.862818603515625,0.3878994286060333,-0.41661009192466736,1.3439035415649414
1759335059591818500,6.872818603515625,0.4031710624694824,-0.2889392673969269,1.2308934926986694
1759335059601818600,6.882818603515625,0.413555771112442,-0.09834930300712585,1.0897835493087769
1759335059611818500,6.892818603515625,0.42699480056762695,0.07391469180583954,0.9382890462875366
1759335059621818400,6.902818359375,0.4813618063926697,0.2223549485206604,0.7544185519218445
1759335059631818500,6.912818603515625,0.5485569834709167,0.304210901260376,0.6884451508522034
1759335059641818400,6.922818359375,0.6041457056999207,0.3677408695220947,0.6707300543785095
1759335059651819300,6.9328193359375,0.6475171446800232,0.3988949954509735,0.6829473376274109
1759335059661819400,6.9428193359375,0.6890559792518616,0.40133845806121826,0.7305948138237
1759335059671819300,6.9528193359375,0.720820963382721,0.40194934606552124,0.7953465580940247
1759335059681819400,6.9628193359375,0.7312057018280029,0.41599923372268677,0.8631525635719299
1759335059691819300,6.9728193359375,0.7238753437995911,0.4392121136188507,0.9425650835037231
1759335059701819400,6.9828193359375,0.7024950385093689,0.4288274049758911,1.0305296182632446
1759335059711819300,6.9928193359375,0.6725626587867737,0.37629300355911255,1.0922271013259888
1759335059721819400,7.0028193359375,0.6340781450271606,0.2840523421764374,1.1246029138565063
1759335059731819300,7.0128193359375,0.5510004758834839,0.15821409225463867,1.129489779472351
1759335059741819600,7.022819580078125,0.36163222789764404,0.08796459436416626,1.1362093687057495
1759335059751818800,7.03281884765625,0.2681698501110077,0.22113321721553802,1.1313223838806152
1759335059761818600,7.042818603515625,0.2223549485206604,0.3842342495918274,1.0641272068023682
1759335059771818800,7.05281884765625,0.18814650177955627,0.35185837745666504,0.8900306820869446
1759335059781818600,7.062818603515625,0.10506882518529892,-0.028099801391363144,0.6438519954681396
1759335059791818800,7.07281884765625,0.0012217304902151227,-0.4954117238521576,0.42210787534713745
1759335059801818600,7.082818603515625,-0.08307767659425735,-0.6438519954681396,0.30054569244384766
1759335059811818800,7.09281884765625,-0.16493362188339233,-0.5125159621238708,0.2736676335334778
1759335059821818600,7.102818603515625,-0.24984388053417206,-0.23090706765651703,0.294437050819397
1759335059831818800,7.11281884765625,-0.24617868661880493,0.14905111491680145,0.25045475363731384
1759335059841818600,7.122818603515625,-0.22846360504627228,0.47830748558044434,0.04886921867728233
1759335059851819500,7.132819580078125,-0.2370157092809677,0.4092797040939331,-0.41172316670417786
1759335059861819600,7.142819580078125,-0.22663100063800812,0.012828170321881771,-0.7684684991836548
1759335059871819500,7.152819580078125,-0.2871066629886627,-0.5687155723571777,-1.1087204217910767
1759335059881819600,7.162819580078125,-0.4538728892803192,-1.0054842233657837,-1.4074335098266602
1759335059891819500,7.172819580078125,-0.5968153476715088,-1.1154398918151855,-1.6291775703430176
1759335059901819100,7.182819091796875,-0.6218608021736145,-0.998153805732727,-1.833817481994629
1759335059911819300,7.1928193359375,-0.6157521605491638,-0.8839219808578491,-2.083050489425659
1759335059921819100,7.202819091796875,-0.5955936312675476,-0.7916813492774963,-2.389704942703247
1759335059931819300,7.2128193359375,-0.6029239892959595,-0.8087855577468872,-2.696359157562256
1759335059941819100,7.222819091796875,-0.6664539575576782,-1.0458012819290161,-2.867401361465454
1759335059951818500,7.232818603515625,-0.7159340381622314,-1.1582005023956299,-2.953533411026001
1759335059961818400,7.242818359375,-0.7202101349830627,-0.9040805697441101,-2.9626965522766113
1759335059971818500,7.252818603515625,-0.646295428276062,-0.11239920556545258,-2.847853660583496
1759335059981818400,7.262818359375,-0.6352998614311218,0.30115658044815063,-2.6792550086975098
1759335059991818500,7.272818603515625,-0.6701191663742065,0.4905247986316681,-2.543642997741699
1759335060001818400,7.282818359375,-0.7202101349830627,0.5681046843528748,-2.5473079681396484
1759335060011818500,7.292818603515625,-0.8020660877227783,0.5015203952789307,-2.679865837097168
1759335060021818400,7.302818359375,-0.9083566069602966,0.28466320037841797,-2.8411343097686768
1759335060031818500,7.312818603515625,-0.9560040831565857,0.17898350954055786,-2.9272663593292236
1759335060041818400,7.322818359375,-0.9388998746871948,0.1270599663257599,-2.863736152648926
1759335060051819300,7.3328193359375,-0.8442157506942749,0.12400564551353455,-2.66337251663208
1759335060061819100,7.342819091796875,-0.7134906053543091,0.08124507963657379,-2.3414463996887207
1759335060071819300,7.3528193359375,-0.5632177591323853,-0.23090706765651703,-1.9425514936447144
1759335060081819100,7.362819091796875,-0.3799581825733185,-0.7281513810157776,-1.3573426008224487
1759335060091819300,7.3728193359375,-0.31459560990333557,-0.8338310718536377,-1.0433578491210938
1759335060101819100,7.382819091796875,-0.4966334402561188,-0.9150761365890503,-0.8576548099517822
1759335060111819300,7.3928193359375,-0.8307767510414124,-0.9944885969161987,-0.8600982427597046
1759335060121819100,7.402819091796875,-1.1239920854568481,-1.027475357055664,-0.9828822016716003
1759335060131819300,7.4128193359375,-1.3616186380386353,-1.3768903017044067,-0.9896016716957092
1759335060141819100,7.422819091796875,-1.4147639274597168,-1.9413297176361084,-0.8985827565193176
1759335060151818500,7.432818603515625,-1.2932016849517822,-2.266309976577759,-0.759916365146637
1759335060161818400,7.442818359375,-1.0897835493087769,-2.186286687850952,-0.5937610268592834
1759335060171818500,7.452818603515625,-0.8991936445236206,-1.8759671449661255,-0.41111230850219727
1759335060181818400,7.462818359375,-0.7519751191139221,-1.4856243133544922,-0.23518311977386475
1759335060191818500,7.472818603515625,-0.626747727394104,-1.147204875946045,-0.05619960278272629
1759335060201819000,7.48281884765625,-0.4764748811721802,-0.7031059265136719,0.22602014243602753
1759335060211818800,7.49281884765625,-0.375071257352829,-0.4911356568336487,0.42699480056762695
1759335060221819000,7.50281884765625,-0.2669481039047241,-0.31642818450927734,0.5736024379730225
1759335060231818800,7.51281884765625,-0.17531833052635193,-0.21930062770843506,0.6792821288108826
1759335060241819000,7.52281884765625,-0.09651670604944229,-0.17470745742321014,0.7611380815505981
1759335060251819500,7.532819580078125,-0.00855211354792118,-0.1014036312699318,0.827111542224884
1759335060261819600,7.542819580078125,0.08796459436416626,0.04703662544488907,0.9260717034339905
1759335060271819500,7.552819580078125,0.17531833052635193,0.29077184200286865,1.0415252447128296
1759335060281819600,7.562819580078125,0.2938261926174164,0.6035348773002625,1.1985175609588623
1759335060291819500,7.572819580078125,0.43188172578811646,0.9468411207199097,1.398881435394287
1759335060301819600,7.582819580078125,0.5827654600143433,1.2980886697769165,1.6108516454696655
1759335060311819800,7.59281982421875,0.7709119319915771,1.6908750534057617,1.8613064289093018
1759335060321819600,7.602819580078125,0.8662069439888,1.8472565412521362,1.863139033317566
1759335060331819800,7.61281982421875,0.8820894360542297,1.7721201181411743,1.6786576509475708
1759335060341819600,7.622819580078125,0.8057312369346619,1.4282029867172241,1.238223910331726
1759335060351818800,7.63281884765625,0.6224716901779175,0.912021815776825,0.5467243790626526
1759335060361819000,7.64281884765625,0.33047810196876526,0.20830504596233368,-0.2272418737411499
1759335060371818800,7.65281884765625,-0.03237585723400116,-0.475253164768219,-0.797789990901947
1759335060381819000,7.66281884765625,-0.40072759985923767,-0.8197811841964722,-0.960280179977417
1759335060391818800,7.67281884765625,-0.684779942035675,-1.0073168277740479,-0.8038986921310425
1759335060401819000,7.68281884765625,-0.8985827565193176,-1.1887437105178833,-0.5717698931694031
1759335060411818800,7.69281884765625,-0.9993755221366882,-1.451415777206421,-0.3188716471195221
1759335060421819000,7.70281884765625,-1.0329731702804565,-1.6096298694610596,-0.05375614017248154
1759335060431818800,7.71281884765625,-0.9474520087242126,-1.228450059890747,0.06414084881544113
1759335060441819000,7.72281884765625,-0.7202101349830627,-0.4703662395477295,0.1765400618314743
1759335060451819800,7.73281982421875,-0.3988949954509735,0.21013765037059784,0.30970868468284607
1759335060461819600,7.742819580078125,-0.05009094998240471,0.49235737323760986,0.44165557622909546
1759335060471819800,7.75281982421875,0.20525072515010834,0.5497786998748779,0.4495968222618103
1759335060481819600,7.762819580078125,0.27550023794174194,0.5601634383201599,0.33047810196876526
1759335060491819800,7.77281982421875,0.1007927656173706,0.5662720799446106,0.12400564551353455
1759335060501819600,7.782819580078125,-0.24495697021484375,0.5015203952789307,-0.001832595793530345
1759335060511819800,7.79281982421875,-0.4612032473087311,0.3194825351238251,-0.11545353382825851
1759335060521819600,7.802819580078125,-0.4331034719944,0.3078760802745819,-0.19058994948863983
1759335060531819800,7.81281982421875,-0.28099802136421204,0.5699372887611389,-0.13500121235847473
1759335060541819600,7.822819580078125,0.05803219974040985,0.8967501521110535,-0.015882495790719986
1759335060551819000,7.832819091796875,0.31031954288482666,1.2932016849517822,0.1472185254096985
1759335060561819000,7.84281884765625,0.5290092825889587,1.86497163772583,0.3585779070854187
1759335060571819000,7.852819091796875,0.7171558141708374,2.3359487056732178,0.5931501388549805
1759335060581819000,7.86281884765625,0.8631525635719299,2.534479856491089,0.7996225953102112
1759335060591819000,7.872819091796875,0.9645562171936035,2.478891134262085,0.9395107626914978
1759335060601818600,7.882818603515625,1.0293079614639282,2.2705860137939453,0.9871582388877869
1759335060611818500,7.892818603515625,1.035416603088379,1.9755382537841797,0.9468411207199097
1759335060621818400,7.902818359375,0.9926560521125793,1.6774359941482544,0.8570439219474792
1759335060631818500,7.912818603515625,0.921795666217804,1.423926830291748,0.740368664264679
1759335060641818400,7.922818359375,0.8387179970741272,1.215621829032898,0.6133087277412415
1759335060651819300,7.9328193359375,0.7727445363998413,0.8717046976089478,0.4001167416572571
1759335060661819400,7.9428193359375,0.7709119319915771,0.5271766781806946,0.26633724570274353
1759335060671819300,7.9528193359375,0.7733554244041443,0.18997909128665924,0.19547687470912933
1759335060681819400,7.9628193359375,0.846659243106842,0.010995574295520782,0.21624629199504852
1759335060691819300,7.9728193359375,0.9755517840385437,0.11239920556545258,0.34513887763023376
1759335060701819400,7.9828193359375,1.0054842233657837,0.3995058834552765,0.5827654600143433
1759335060711819300,7.9928193359375,0.9187413454055786,0.6524040699005127,0.8332201838493347
1759335060721819400,8.0028193359375,0.7458664774894714,0.7562511563301086,0.9999864101409912
1759335060731819300,8.0128193359375,0.5400048494338989,0.7776314616203308,1.0329731702804565
1759335060741819400,8.0228193359375,0.394618958234787,0.7061602473258972,0.950506329536438
1759335060751818500,8.032818603515626,0.2681698501110077,0.5772676467895508,0.7849618196487427
1759335060761818400,8.042818359375,0.17592918872833252,0.4550946056842804,0.5778785347938538
1759335060771818500,8.052818603515625,0.1411098688840866,0.2816088795661926,0.48197266459465027
1759335060781818400,8.062818359375,0.1966986060142517,0.2620611786842346,0.5919284224510193
1759335060791818500,8.072818603515625,0.29993483424186707,0.04092797264456749,0.7929030656814575
1759335060801818400,8.082818359375,0.36651915311813354,-0.25961771607398987,0.9944885969161987
1759335060811818500,8.092818603515624,0.37751471996307373,-0.41661009192466736,1.1636983156204224
1759335060821818400,8.102818359375,0.3695734739303589,-0.4294382631778717,1.2583824396133423
1759335060831818500,8.112818603515626,0.3732386529445648,-0.33047810196876526,1.2705997228622437
1759335060841818400,8.122818359375,0.3695734739303589,-0.24556782841682434,1.2211196422576904
1759335060851819300,8.1328193359375,0.37201693654060364,-0.17898350954055786,1.1270463466644287
1759335060861819100,8.142819091796875,0.3952298164367676,-0.11545353382825851,1.0378600358963013
1759335060871819300,8.1528193359375,0.4300491213798523,-0.02871066704392433,0.959669291973114
1759335060881819100,8.162819091796875,0.494189977645874,0.21135938167572021,0.8991936445236206
1759335060891819300,8.1728193359375,0.5400048494338989,0.3927863538265228,0.8888089060783386
1759335060901819600,8.182819580078124,0.588263213634491,0.5406157374382019,0.8839219808578491
1759335060911819800,8.19281982421875,0.6352998614311218,0.6194173693656921,0.8820894360542297
1759335060921819600,8.202819580078126,0.6664539575576782,0.607810914516449,0.8686503767967224
1759335060931819800,8.21281982421875,0.6994407176971436,0.5400048494338989,0.8649851679801941
1759335060941819600,8.222819580078125,0.7287622094154358,0.4550946056842804,0.8588765263557434
1759335060951818800,8.23281884765625,0.7483099102973938,0.36102136969566345,0.8594874143600464
1759335060961819000,8.24281884765625,0.7519751191139221,0.24984388053417206,0.8784242272377014
1759335060971818800,8.25281884765625,0.7428121566772461,0.10018189996480942,0.9089674949645996
1759335060981819000,8.26281884765625,0.7134906053543091,-0.06230825558304787,0.9669997096061707
1759335060991818800,8.27281884765625,0.646295428276062,-0.1514945775270462,1.0714576244354248
1759335061001819000,8.28281884765625,0.42577308416366577,0.025045474991202354,1.2412781715393066
1759335061011818800,8.29281884765625,0.2742784917354584,0.3341432809829712,1.2932016849517822
1759335061021819000,8.30281884765625,0.18325957655906677,0.6120869517326355,1.2198978662490845
1759335061031818800,8.31281884765625,0.14538592100143433,0.5687155723571777,1.0140362977981567
1759335061041819000,8.32281884765625,0.1459967941045761,0.1508837193250656,0.6786713004112244
1759335061051819800,8.33281982421875,0.11545353382825851,-0.4990769028663635,0.3066543638706207
1759335061061819600,8.342819580078125,-0.015271631069481373,-1.0525208711624146,0.07635815441608429
1759335061071819800,8.35281982421875,-0.1417207419872284,-0.9731083512306213,-0.00366519158706069
1759335061081819100,8.362819091796876,-0.28038713335990906,-0.4948008358478546,0.028099801391363144
1759335061091819300,8.3728193359375,-0.37079519033432007,0.16249015927314758,0.039706241339445114
1759335061101819100,8.382819091796875,-0.4337143301963806,0.6053674817085266,-0.09346238523721695
1759335061111819300,8.3928193359375,-0.5070181488990784,0.6023131608963013,-0.5583308339118958
1759335061121819100,8.402819091796875,-0.5864306092262268,0.2675589919090271,-0.8814785480499268
1759335061131819300,8.4128193359375,-0.6768386960029602,-0.11850785464048386,-1.1594222784042358
1759335061141819100,8.422819091796875,-0.6695083379745483,-0.608421802520752,-1.4770721197128296
1759335061151818500,8.432818603515624,-0.598647952079773,-1.1136072874069214,-1.8191566467285156
1759335061161818400,8.442818359375,-0.5681046843528748,-1.4117095470428467,-2.1533000469207764
1759335061171818500,8.452818603515626,-0.5870414972305298,-1.4691308736801147,-2.464841365814209
1759335061181818400,8.462818359375,-0.618195652961731,-1.2858713865280151,-2.7433958053588867
1759335061191818500,8.472818603515625,-0.685390830039978,-1.015868902206421,-2.9223792552948
1759335061201818400,8.482818359375,-0.7586946487426758,-0.940121591091156,-2.9718594551086426
1759335061211818200,8.492818359375,-0.7849618196487427,-0.8741481900215149,-3.009732961654663
1759335061221818400,8.502818359375,-0.7837401032447815,-0.5088507533073425,-3.054326295852661
1759335061231818200,8.512818359375,-0.7428121566772461,0.37140607833862305,-2.9999592304229736
1759335061241818400,8.522818359375,-0.7800748944282532,0.6298020482063293,-2.886338233947754
1759335061251819300,8.5328193359375,-0.7929030656814575,0.6780604124069214,-2.822197437286377
1759335061261819100,8.542819091796876,-0.7831292152404785,0.4502076804637909,-2.794708490371704
1759335061271819300,8.5528193359375,-0.750142514705658,0.08491026610136032,-2.778215169906616
1759335061281819100,8.562819091796875,-0.7635815739631653,-0.18081611394882202,-2.769663095474243
1759335061291819300,8.5728193359375,-0.759916365146637,-0.32498031854629517,-2.6670377254486084
1759335061301819100,8.582819091796875,-0.7000515460968018,-0.34208452701568604,-2.4807238578796387
1759335061311819300,8.5928193359375,-0.6029239892959595,-0.42149701714515686,-2.20583438873291
1759335061321819000,8.60281884765625,-0.5320636034011841,-0.5503895878791809,-1.9211711883544922
1759335061331818800,8.61281884765625,-0.4899139404296875,-0.656680166721344,-1.655444860458374
1759335061341819000,8.62281884765625,-0.5357288122177124,-0.665232241153717,-1.2785409688949585
1759335061351818000,8.63281787109375,-0.6896668672561646,-0.7067710757255554,-1.0531316995620728
1759335061361817900,8.64281787109375,-0.9156870245933533,-0.8258898258209229,-0.8319984674453735
1759335061371818000,8.65281787109375,-1.0946705341339111,-1.1362093687057495,-0.6731734871864319
1759335061381818400,8.662818359375,-1.19912850856781,-1.598023533821106,-0.6145304441452026
1759335061391818200,8.672818359375,-1.1740829944610596,-1.9694294929504395,-0.6530149579048157
1759335061401818400,8.682818359375,-1.0604621171951294,-2.0561723709106445,-0.6133087277412415
1759335061411818200,8.692818359375,-0.8906415104866028,-1.9089539051055908,-0.4813618063926697
1759335061421818400,8.702818359375,-0.7195992469787598,-1.6859880685806274,-0.27611109614372253
1759335061431818200,8.712818359375,-0.5907067060470581,-1.4190399646759033,-0.02932153269648552
1759335061441818400,8.722818359375,-0.4996877610683441,-1.1362093687057495,0.19364428520202637
1759335061451819300,8.7328193359375,-0.39706242084503174,-0.8411614298820496,0.484416127204895
1759335061461819100,8.742819091796875,-0.2125810980796814,-0.42088615894317627,0.645684540271759
1759335061471819300,8.7528193359375,-0.08124507963657379,-0.15454891324043274,0.7800748944282532
1759335061481819100,8.762819091796874,0.033597588539123535,0.06169738993048668,0.8973610401153564
1759335061491819300,8.7728193359375,0.13927727937698364,0.21013765037059784,1.0170906782150269
1759335061501819100,8.782819091796876,0.24007004499435425,0.3323107063770294,1.1557570695877075
1759335061511819300,8.7928193359375,0.3323107063770294,0.5290092825889587,1.2980886697769165
1759335061521819100,8.802819091796875,0.44287729263305664,0.8533787727355957,1.4654656648635864
1759335061531819300,8.8128193359375,0.5815436840057373,1.2321151494979858,1.6743816137313843
1759335061541819100,8.822819091796875,0.7159340381622314,1.6218472719192505,1.8765780925750732
1759335061551818200,8.832818359375,0.8093964457511902,1.9077321290969849,2.0512855052948
1759335061561818400,8.842818359375,0.8344419002532959,2.0586159229278564,2.1123719215393066
1759335061571818200,8.852818359375,0.7342600226402283,1.8643606901168823,1.7354681491851807
1759335061581818400,8.862818359375,0.5571091175079346,1.4489723443984985,1.017701506614685
1759335061591818200,8.872818359375,0.2370157092809677,0.7531968355178833,0.09896016865968704
1759335061601818400,8.882818359375,-0.07819075137376785,-0.09529497474431992,-0.6988298296928406
1759335061611818200,8.892818359375,-0.3579670190811157,-0.6994407176971436,-1.1056660413742065
1759335061621818600,8.902818603515625,-0.6194173693656921,-0.9712757468223572,-1.156978726387024
1759335061631818800,8.91281884765625,-0.8136724829673767,-1.1612548828125,-1.009149432182312
1759335061641818600,8.922818603515625,-0.9896016716957092,-1.378722906112671,-0.8093964457511902
1759335061651819500,8.932819580078124,-1.0873401165008545,-1.5680910348892212,-0.5992587804794312
1759335061661819600,8.942819580078124,-1.1288789510726929,-1.643227458000183,-0.3481931984424591
1759335061671819500,8.952819580078126,-1.0867292881011963,-1.585806131362915,-0.1368338167667389
1759335061681819600,8.962819580078126,-0.7965682744979858,-0.8570439219474792,-0.00733038317412138
1759335061691819500,8.972819580078125,-0.5351179838180542,-0.30970868468284607,0.12767083942890167
1759335061701819600,8.982819580078125,-0.20341812074184418,0.025045474991202354,0.37140607833862305
1759335061711819500,8.992819580078125,0.1411098688840866,0.37690386176109314,0.5772676467895508
1759335061721819600,9.002819580078125,0.4251621961593628,0.5937610268592834,0.6389650702476501
1759335061731819500,9.012819580078125,0.5015203952789307,0.5155702829360962,0.47342056035995483
1759335061741819600,9.022819580078124,0.19058994948863983,0.3689626157283783,0.15271630883216858
1759335061751818800,9.03281884765625,-0.40194934606552124,0.060475658625364304,-0.2064724564552307
1759335061761818600,9.042818603515625,-0.6682865619659424,-0.23273965716362,-0.5241223573684692
1759335061771818800,9.05281884765625,-0.5345070958137512,0.00855211354792118,-0.5583308339118958
1759335061781818400,9.062818359375,-0.27977627515792847,0.3176499307155609,-0.4893030524253845
1759335061791818500,9.072818603515625,0.04153883829712868,0.8527678847312927,-0.33292156457901
1759335061801818400,9.082818359375,0.5815436840057373,2.083050489425659,0.1722639948129654
1759335061811818500,9.092818603515624,0.8655960559844971,2.7739391326904297,0.48319441080093384
1759335061821818400,9.102818359375,1.0690141916275024,3.1135802268981934,0.7959573864936829
1759335061831818500,9.112818603515626,1.2046263217926025,3.1899383068084717,1.0561859607696533
1759335061841818600,9.122818603515626,1.2687671184539795,3.09281063079834,1.2217304706573486
1759335061851819300,9.1328193359375,1.236391305923462,2.791654109954834,1.2528846263885498
1759335061861819400,9.1428193359375,1.129489779472351,2.3047945499420166,1.1716395616531372
1759335061871819300,9.1528193359375,1.0073168277740479,1.6768250465393066,1.0201449394226074
1759335061881819400,9.1628193359375,0.9272934198379517,0.9969320893287659,0.778853178024292
1759335061891819300,9.1728193359375,0.8717046976089478,0.3933972120285034,0.48319441080093384
1759335061901819400,9.1828193359375,0.8191702961921692,-0.05803219974040985,0.21868975460529327
1759335061911819500,9.192819580078124,0.8118399381637573,-0.4001167416572571,0.014049900695681572
1759335061921819400,9.2028193359375,0.9633345007896423,-0.31459560990333557,0.06230825558304787
1759335061931819500,9.212819580078126,1.0806206464767456,-0.06658431142568588,0.24678955972194672
1759335061941819400,9.2228193359375,0.988990843296051,0.17348572611808777,0.5442809462547302
1759335061951818800,9.23281884765625,0.7104362845420837,0.242513507604599,0.8497135639190674
1759335061961818600,9.242818603515625,0.4184426963329315,0.2785545587539673,1.0415252447128296
1759335061971818800,9.25281884765625,0.20586158335208893,0.38117989897727966,1.0910053253173828
1759335061981818600,9.262818603515624,0.05803219974040985,0.5290092825889587,1.007927656173706
1759335061991818800,9.27281884765625,-0.02382374368607998,0.6670648455619812,0.8588765263557434
1759335062001818600,9.282818603515626,-0.042760565876960754,0.6786713004112244,0.7220427393913269
1759335062011818800,9.29281884765625,-0.009162978269159794,0.5913175344467163,0.6444628238677979
1759335062021818600,9.302818603515625,0.08002334833145142,0.49785518646240234,0.66584312915802
1759335062031818800,9.31281884765625,0.24617868661880493,0.40744712948799133,0.788627028465271
1759335062041818600,9.322818603515625,0.3677408695220947,0.29626965522766113,0.9224064946174622
1759335062051819500,9.332819580078125,0.4691445231437683,0.12278391420841217,1.0873401165008545
1759335062061819400,9.3428193359375,0.5216789245605469,-0.003054326167330146,1.1924089193344116
1759335062071819500,9.352819580078124,0.5558874011039734,-0.03726277872920036,1.2528846263885498
1759335062091819800,9.37281982421875,0.5937610268592834,0.13866640627384186,1.2125675678253174
1759335062101820000,9.38281982421875,0.5815436840057373,0.24129177629947662,1.1484266519546509
1759335062111819800,9.39281982421875,0.5852088928222656,0.3384193480014801,1.0494664907455444
1759335062121819600,9.402819580078125,0.6151412725448608,0.4190535545349121,0.9474520087242126
1759335062131819800,9.41281982421875,0.6530149579048157,0.46242499351501465,0.8594874143600464
1759335062141819600,9.422819580078125,0.7073819637298584,0.4612032473087311,0.7751879692077637
1759335062151818800,9.43281884765625,0.7305948138237,0.42088615894317627,0.7745771408081055
1759335062161819000,9.44281884765625,0.749531626701355,0.36224308609962463,0.8087855577468872
1759335062171818800,9.45281884765625,0.7568620443344116,0.3084869384765625,0.8649851679801941
1759335062181819000,9.46281884765625,0.7519751191139221,0.2724458873271942,0.9443976879119873
1759335062191818800,9.47281884765625,0.7293730974197388,0.1765400618314743,1.0366383790969849
1759335062201819000,9.48281884765625,0.6933320760726929,0.024434609338641167,1.1105530261993408
1759335062211818800,9.49281884765625,0.6200281977653503,-0.1765400618314743,1.1551461219787598
1759335062221819000,9.50281884765625,0.5088507533073425,-0.3335324227809906,1.177748203277588
1759335062231818800,9.51281884765625,0.37751471996307373,-0.2877175211906433,1.2009611129760742
1759335062241819000,9.52281884765625,0.23396138846874237,0.07635815441608429,1.226617455482483
1759335062251819500,9.532819580078124,0.12095131725072861,0.675006091594696,1.2290608882904053
1759335062261819600,9.542819580078126,0.09407325088977814,1.2767083644866943,1.0506882667541504
1759335062271819500,9.552819580078125,0.152105450630188,1.1423180103302002,0.7110471725463867
1759335062281819600,9.562819580078125,0.20097467303276062,0.5974262356758118,0.2638937830924988
1759335062291819500,9.572819580078125,0.15271630883216858,-0.09957103431224823,-0.12095131725072861
1759335062301819600,9.582819580078125,0.01710422709584236,-0.6236934065818787,-0.294437050819397
1759335062311819500,9.592819580078125,-0.14233160018920898,-0.6249151229858398,-0.29016098380088806
1759335062321819600,9.602819580078124,-0.24617868661880493,-0.11789698898792267,-0.22418753802776337
1759335062331819500,9.612819580078124,-0.3488040566444397,0.4245513379573822,-0.2168571650981903
1759335062341819600,9.622819580078126,-0.5229006409645081,0.6524040699005127,-0.3445279896259308
1759335062351818800,9.63281884765625,-0.7043276429176331,0.5363397002220154,-0.6096435189247131
1759335062361818600,9.642818603515625,-0.8448266386985779,0.18570303916931152,-0.9108000993728638
1759335062371818800,9.65281884765625,-0.9340129494667053,-0.3341432809829712,-1.274264931678772
1759335062381818600,9.662818603515625,-0.8546004891395569,-0.5387831330299377,-1.5528194904327393
1759335062391818800,9.67281884765625,-0.6591235995292664,-0.37629300355911255,-2.0512855052948
1759335062401818600,9.682818603515624,-0.5455026626586914,-0.21013765037059784,-2.539977788925171
1759335062411818800,9.69281884765625,-0.48319441080093384,-0.23457226157188416,-2.841745138168335
1759335062421818600,9.702818603515626,-0.44165557622909546,-0.2321287989616394,-3.0781500339508057
1759335062431818800,9.71281884765625,-0.5119050741195679,-0.16554448008537292,-3.338989496231079
1759335062441818600,9.722818603515625,-0.6212499737739563,-0.29138273000717163,-3.4342844486236572
1759335062451819500,9.732819580078125,-0.6798930168151855,-0.5009095072746277,-3.371976137161255
1759335062461819600,9.742819580078125,-0.7073819637298584,-0.6304129362106323,-3.145956039428711
1759335062471819500,9.752819580078125,-0.5907067060470581,-0.5528330206871033,-2.864347219467163
1759335062481819100,9.762819091796874,-0.49296826124191284,-0.5021312236785889,-2.56563401222229
1759335062491819300,9.7728193359375,-0.6139195561408997,-0.5998696684837341,-2.4996604919433594
1759335062501819100,9.782819091796876,-0.7812966704368591,-0.6298020482063293,-2.5705208778381348
1759335062511819300,9.7928193359375,-0.8619308471679688,-0.6499606370925903,-2.652376890182495
1759335062521819100,9.802819091796875,-0.9633345007896423,-1.0726794004440308,-2.4697282314300537
1759335062531819300,9.8128193359375,-0.9718865752220154,-1.528384804725647,-2.171625852584839
1759335062541819100,9.822819091796875,-0.9529497623443604,-1.910786509513855,-1.822821855545044
1759335062551818500,9.832818603515625,-0.7843509912490845,-2.112982988357544,-1.5387696027755737
1759335062561818400,9.842818359375,-0.5277875661849976,-2.079385280609131,-1.282817006111145
1759335062571818500,9.852818603515624,-0.313373863697052,-1.8698585033416748,-1.0555751323699951
1759335062581818400,9.862818359375,-0.31154128909111023,-1.4104878902435303,-0.9871582388877869
1759335062591818500,9.872818603515626,-0.46670106053352356,-0.8827002644538879,-1.0024298429489136
1759335062601818400,9.882818359375,-0.8625417351722717,-0.4202753007411957,-0.9156870245933533
1759335062611818200,9.892818359375,-1.1453723907470703,-0.5424483418464661,-0.7751879692077637
1759335062621818400,9.902818359375,-1.2620476484298706,-1.0586295127868652,-0.5815436840057373
1759335062631818200,9.912818359375,-1.1704177856445312,-1.8234328031539917,-0.41661009192466736
1759335062641818400,9.922818359375,-0.9627236127853394,-2.361604928970337,-0.3323107063770294
1759335062651819300,9.9328193359375,-0.7098253965377808,-2.688417911529541,-0.15393804013729095
1759335062661819100,9.942819091796874,-0.48197266459465027,-2.646879196166992,0.0354301854968071
1759335062671819300,9.9528193359375,-0.3445279896259308,-2.1868975162506104,0.17348572611808777
1759335062681819100,9.962819091796876,-0.29138273000717163,-1.6071864366531372,0.33047810196876526
1759335062691819300,9.9728193359375,-0.3084869384765625,-1.156978726387024,0.5216789245605469
1759335062701819100,9.982819091796875,-0.342695415019989,-0.8093964457511902,0.6896668672561646
1759335062711819300,9.9928193359375,-0.2932153046131134,-0.41172316670417786,0.9584475755691528
1759335062721819100,10.002819091796875,-0.12950342893600464,-0.1569923609495163,1.1355985403060913
1759335062731819300,10.0128193359375,0.01038470957428217,0.031154127791523933,1.2638801336288452
1759335062741819100,10.022819091796874,0.1417207419872284,0.21074850857257843,1.4098769426345825
1759335062751818200,10.032818359375,0.2272418737411499,0.4691445231437683,1.578475832939148
1759335062761818400,10.042818359375,0.18875735998153687,0.8662069439888,1.6951510906219482
1759335062771818200,10.052818359375,0.2675589919090271,1.312138557434082,1.8955148458480835
1759335062781818600,10.062818603515625,0.5253441333770752,1.747685432434082,2.13008713722229
1759335062791818800,10.07281884765625,0.788016140460968,1.9828685522079468,2.196671485900879
1759335062801818600,10.082818603515625,0.8393288254737854,2.018298864364624,1.8906279802322388
1759335062811818800,10.09281884765625,0.6969972252845764,1.6768250465393066,1.2315043210983276
1759335062821818600,10.102818603515624,0.45326200127601624,0.9914342761039734,0.4331034719944
1759335062831818800,10.11281884765625,0.10323622822761536,-0.25534167885780334,-0.7055493593215942
1759335062841818600,10.122818603515626,-0.16249015927314758,-0.779464066028595,-1.0036516189575195
1759335062851819500,10.132819580078126,-0.45753806829452515,-0.960280179977417,-1.06657075881958
1759335062861819600,10.142819580078125,-0.665232241153717,-0.9950994849205017,-0.9053022861480713
1759335062871819500,10.152819580078125,-0.6835582256317139,-0.8216137290000916,-0.5931501388549805
1759335062881819600,10.162819580078125,-0.6774495840072632,-0.6701191663742065,-0.24129177629947662
1759335062891819500,10.172819580078125,-0.7134906053543091,-0.3066543638706207,-0.14905111491680145
1759335062901819600,10.182819580078124,-0.8637634515762329,0.10873401165008545,-0.19120082259178162
1759335062911819500,10.192819580078124,-0.6963863968849182,0.2174680233001709,-0.2938261926174164
1759335062921819600,10.202819580078126,-0.5216789245605469,0.15027284622192383,-0.21868975460529327
1759335062931819500,10.212819580078126,-0.38667771220207214,0.4709770977497101,0.1411098688840866
1759335062941819600,10.222819580078125,-0.1569923609495163,0.9834930300712585,0.28038713335990906
1759335062951818800,10.23281884765625,-0.12400564551353455,0.7513642311096191,0.2028072625398636
1759335062961819000,10.24281884765625,-0.18509216606616974,0.3830125033855438,0.05314527451992035
1759335062971818800,10.25281884765625,-0.24373523890972137,0.22296582162380219,-0.1319468915462494
1759335062981819000,10.26281884765625,-0.22357667982578278,0.2742784917354584,-0.27488934993743896
1759335062991818800,10.27281884765625,-0.1417207419872284,0.7641924023628235,-0.1771509200334549
1759335063001819000,10.28281884765625,0.1771509200334549,1.5503759384155273,0.09346238523721695
1759335063011818800,10.29281884765625,0.6896668672561646,2.4196372032165527,0.6017022728919983
1759335063021819000,10.30281884765625,1.1227703094482422,3.1832187175750732,0.9999864101409912
1759335063031818800,10.31281884765625,1.348179578781128,3.5717291831970215,1.218676209449768
1759335063041819000,10.32281884765625,1.3029755353927612,3.4238996505737305,1.1734721660614014
1759335063051819500,10.332819580078125,0.9657779335975647,2.1673498153686523,0.656069278717041
1759335063061819600,10.342819580078125,0.43249258399009705,-0.10690141469240189,0.1215621829032898
1759335063071819500,10.352819580078124,0.31642818450927734,-0.7739662528038025,-0.012828170321881771
1759335063081819600,10.362819580078124,0.3995058834552765,-0.8643743395805359,-0.05742133408784866
1759335063091819500,10.372819580078126,0.626747727394104,-0.5296201705932617,-0.13072516024112701
1759335063101819600,10.382819580078126,0.8185594081878662,-0.08979719132184982,-0.12889257073402405
1759335063111819500,10.392819580078125,0.921184778213501,0.3549126982688904,-0.09896016865968704
1759335063121819600,10.402819580078125,0.9169087409973145,0.7263187766075134,0.0012217304902151227
1759335063151818800,10.43281884765625,0.6737843751907349,1.3017538785934448,0.5198463201522827
1759335063161819000,10.44281884765625,0.5723807215690613,1.2687671184539795,0.7153232097625732
1759335063171818800,10.45281884765625,0.46792277693748474,1.1325441598892212,0.9731083512306213
1759335063181819000,10.46281884765625,0.4306600093841553,1.0396926403045654,1.0793988704681396
1759335063191818800,10.47281884765625,0.4098905920982361,0.9382890462875366,1.094059705734253
1759335063201819000,10.48281884765625,0.39156460762023926,0.7751879692077637,1.0122036933898926
1759335063211818800,10.49281884765625,0.3286454975605011,0.5375614166259766,0.9358455538749695
1759335063221819000,10.50281884765625,0.2535090744495392,0.26083946228027344,0.8680394887924194
1759335063231818800,10.51281884765625,0.19792033731937408,0.04459316283464432,0.8038986921310425
1759335063241819000,10.52281884765625,0.13316862285137177,-0.17287486791610718,0.7635815739631653
1759335063251819500,10.532819580078124,0.0708603709936142,-0.3805690407752991,0.7544185519218445
1759335063261819600,10.542819580078126,0.0555887371301651,-0.4660901725292206,0.7825183868408203
1759335063271819500,10.552819580078125,0.11850785464048386,-0.38728857040405273,0.8185594081878662
1759335063281819600,10.562819580078125,0.21930062770843506,-0.2125810980796814,0.8069530129432678
1759335063291819500,10.572819580078125,0.3280346393585205,0.00733038317412138,0.7195992469787598
1759335063301819600,10.582819580078125,0.3494149148464203,0.05375614017248154,0.6261368989944458
1759335063311819800,10.59281982421875,0.3793473243713379,0.08857546001672745,0.5338962078094482
1759335063321819600,10.602819580078124,0.3995058834552765,0.03726277872920036,0.5143485069274902
1759335063331819800,10.61281982421875,0.3439171314239502,-0.09651670604944229,0.588263213634491
1759335063341819600,10.622819580078126,0.6811147332191467,-0.07941248267889023,0.7476990818977356
1759335063351818800,10.63281884765625,1.673770785331726,0.44837507605552673,0.7079927921295166
1759335063361819000,10.64281884765625,1.7550158500671387,0.8478809595108032,0.6762278079986572
1759335063371818800,10.65281884765625,1.338405728340149,0.41661009192466736,1.0054842233657837
1759335063381819000,10.66281884765625,0.9834930300712585,-0.6322455406188965,1.027475357055664
1759335063391818800,10.67281884765625,0.8710938692092896,-1.4996742010116577,0.7195992469787598
1759335063401819000,10.68281884765625,0.6310238242149353,-1.7611244916915894,0.45204028487205505
1759335063411818800,10.69281884765625,0.2938261926174164,-1.3439035415649414,0.636521577835083
1759335063421819000,10.70281884765625,0.00733038317412138,-0.7318165898323059,0.9804387092590332
1759335063431818800,10.71281884765625,-0.10323622822761536,-0.30543261766433716,1.3487904071807861
1759335063441819000,10.72281884765625,-0.04153883829712868,-0.2028072625398636,1.7495180368423462
1759335063451819500,10.732819580078125,0.15027284622192383,-0.3225368559360504,2.034792184829712
1759335063461819600,10.742819580078125,0.2382374405860901,-0.6224716901779175,2.0384573936462402
1759335063471820000,10.752820068359375,0.34086281061172485,-0.807563841342926,1.750128984451294
1759335063481820000,10.76281982421875,0.4331034719944,-0.5283984541893005,1.5900822877883911
1759335063491820000,10.772820068359374,0.3127630054950714,0.07452555745840073,1.6303993463516235
1759335063501820000,10.78281982421875,-0.07330382615327835,0.6676757335662842,1.822821855545044
1759335063511820000,10.792820068359376,-0.5302310585975647,0.9615018963813782,1.9199494123458862
1759335063521820000,10.80281982421875,-0.8313875794410706,0.9957103729248047,1.3683381080627441
1759335063531820000,10.812820068359375,-0.7324274182319641,0.9663888216018677,0.6236934065818787
1759335063541820000,10.82281982421875,-0.5082398653030396,0.9871582388877869,-0.08429940044879913
1759335063551819000,10.832819091796875,-0.26572638750076294,0.8668177723884583,-0.5803219676017761
1759335063561819100,10.842819091796875,-0.09346238523721695,0.5076290369033813,-0.9773843884468079
1759335063581819100,10.862819091796876,0.07269296050071716,-0.49357911944389343,-1.5968017578125
1759335063591819000,10.872819091796876,0.15821409225463867,-0.7422012686729431,-1.976149082183838
1759335063601819100,10.882819091796875,0.24129177629947662,-0.6682865619659424,-2.216219186782837
1759335063611819000,10.892819091796875,0.1875356286764145,-0.5442809462547302,-2.216219186782837
1759335063621819100,10.902819091796875,0.20525072515010834,-0.4954117238521576,-2.1093177795410156
1759335063631819000,10.912819091796875,0.18814650177955627,-0.5894849896430969,-2.071444034576416
1759335063641819100,10.922819091796875,-0.013439035043120384,-0.5797111392021179,-1.7244726419448853
1759335063651820000,10.932820068359375,-0.1875356286764145,0.06963863968849182,-1.3848315477371216
1759335063661819600,10.942819580078124,-0.413555771112442,0.6279694437980652,-1.4978415966033936
1759335063671819500,10.952819580078126,-0.607810914516449,0.9266825914382935,-1.5864170789718628
1759335063681819600,10.962819580078126,-0.7409795522689819,1.0659598112106323,-1.5644259452819824
1759335063691819500,10.972819580078125,-0.9737191796302795,1.0329731702804565,-1.453248381614685
1759335063701819600,10.982819580078125,-1.2131783962249756,0.9492846131324768,-1.282817006111145
1759335063711819500,10.992819580078125,-1.2705997228622437,0.8478809595108032,-1.205847978591919
1759335063721819600,11.002819580078125,-1.218676209449768,0.6139195561408997,-1.2107349634170532
1759335063731819500,11.012819580078125,-1.2027937173843384,0.40744712948799133,-1.1930198669433594
1759335063741819600,11.022819580078124,-1.186300277709961,0.19425514340400696,-1.1527026891708374
1759335063751818800,11.03281884765625,-1.1612548828125,-0.15760323405265808,-0.8943067193031311
1759335063761818600,11.042818603515625,-1.1001683473587036,-0.25045475363731384,-0.618195652961731
1759335063771818500,11.052818603515625,-0.8936958312988281,-0.23640485107898712,-0.3836233615875244
1759335063781818400,11.062818359375,-0.6163630485534668,0.001832595793530345,-0.192422553896904
1759335063791818500,11.072818603515625,-0.39095374941825867,0.2883284091949463,-0.12950342893600464
1759335063801818400,11.082818359375,-0.32009339332580566,0.5742133259773254,-0.21807889640331268
1759335063811818500,11.092818603515624,-0.3585779070854187,0.8417723178863525,-0.3530801236629486
1759335063821818400,11.102818359375,-0.4648684561252594,0.912021815776825,-0.5027421116828918
1759335063831818500,11.112818603515626,-0.5027421116828918,0.9370672702789307,-0.5656611919403076
1759335063841818400,11.122818359375,-0.4434881806373596,0.9902125597000122,-0.49296826124191284
1759335063851819300,11.1328193359375,-0.5070181488990784,1.0952813625335693,-0.35246923565864563
1759335063861819100,11.142819091796875,-0.7415903806686401,1.3964380025863647,-0.0959058403968811
1759335063871819300,11.1528193359375,-0.8881980776786804,1.2431107759475708,0.001832595793530345
1759335063881819100,11.162819091796875,-1.0598511695861816,0.6133087277412415,0.08857546001672745
1759335063891818800,11.17281884765625,-1.086118459701538,-0.11178833991289139,0.23335053026676178
1759335063901819000,11.18281884765625,-0.9517280459403992,-0.9108000993728638,0.35124751925468445
1759335063911818800,11.19281884765625,-0.8912523984909058,-1.2718214988708496,0.523511528968811
1759335063921819000,11.20281884765625,-0.8723155856132507,-1.379333734512329,0.6707300543785095
1759335063931818800,11.21281884765625,-0.7898487448692322,-1.2864822149276733,0.8448266386985779
1759335063941819000,11.22281884765625,-0.7806857824325562,-0.9572258591651917,0.9077457785606384
1759335063951818000,11.23281787109375,-0.6829473376274109,-0.3585779070854187,0.7855727076530457
1759335063961818400,11.242818359375,-0.40194934606552124,0.9266825914382935,0.4599815309047699
1759335063971818200,11.252818359375,0.37751471996307373,3.8814377784729004,0.13988813757896423
1759335063981818400,11.262818359375,0.8210029006004333,4.605924129486084,-0.2926044464111328
1759335063991818200,11.272818359375,1.1252137422561646,4.765359878540039,-0.8607091307640076
1759335064001818400,11.282818359375,1.3231340646743774,4.999320983886719,-1.0855075120925903
1759335064011818200,11.292818359375,1.474017858505249,4.905247688293457,-0.9169087409973145
1759335064021818400,11.302818359375,1.6865988969802856,3.724445343017578,-0.8307767510414124
1759335064031818200,11.312818359375,1.7458528280258179,2.8955013751983643,-0.7312057018280029
1759335064041818400,11.322818359375,1.7189748287200928,2.7348437309265137,-0.5974262356758118
1759335064051819300,11.3328193359375,1.8136589527130127,2.9290988445281982,-0.607810914516449
1759335064061819100,11.342819091796875,1.7507398128509521,3.1367931365966797,-0.5155702829360962
1759335064071819300,11.3528193359375,1.5149458646774292,2.635272741317749,-0.08735372871160507
1759335064081819100,11.362819091796876,1.2705997228622437,2.317011833190918,0.4862487316131592
1759335064091819300,11.3728193359375,0.6230825781822205,0.5681046843528748,0.8008443117141724
1759335064101819100,11.382819091796875,0.28955012559890747,-0.33658674359321594,1.0543533563613892
1759335064111819300,11.3928193359375,-0.02626720629632473,0.16310101747512817,1.0458012819290161
1759335064121819100,11.402819091796875,-0.28099802136421204,0.4709770977497101,1.567480206489563
1759335064131819300,11.4128193359375,-0.36224308609962463,0.7635815739631653,1.7299703359603882
1759335064141819100,11.422819091796875,-0.3494149148464203,0.8509352803230286,2.052507162094116
1759335064151818200,11.432818359375,-0.2767219543457031,0.8026769161224365,2.4856107234954834
1759335064161818400,11.442818359375,-0.17287486791610718,0.9706648588180542,2.8539624214172363
1759335064171818200,11.452818359375,0.030543262138962746,1.1020009517669678,3.173444986343384
1759335064181818400,11.462818359375,0.28588494658470154,0.4434881806373596,3.9205331802368164
1759335064191818800,11.47281884765625,0.39584067463874817,0.4141666293144226,4.152050971984863
1759335064201819000,11.48281884765625,1.1252137422561646,1.330464482307434,4.701219081878662
1759335064211818800,11.49281884765625,1.5308283567428589,2.543642997741699,4.695110321044922
1759335064221819000,11.50281884765625,1.7922786474227905,3.260798692703247,4.517959117889404
1759335064231818800,11.51281884765625,1.9694294929504395,3.456275463104248,4.434270858764648
1759335064241819000,11.52281884765625,2.313957452774048,3.232088088989258,4.495968341827393
1759335064251819500,11.532819580078124,2.73301100730896,3.5723400115966797,4.257119655609131
1759335064261819600,11.542819580078126,3.1508429050445557,4.949230194091797,3.4293975830078125
1759335064271819500,11.552819580078125,3.313943862915039,7.7512688636779785,1.5894713401794434
1759335064281819600,11.562819580078125,3.087923765182495,10.151358604431152,-0.6731734871864319
1759335064291819500,11.572819580078125,2.4391849040985107,10.39509391784668,-2.2931880950927734
1759335064301819600,11.582819580078125,1.359786033630371,8.601593971252441,-2.847242832183838
1759335064311818800,11.59281884765625,0.2272418737411499,5.272988796234131,-2.5143213272094727
1759335064321818600,11.602818603515624,-1.5900822877883911,0.6896668672561646,-1.9810359477996826
1759335064341818600,11.622818603515626,-3.497814416885376,0.5027421116828918,-1.8209892511367798
1759335064351817700,11.632817626953125,-4.120896816253662,1.19912850856781,-1.1850786209106445
1759335064361817600,11.642817626953125,-4.682892799377441,1.4648548364639282,-0.6957755088806152
1759335064371817700,11.652817626953125,-5.050633907318115,1.7660114765167236,-0.3677408695220947
1759335064381817600,11.662817626953125,-5.6737165451049805,2.5424211025238037,0.24007004499435425
1759335064391817700,11.672817626953124,-6.364604949951172,3.29134202003479,1.0812314748764038
1759335064401817600,11.682817626953126,-6.84474515914917,3.593109369277954,1.9077321290969849
1759335064411817700,11.692817626953126,-6.930877208709717,3.4929275512695312,2.657874584197998
1759335064421817600,11.702817626953125,-6.681033134460449,3.3011157512664795,3.4636058807373047
1759335064431817700,11.712817626953125,-6.137973785400391,3.74582576751709,4.75558614730835
1759335064441817600,11.722817626953125,-5.671883583068848,4.217413425445557,5.610186576843262
1759335064451818500,11.732818603515625,-5.1770830154418945,4.4428229331970215,6.269920825958252
1759335064461818600,11.742818603515625,-4.687169075012207,4.5491132736206055,6.735400199890137
1759335064471818500,11.752818603515625,-4.270558834075928,4.488637924194336,7.09092378616333
1759335064481818600,11.762818603515624,-4.0268235206604,4.396397113800049,7.454388618469238
1759335064491818500,11.772818603515624,-3.8655552864074707,4.21619176864624,7.819075107574463
1759335064501818600,11.782818603515626,-3.710395574569702,3.939470052719116,8.156272888183594
1759335064511817700,11.792817626953125,-3.684739112854004,3.645643711090088,8.474533081054688
1759335064521817600,11.802817626953125,-3.9095375537872314,3.0085113048553467,8.570439338684082
1759335064531817700,11.812817626953125,-4.265061378479004,1.8570303916931152,8.310821533203125
1759335064551817700,11.832817626953124,-5.276042938232422,-1.0097602605819702,6.64315938949585
1759335064561817600,11.842817626953124,-5.816658973693848,-1.4257594347000122,5.706703186035156
1759335064571817700,11.852817626953126,-6.266255855560303,-1.4465289115905762,4.665788650512695
1759335064581817600,11.862817626953126,-6.49777364730835,-1.1056660413742065,3.5833356380462646
1759335064591817700,11.872817626953125,-6.802595138549805,-0.1820378452539444,2.7085764408111572
1759335064601817600,11.882817626953125,-7.117190837860107,1.2986994981765747,2.0781636238098145
1759335064611818500,11.892818603515625,-6.9889092445373535,2.6175575256347656,1.4801265001296997
1759335064621818600,11.902818603515625,-6.536869049072266,3.9577958583831787,0.9993755221366882
1759335064631818800,11.91281884765625,-5.974262237548828,5.3890533447265625,0.7764097452163696
1759335064641818600,11.922818603515625,-5.402492046356201,6.448293685913086,0.7476990818977356
1759335064651819500,11.932819580078124,-4.939456462860107,7.103752136230469,0.940121591091156
1759335064661819400,11.9428193359375,-4.5100178718566895,6.955922603607178,1.4324790239334106
1759335064671819500,11.952819580078126,-4.3004913330078125,6.493497371673584,1.7647897005081177
1759335064681819400,11.9628193359375,-4.043928146362305,6.300464153289795,2.063502788543701
1759335064701819400,11.9828193359375,-3.765984296798706,6.8856730461120605,2.0561723709106445
1759335064711818800,11.99281884765625,-3.612046241760254,5.097670555114746,1.3115277290344238
1759335064721818600,12.002818603515625,-3.640756845474243,2.737898111343384,0.5064072608947754
1759335064731818800,12.01281884765625,-3.752545118331909,1.19607412815094,-0.22968533635139465
1759335064741818600,12.022818603515624,-3.583946466445923,0.8949176073074341,-0.7538077235221863
1759335064751817700,12.032817626953126,-2.9852983951568604,0.8448266386985779,-1.2101240158081055
1759335064761817900,12.04281787109375,-1.9468275308609009,1.014647126197815,-1.4581353664398193
1759335064771817700,12.052817626953125,-0.7177666425704956,1.2919800281524658,-1.5265522003173828
1759335064781817900,12.06281787109375,1.2040153741836548,0.8045095205307007,-1.1832460165023804
1759335064791817700,12.072817626953125,1.8979582786560059,-0.182648703455925,-0.675616979598999
1759335064801817900,12.08281787109375,2.5033257007598877,-0.7324274182319641,0.045204028487205505
1759335064811818500,12.092818603515624,3.048828363418579,-0.6285803318023682,0.7684684991836548
1759335064821818600,12.102818603515624,3.4733798503875732,-0.6035348773002625,1.4917329549789429
1759335064831818500,12.112818603515626,3.7647624015808105,-0.45692721009254456,1.6517796516418457
1759335064841818600,12.122818603515626,3.8087449073791504,0.0861319974064827,1.4721852540969849
1759335064851818800,12.13281884765625,3.3573153018951416,0.3640756905078888,1.1484266519546509
1759335064861818600,12.142818603515625,2.546086311340332,0.1569923609495163,0.7733554244041443
1759335064871818800,12.15281884765625,1.577254056930542,-0.08124507963657379,0.3341432809829712
1759335064881818600,12.162818603515625,0.6774495840072632,-0.009162978269159794,-0.06719517707824707
1759335064891818800,12.17281884765625,-0.18020524084568024,-0.1417207419872284,-0.24190263450145721
1759335064901818600,12.182818603515624,-0.2724458873271942,-1.0971139669418335,-0.294437050819397
1759335064911818800,12.19281884765625,-0.1258382350206375,-2.6285531520843506,-0.3066543638706207
1759335064921818600,12.202818603515626,0.11789698898792267,-4.0854668617248535,-0.20036379992961884
1759335064931818800,12.21281884765625,0.3738495409488678,-5.211902141571045,-0.17287486791610718
1759335064941818600,12.222818603515625,0.588874101638794,-5.9754838943481445,-0.20891591906547546
1759335064951818000,12.23281787109375,0.7067710757255554,-6.454401969909668,-0.2620611786842346
1759335064961817900,12.24281787109375,0.7611380815505981,-6.520375728607178,-0.2822197377681732
1759335064971818000,12.25281787109375,0.8228355050086975,-6.29863166809082,-0.20525072515010834
1759335064981817900,12.26281787109375,0.8106181621551514,-5.666996955871582,-0.08857546001672745
1759335064991818000,12.27281787109375,1.0299187898635864,-5.584529876708984,0.37568211555480957
1759335065001817900,12.28281787109375,1.284038782119751,-5.625458240509033,1.0122036933898926
1759335065011818800,12.29281884765625,1.529606580734253,-5.022533893585205,1.9938641786575317
1759335065021818600,12.302818603515625,1.431868076324463,-3.3402111530303955,2.5802948474884033
1759335065031818800,12.31281884765625,0.9706648588180542,-1.6493362188339233,2.8264734745025635
1759335065041818600,12.322818603515625,0.394008070230484,-1.1814134120941162,2.6419920921325684
1759335065071819500,12.352819580078124,-0.44837507605552673,-1.1905763149261475,0.675006091594696
1759335065081819600,12.362819580078124,-0.3494149148464203,-0.8405506014823914,0.11850785464048386
1759335065091819500,12.372819580078126,-0.10445795953273773,-0.5277875661849976,-0.49235737323760986
1759335065121819000,12.40281884765625,0.5424483418464661,0.4306600093841553,-1.718363881111145
1759335065131818800,12.41281884765625,0.40256020426750183,0.6976081132888794,-1.6157386302947998
1759335065141819000,12.42281884765625,0.19364428520202637,0.9187413454055786,-1.4245377779006958
1759335065151818800,12.43281884765625,-0.009162978269159794,0.9804387092590332,-1.1966849565505981
1759335065161819000,12.44281884765625,-0.11056660860776901,0.9053022861480713,-0.8918632864952087
1759335065171818800,12.45281884765625,-0.11850785464048386,0.8026769161224365,-0.5125159621238708
1759335065181819000,12.46281884765625,-0.12278391420841217,0.7623597979545593,0.02932153269648552
1759335065191818800,12.47281884765625,-0.21563543379306793,0.9034696817398071,0.44776421785354614
1759335065201819000,12.48281884765625,-0.33719760179519653,1.2095131874084473,0.6383541822433472
1759335065211818800,12.49281884765625,-0.3585779070854187,1.5363260507583618,0.6444628238677979
1759335065221818600,12.502818603515625,-0.2919935882091522,1.7006487846374512,0.4550946056842804
1759335065231818800,12.51281884765625,-0.09651670604944229,1.6071864366531372,-0.013439035043120384
1759335065241818600,12.522818603515624,0.015882495790719986,1.3555099964141846,-0.24129177629947662
1759335065251819500,12.532819580078124,0.10201449692249298,0.9059131741523743,-0.26145032048225403
1759335065261819600,12.542819580078126,0.17043140530586243,0.5619960427284241,-0.012828170321881771
1759335065271819500,12.552819580078125,0.27550023794174194,0.15271630883216858,0.32070425152778625
1759335065281819600,12.562819580078125,0.4349360466003418,-0.36651915311813354,0.6359107494354248
1759335065291819500,12.572819580078125,0.5253441333770752,-0.7623597979545593,0.8118399381637573
1759335065301819400,12.5828193359375,0.49724429845809937,-0.8943067193031311,0.8234463334083557
1759335065311819500,12.592819580078125,0.36651915311813354,-0.675006091594696,0.7000515460968018
1759335065321819400,12.6028193359375,0.20097467303276062,-0.4398229718208313,0.4709770977497101
1759335065331819500,12.612819580078124,0.04214970022439957,-0.31642818450927734,0.182648703455925
1759335065341819400,12.6228193359375,-0.05314527451992035,-0.24190263450145721,-0.0403171069920063
1759335065351818500,12.632818603515625,-0.04948008432984352,-0.2125810980796814,-0.2168571650981903
1759335065361818600,12.642818603515625,0.014049900695681572,-0.251676470041275,-0.22846360504627228
1759335065371818500,12.652818603515625,0.010995574295520782,-0.30970868468284607,-0.23273965716362
1759335065381818600,12.662818603515625,-0.09407325088977814,-0.35246923565864563,-0.2571742534637451
1759335065401818600,12.682818603515624,-0.22540926933288574,-0.4550946056842804,-0.14294247329235077
1759335065411819500,12.692819580078124,-0.20097467303276062,-0.5021312236785889,-0.01771509274840355
1759335065421819400,12.7028193359375,-0.1466076523065567,-0.5222898125648499,0.11178833991289139
1759335065431819500,12.712819580078126,-0.07880161702632904,-0.4917465150356293,0.2620611786842346
1759335065441819400,12.7228193359375,-0.005497787147760391,-0.39584067463874817,0.37262779474258423
1759335065461819400,12.7428193359375,0.18814650177955627,-0.24678955972194672,0.4911356568336487
1759335065471819500,12.752819580078125,0.21563543379306793,-0.3072652220726013,0.4813618063926697
1759335065481819400,12.7628193359375,0.21930062770843506,-0.44226643443107605,0.4331034719944
1759335065501819400,12.7828193359375,0.30115658044815063,-0.8093964457511902,0.26939156651496887
1759335065511819500,12.792819580078126,0.3549126982688904,-0.9859365224838257,0.1466076523065567
