time,seconds_elapsed,z,y,x
1759335052789451800,0.07045166015625,8.008903503417969,-3.8786067962646484,3.35667085647583
1759335052819451600,0.10045166015625,8.126219749450684,-4.041412353515625,4.019864559173584
1759335052829451800,0.11045166015625,8.078335762023926,-3.9169139862060547,4.031835556030273
1759335052839451600,0.12045166015625,7.93707799911499,-3.73016619682312,4.043806552886963
1759335052849451800,0.13045166015625,7.771877765655518,-3.6367924213409424,4.137180328369141
1759335052879451600,0.16045166015625,7.597101211547852,-3.84269380569458,5.054459095001221
1759335052889451800,0.17045166015625,7.683292388916016,-3.8594532012939453,5.222053050994873
1759335052899451600,0.18045166015625,7.853281021118164,-3.845088005065918,5.272331237792969
1759335052909451800,0.19045166015625,7.9969329833984375,-3.794809579849243,5.274725437164307
1759335052919452000,0.200451904296875,8.116642951965332,-3.756502389907837,5.217264652252197
1759335052929451800,0.21045166015625,8.190863609313965,-3.7181951999664307,5.135861873626709
1759335052939452000,0.220451904296875,8.210017204284668,-3.670311212539673,5.035305500030518
1759335052949450200,0.2304501953125,8.157344818115234,-3.6320040225982666,4.908412933349609
1759335052959450400,0.240450439453125,8.085518836975098,-3.5889084339141846,4.771644115447998
1759335052969450200,0.2504501953125,8.01848030090332,-3.5458126068115234,4.661510944366455
1759335052979450400,0.260450439453125,7.939472198486328,-3.514688014984131,4.637568473815918
1759335052989450200,0.2704501953125,7.8221564292907715,-3.5170822143554688,4.675876140594482
1759335052999450400,0.280450439453125,7.750329971313477,-3.5482068061828613,4.738125324249268
1759335053009450200,0.2904501953125,7.776666164398193,-3.598485231399536,4.836287498474121
1759335053019450400,0.300450439453125,7.862857818603516,-3.6942532062530518,4.8722004890441895
1759335053029450200,0.3104501953125,8.030451774597168,-3.801992416381836,4.853046894073486
1759335053039450400,0.320450439453125,8.12861442565918,-3.8762125968933105,4.623203277587891
1759335053049450200,0.3304501953125,8.135796546936035,-3.9600095748901367,4.446032524108887
1759335053059450400,0.340450439453125,8.109460830688477,-4.19224739074707,4.3861775398254395
1759335053069450200,0.3504501953125,7.970596790313721,-4.177882194519043,4.381389141082764
1759335053079450400,0.360450439453125,7.913136005401611,-4.23773717880249,4.505887508392334
1759335053089450200,0.3704501953125,7.870040416717529,-4.2544965744018555,4.644751071929932
1759335053099450400,0.380450439453125,7.848492622375488,-4.273650169372559,4.745307922363281
1759335053109450200,0.3904501953125,7.862857818603516,-4.311957359313965,4.738125324249268
1759335053119450400,0.400450439453125,7.917924404144287,-4.335899353027344,4.572925090789795
1759335053129450200,0.4104501953125,7.9945387840271,-4.4077253341674805,4.321534156799316
1759335053139450400,0.420450439453125,8.032846450805664,-4.438849925994873,4.000710964202881
1759335053149449500,0.430449462890625,8.023268699645996,-4.5154643058776855,3.689464807510376
1759335053159449300,0.440449462890625,7.623437404632568,-5.4351372718811035,2.8443117141723633
1759335053169449500,0.450449462890625,7.290643215179443,-6.00495719909668,3.404554843902588
1759335053179449300,0.460449462890625,7.0224928855896,-6.596324920654297,3.6966474056243896
1759335053189449500,0.470449462890625,6.70645809173584,-6.795043468475342,3.8786067962646484
1759335053199449300,0.480449462890625,6.593930721282959,-6.883629322052002,4.110844135284424
1759335053209449500,0.490449462890625,6.476614952087402,-7.182904243469238,4.790797710418701
1759335053219449300,0.500449462890625,6.376058578491211,-7.625831604003906,5.957073211669922
1759335053229449500,0.510449462890625,5.724835395812988,-7.941866397857666,7.714416980743408
1759335053239449300,0.520449462890625,4.508281707763672,-7.93707799911499,9.399934768676758
1759335053249450200,0.5304501953125,2.9233202934265137,-7.218817234039307,10.374375343322754
1759335053259450000,0.5404501953125,1.2066776752471924,-6.864475727081299,11.11418342590332
1759335053269450200,0.5504501953125,-1.4053963422775269,-5.753565788269043,11.842020988464355
1759335053279450000,0.5604501953125,-3.84269380569458,-5.076006889343262,12.387898445129395
1759335053289450200,0.5704501953125,-6.263530731201172,-4.424484729766846,12.330437660217285
1759335053299450000,0.5804501953125,-7.597101211547852,-3.8379054069519043,12.055105209350586
1759335053309449500,0.590449462890625,-7.649773597717285,-3.737348794937134,11.660061836242676
1759335053319449300,0.600449462890625,-6.672939300537109,-5.846940040588379,12.064682006835938
1759335053329449500,0.610449462890625,-2.6168625354766846,-4.699818134307861,11.676820755004883
1759335053339449300,0.620449462890625,0.38307225704193115,-4.807557106018066,11.279383659362793
1759335053349448400,0.630448486328125,2.0877439975738525,-4.913201332092285,11.315296173095703
1759335053359448600,0.640448486328125,2.518700122833252,-4.879383087158203,11.437400817871094
1759335053369448400,0.650448486328125,2.078166961669922,-4.434061527252197,10.963348388671875
1759335053379448600,0.660448486328125,1.0797849893569946,-4.345476150512695,10.247482299804688
1759335053389448400,0.670448486328125,0.08858546614646912,-3.9815573692321777,9.58668327331543
1759335053399448600,0.680448486328125,-0.5003881454467773,-3.7493197917938232,9.174880027770996
1759335053409448400,0.690448486328125,-0.4189853072166443,-4.256890773773193,9.464578628540039
1759335053419448600,0.700448486328125,-0.1149216815829277,-4.422090530395508,9.29458999633789
1759335053429448400,0.710448486328125,0.15322890877723694,-4.405331134796143,9.014469146728516
1759335053439448600,0.720448486328125,0.6584054827690125,-4.14915132522583,8.518868446350098
1759335053449449500,0.730449462890625,0.7805097699165344,-4.1180267333984375,8.791808128356934
1759335053459449300,0.740449462890625,0.22744916379451752,-3.825934410095215,9.177274703979492
1759335053469449500,0.750449462890625,0.44771572947502136,-3.6583402156829834,9.83568000793457
1759335053479449300,0.760449462890625,0.933738648891449,-3.265691041946411,9.684844970703125
1759335053489449500,0.770449462890625,0.304063618183136,-3.0597896575927734,9.189245223999023
1759335053499449300,0.780449462890625,-0.3280056416988373,-1.86508309841156,8.152556419372559
1759335053509449700,0.79044970703125,-0.7565677165985107,-1.8626888990402222,8.408735275268555
1759335053519449900,0.800449951171875,-0.9361328482627869,-2.454056739807129,10.510845184326172
1759335053529449700,0.81044970703125,-0.19393034279346466,-2.367865562438965,11.731887817382812
1759335053539449900,0.820449951171875,0.8331822156906128,-2.8802247047424316,12.919411659240723
1759335053549449000,0.830448974609375,0.7110779285430908,-1.4963760375976562,11.322479248046875
1759335053559449000,0.840448974609375,-0.8762778043746948,-1.6879122257232666,9.25867748260498
1759335053569449000,0.850448974609375,-0.6991068720817566,-1.7908629179000854,7.810185432434082
1759335053579449000,0.860448974609375,-0.11013327538967133,-1.742978811264038,6.795043468475342
1759335053589449000,0.870448974609375,-0.9097966551780701,-2.300827741622925,6.462249755859375
1759335053599449000,0.880448974609375,-0.4884171485900879,-2.1763293743133545,6.845322132110596
1759335053609449700,0.89044970703125,0.7589619159698486,-2.140416383743286,7.927501201629639
1759335053619449900,0.900449951171875,1.886630892753601,-1.946485996246338,8.727164268493652
1759335053629449700,0.91044970703125,2.0590133666992188,-1.4317326545715332,7.920318603515625
1759335053639449900,0.920449951171875,1.7310078144073486,-1.1994950771331787,6.708852291107178
1759335053649450800,0.93045068359375,1.3263877630233765,-0.9552865028381348,4.592078685760498
1759335053659450600,0.94045068359375,0.6440402865409851,-0.8762778043746948,3.31118106842041
1759335053669450800,0.95045068359375,-0.10295066982507706,-1.6974890232086182,3.622427225112915
1759335053679450600,0.96045068359375,-0.6368576288223267,-2.367865562438965,4.041412353515625
1759335053689450800,0.97045068359375,-1.3048399686813354,-3.1316158771514893,5.253177642822266
1759335053699450600,0.98045068359375,-1.3192051649093628,-2.983175277709961,6.021716594696045
1759335053709450800,0.99045068359375,-1.8555063009262085,-1.5083470344543457,5.799055576324463
1759335053719450600,1.00045068359375,-1.8291701078414917,-1.623268723487854,6.902782917022705
1759335053729450800,1.01045068359375,-1.4939818382263184,-0.8810662031173706,9.337685585021973
1759335053739450600,1.02045068359375,-0.8954314589500427,-0.12210428714752197,10.8412446975708
1759335053749449700,1.03044970703125,0.7326257228851318,-0.20350714027881622,11.832444190979004
1759335053759449900,1.040449951171875,2.2409727573394775,0.3758896589279175,12.615347862243652
1759335053769449700,1.05044970703125,2.427720546722412,-0.09816227108240128,13.151649475097656
1759335053779449900,1.060449951171875,2.655169725418091,-0.4620809257030487,12.59380054473877
1759335053789449700,1.07044970703125,1.0845733880996704,-1.659181833267212,12.363956451416016
1759335053799449900,1.080449951171875,-0.19871874153614044,-3.1531636714935303,11.626543045043945
1759335053809449500,1.090449462890625,-1.4101848602294922,-3.8283286094665527,10.257059097290039
1759335053819449300,1.100449462890625,-1.2258312702178955,-4.687847137451172,9.421483039855957
1759335053829449200,1.11044921875,-1.359906554222107,-4.757278919219971,8.638579368591309
1759335053839449300,1.120449462890625,-1.335964560508728,-5.437531471252441,6.8501105308532715
1759335053849450200,1.1304501953125,-1.259350061416626,-5.420772075653076,5.935525417327881
1759335053859450000,1.1404501953125,-1.5490485429763794,-3.07415509223938,5.289090633392334
1759335053869450200,1.1504501953125,-0.9433154463768005,-2.6671407222747803,5.140650272369385
1759335053879450000,1.1604501953125,0.7015010714530945,-2.9017724990844727,5.193322658538818
1759335053889450200,1.1704501953125,2.3127987384796143,-3.7181951999664307,5.717652797698975
1759335053899450000,1.1804501953125,1.9177556037902832,-2.8107926845550537,6.139032363891602
1759335053909450200,1.1904501953125,-0.20111294090747833,-2.9664158821105957,8.119037628173828
1759335053919450400,1.200450439453125,-1.764526605606079,-3.248931646347046,11.540351867675781
1759335053929450200,1.2104501953125,-2.913743495941162,-2.786850690841675,13.434165000915527
1759335053939450400,1.220450439453125,-3.4620156288146973,-3.4404678344726562,13.972860336303711
1759335053949449500,1.230449462890625,-3.3279404640197754,-1.3694833517074585,11.581052780151367
1759335053959449300,1.240449462890625,-4.19224739074707,-0.3016694188117981,8.425495147705078
1759335053969449200,1.25044921875,-4.3622355461120605,-1.072602391242981,6.838139533996582
1759335053979449000,1.260448974609375,-0.4908113479614258,-3.045424461364746,6.579565525054932
1759335053989449200,1.27044921875,1.946485996246338,-5.602731227874756,6.282684326171875
1759335053999449000,1.280448974609375,3.9815573692321777,-7.716811180114746,5.997774600982666
1759335054009449200,1.29044921875,4.623203277587891,-8.74152946472168,5.147832870483398
1759335054019449000,1.300448974609375,5.51893424987793,-9.071929931640625,5.499780654907227
1759335054029449200,1.31044921875,4.213795185089111,-8.952219009399414,5.363311290740967
1759335054039449000,1.320448974609375,-0.12928688526153564,-8.669703483581543,6.909965515136719
1759335054049450000,1.330449951171875,-4.309563159942627,-7.671321392059326,8.52365779876709
1759335054059450000,1.3404501953125,-4.486733913421631,-7.345710277557373,8.415918350219727
1759335054069450000,1.350449951171875,0.26096799969673157,-10.029610633850098,8.284236907958984
1759335054079450000,1.3604501953125,-0.42856210470199585,-9.967360496520996,10.259453773498535
1759335054089450000,1.370449951171875,-1.7908629179000854,-9.014469146728516,10.474931716918945
1759335054099450000,1.3804501953125,-0.49320554733276367,-8.700828552246094,9.29458999633789
1759335054109450000,1.390449951171875,0.40701428055763245,-9.684844970703125,9.34965705871582
1759335054119450000,1.4004501953125,0.43095630407333374,-9.495702743530273,8.583512306213379
1759335054129450000,1.410449951171875,0.08140286058187485,-9.938630104064941,7.922712802886963
1759335054139450000,1.4204501953125,2.5977089405059814,-9.87159252166748,5.775113582611084
1759335054149449200,1.43044921875,1.2449848651885986,-9.49809741973877,5.296273231506348
1759335054159449000,1.440448974609375,1.0869675874710083,-9.555558204650879,5.633855819702148
1759335054169449200,1.45044921875,-0.07900865375995636,-9.368810653686523,7.944260597229004
1759335054179449000,1.460448974609375,0.0454898327589035,-9.237129211425781,10.125378608703613
1759335054191818500,1.472818603515625,1.6615760326385498,-9.699210166931152,11.320084571838379
1759335054201818600,1.482818603515625,0.849941611289978,-9.138967514038086,12.30170726776123
1759335054211818500,1.492818603515625,0.07900865375995636,-8.947430610656738,13.089400291442871
1759335054221818600,1.502818603515625,0.35434186458587646,-8.674491882324219,12.167632102966309
1759335054231818500,1.512818603515625,0.7948749661445618,-8.236352920532227,11.56429386138916
1759335054241818600,1.522818603515625,1.5825673341751099,-7.819762229919434,12.428600311279297
1759335054251819500,1.532819580078125,-0.4141969084739685,-6.972214698791504,13.070246696472168
1759335054261819400,1.5428193359375,-0.5267243981361389,-6.646603107452393,12.890681266784668
1759335054271819800,1.55281982421875,-0.26815059781074524,-6.481403350830078,12.033556938171387
1759335054281819600,1.562819580078125,-0.6272808313369751,-6.402394771575928,10.951377868652344
1759335054291819800,1.57281982421875,-0.9528923034667969,-6.505345344543457,9.826103210449219
1759335054301819600,1.582819580078125,-0.40701428055763245,-5.339369297027588,9.263465881347656
1759335054311818800,1.59281884765625,0.07900865375995636,-4.838681697845459,8.521263122558594
1759335054321819000,1.60281884765625,0.8044517636299133,-5.107131481170654,8.061576843261719
1759335054331818800,1.61281884765625,1.9297266006469727,-4.910807132720947,8.384793281555176
1759335054341819000,1.62281884765625,3.1435868740081787,-4.73573112487793,9.182063102722168
1759335054351818000,1.63281787109375,4.704606533050537,-3.9217023849487305,9.682451248168945
1759335054361817900,1.64281787109375,5.186140060424805,-3.5458126068115234,9.536404609680176
1759335054371818000,1.65281787109375,0.8164227604866028,-2.2840683460235596,6.962637901306152
1759335054381817900,1.66281787109375,-4.711789131164551,-1.5394717454910278,2.9544448852539062
1759335054391818000,1.67281787109375,-3.8379054069519043,-3.825934410095215,2.0590133666992188
1759335054401817900,1.68281787109375,1.0893617868423462,-3.7684733867645264,4.108449935913086
1759335054411818000,1.69281787109375,4.091690540313721,-3.2561142444610596,5.5668182373046875
1759335054421817900,1.70281787109375,3.2130186557769775,-3.861847400665283,4.829104900360107
1759335054431818000,1.71281787109375,2.0685901641845703,-4.094084739685059,3.936067581176758
1759335054441817900,1.72281787109375,0.9169792532920837,-4.570530891418457,4.548983097076416
1759335054451818800,1.73281884765625,0.828393816947937,-4.6950297355651855,4.841075897216797
1759335054461819000,1.74281884765625,0.5410895943641663,-4.944325923919678,5.516540050506592
1759335054471818800,1.75281884765625,0.5315127968788147,-4.841075897216797,7.029675483703613
1759335054481819000,1.76281884765625,1.2880805730819702,-4.786009311676025,7.901165008544922
1759335054501819000,1.78281884765625,1.7046716213226318,-3.0526070594787598,10.118195533752441
1759335054511818000,1.79281787109375,2.070984363555908,-2.6216509342193604,9.993697166442871
1759335054521817900,1.80281787109375,2.406172752380371,-1.5682021379470825,10.417470932006836
1759335054531818000,1.81281787109375,2.5306711196899414,-1.7357962131500244,9.165303230285645
1759335054541817900,1.82281787109375,2.9281086921691895,-1.5059528350830078,8.056788444519043
1759335054551817000,1.83281689453125,3.5051112174987793,-2.322375535964966,7.764695167541504
1759335054561817000,1.842817138671875,2.9975404739379883,-2.248155355453491,8.210017204284668
1759335054571817000,1.85281689453125,2.4636335372924805,-2.22660756111145,8.011298179626465
1759335054581817000,1.862817138671875,2.1308395862579346,-2.3319525718688965,7.989750385284424
1759335054591817000,1.87281689453125,1.601720929145813,-2.1332337856292725,7.613860607147217
1759335054601817000,1.882817138671875,2.2457611560821533,-1.2880805730819702,7.206846237182617
1759335054611818000,1.89281787109375,3.268085241317749,-2.011129379272461,6.467038154602051
1759335054621817900,1.90281787109375,3.294421434402466,-1.8124107122421265,6.665756702423096
1759335054631818000,1.91281787109375,3.246537446975708,-2.365471363067627,8.135796546936035
1759335054641817900,1.92281787109375,2.695871114730835,-2.8203697204589844,10.07270622253418
1759335054651818800,1.93281884765625,1.0773907899856567,-3.5913026332855225,10.122983932495117
1759335054661819000,1.94281884765625,-0.7996633648872375,-3.7636849880218506,9.897929191589355
1759335054671818800,1.95281884765625,-1.139639973640442,-3.9264907836914062,9.462183952331543
1759335054681819000,1.96281884765625,0.3734954595565796,-3.847482204437256,8.427888870239258
1759335054691818800,1.97281884765625,0.6224924325942993,-4.1611223220825195,7.441478252410889
1759335054701819000,1.98281884765625,0.9600749015808105,-3.9647979736328125,6.3640875816345215
1759335054711818800,1.99281884765625,1.4628572463989258,-3.31118106842041,5.973832607269287
1759335054721819000,2.00281884765625,1.4628572463989258,-2.8395233154296875,5.571606636047363
1759335054731818800,2.01281884765625,1.2689268589019775,-3.864241600036621,6.151003360748291
1759335054741819000,2.02281884765625,0.4213795065879822,-2.829946517944336,6.08396577835083
1759335054751818000,2.03281787109375,-0.040701430290937424,-3.19865345954895,6.366481781005859
1759335054761818000,2.042818115234375,1.6424223184585571,-4.697423934936523,6.7806782722473145
1759335054771818000,2.05281787109375,1.7477672100067139,-1.6950948238372803,6.672939300537109
1759335054781818000,2.062818115234375,1.0582371950149536,-2.454056739807129,7.520486831665039
1759335054791818000,2.07281787109375,1.9560627937316895,-5.1238908767700195,7.034463882446289
1759335054801818000,2.082818115234375,2.5498247146606445,-5.133467674255371,5.770325183868408
1759335054811818800,2.09281884765625,0.7613561153411865,-5.245995044708252,8.13100814819336
1759335054821819000,2.10281884765625,-0.004788403399288654,-4.728548526763916,8.787019729614258
1759335054831818800,2.11281884765625,1.1492167711257935,-5.301061630249023,9.500492095947266
1759335054841819000,2.12281884765625,3.313575267791748,-6.646603107452393,10.824484825134277
1759335054851819800,2.13281982421875,4.575319290161133,-5.679345607757568,10.723928451538086
1759335054861819600,2.142819580078125,3.3686418533325195,-7.767089366912842,12.215516090393066
1759335054871819800,2.15281982421875,1.6759412288665771,-6.170156955718994,12.790124893188477
1759335054881819600,2.162819580078125,0.2298433631658554,-6.261136531829834,12.435782432556152
1759335054891819800,2.17281982421875,-0.11971008777618408,-6.08396577835083,11.056722640991211
1759335054901819600,2.182819580078125,0.37828385829925537,-6.297049522399902,10.613795280456543
1759335054911819800,2.19281982421875,0.569819986820221,-6.651391506195068,11.013627052307129
1759335054921819600,2.202819580078125,1.1492167711257935,-6.423942565917969,11.116578102111816
1759335054931819800,2.21281982421875,1.213860273361206,-6.172551155090332,10.577882766723633
1759335054941820000,2.22281982421875,1.1348515748977661,-5.870882034301758,9.78061294555664
1759335054951819000,2.232819091796875,1.1276689767837524,-5.775113582611084,8.68406867980957
1759335054961819000,2.24281884765625,1.3766659498214722,-5.55245304107666,7.501333236694336
1759335054971819000,2.252819091796875,2.6671407222747803,-5.353734493255615,6.261136531829834
1759335054981819000,2.26281884765625,3.88818359375,-5.451896667480469,5.404012680053711
1759335054991819000,2.272819091796875,2.406172752380371,-5.822998046875,6.014533996582031
1759335055001819000,2.28281884765625,0.5961562395095825,-6.196493148803711,7.044040679931641
1759335055011819000,2.292819091796875,0.2777273952960968,-4.709394931793213,5.806238174438477
1759335055021819000,2.30281884765625,-0.033518824726343155,-4.886565685272217,6.179733753204346
1759335055031819000,2.312819091796875,0.016759412363171577,-5.301061630249023,6.0097455978393555
1759335055041819000,2.32281884765625,3.2154128551483154,-5.91397762298584,3.4739866256713867
1759335055051819800,2.33281982421875,1.359906554222107,-6.483797550201416,6.323386192321777
1759335055061819600,2.342819580078125,-1.45806884765625,-5.243600845336914,7.7287821769714355
1759335055071819800,2.35281982421875,-1.314416766166687,-4.627991676330566,7.745541572570801
1759335055081819600,2.362819580078125,0.7134721279144287,-4.738125324249268,7.49654483795166
1759335055091819800,2.37281982421875,1.3886369466781616,-4.259284973144531,7.755118370056152
1759335055101819600,2.382819580078125,1.4700398445129395,-3.758896589279175,8.320150375366211
1759335055111819800,2.39281982421875,0.8331822156906128,-3.5649664402008057,8.672098159790039
1759335055121819600,2.402819580078125,-0.2298433631658554,-3.3686418533325195,10.62816047668457
1759335055131819800,2.41281982421875,-1.8052281141281128,-4.517858505249023,13.529932975769043
1759335055141819600,2.422819580078125,-2.032677173614502,-6.2276177406311035,14.056657791137695
1759335055151818800,2.43281884765625,-1.723825216293335,-7.563582420349121,12.931382179260254
1759335055161819000,2.44281884765625,-1.4053963422775269,-7.635408401489258,10.77420711517334
1759335055171818800,2.45281884765625,-0.5889736413955688,-6.409577369689941,9.538799285888672
1759335055181819000,2.46281884765625,0.8427590131759644,-6.426336765289307,9.466972351074219
1759335055191818800,2.47281884765625,2.0374655723571777,-8.186075210571289,10.666467666625977
1759335055201819000,2.48281884765625,1.9512743949890137,-9.126996040344238,12.201150894165039
1759335055211818800,2.49281884765625,1.7477672100067139,-9.687239646911621,14.288894653320312
1759335055221819000,2.50281884765625,2.1332337856292725,-10.194809913635254,15.361796379089355
1759335055231818800,2.51281884765625,2.8419175148010254,-9.711181640625,16.62833023071289
1759335055241819000,2.52281884765625,2.0638017654418945,-9.174880027770996,17.569250106811523
1759335055251819800,2.53281982421875,0.6392518281936646,-8.7175874710083,15.790358543395996
1759335055261819600,2.542819580078125,-0.727837324142456,-7.652167797088623,11.640908241271973
1759335055271819800,2.55281982421875,-1.4460978507995605,-6.572382926940918,7.5109100341796875
1759335055281819600,2.562819580078125,-0.14604631066322327,-6.926724910736084,5.511751651763916
1759335055291819800,2.57281982421875,0.023942016065120697,-7.565976619720459,5.0161519050598145
1759335055301819600,2.582819580078125,1.8195933103561401,-6.835745334625244,5.837363243103027
1759335055311819800,2.59281982421875,1.2401964664459229,-6.4502787590026855,6.301837921142578
1759335055321819600,2.602819580078125,2.075772762298584,-5.858911037445068,6.926724910736084
1759335055331819800,2.61281982421875,2.980781078338623,-5.820603370666504,8.083124160766602
1759335055341819600,2.622819580078125,3.5482068061828613,-4.934749126434326,8.849268913269043
1759335055351818800,2.63281884765625,4.019864559173584,-5.475838661193848,10.041581153869629
1759335055361819000,2.64281884765625,5.222053050994873,-4.216189384460449,9.538799285888672
1759335055371818800,2.65281884765625,4.702212333679199,-3.5003228187561035,9.129390716552734
1759335055381819000,2.66281884765625,3.756502389907837,-3.3207578659057617,8.296208381652832
1759335055391818800,2.67281884765625,3.090914487838745,-3.708618402481079,7.072771072387695
1759335055401819000,2.68281884765625,2.9305028915405273,-3.5913026332855225,6.924330711364746
1759335055411818800,2.69281884765625,3.8977603912353516,-2.5067291259765625,5.954679012298584
1759335055421819000,2.70281884765625,-0.42616790533065796,-3.066972494125366,5.583577632904053
1759335055431818800,2.71281884765625,-0.3687070608139038,-2.9041666984558105,5.700893402099609
1759335055441819000,2.72281884765625,1.2234370708465576,-2.8227639198303223,7.498939037322998
1759335055451819800,2.73281982421875,2.63362193107605,-2.6886885166168213,8.368034362792969
1759335055461819600,2.742819580078125,3.6990416049957275,-2.410961151123047,8.571541786193848
1759335055471819800,2.75281982421875,3.8355112075805664,-2.999934673309326,8.904335021972656
1759335055481819600,2.762819580078125,5.492598056793213,-3.9815573692321777,9.026439666748047
1759335055491819800,2.77281982421875,11.188404083251953,-2.913743495941162,7.539640426635742
1759335055501819600,2.782819580078125,0.24660277366638184,-1.9919757843017578,3.3901896476745605
1759335055511819800,2.79281982421875,-1.0845733880996704,-0.8451532125473022,2.140416383743286
1759335055521819600,2.802819580078125,-1.764526605606079,-1.3192051649093628,0.8307880163192749
1759335055531819800,2.81281982421875,0.9002198576927185,-2.456450939178467,0.7637503147125244
1759335055541819600,2.822819580078125,2.6360161304473877,-2.7988216876983643,1.2210428714752197
1759335055551818800,2.83281884765625,2.5689783096313477,-2.5306711196899414,1.900996208190918
1759335055561819000,2.84281884765625,1.556231141090393,-1.764526605606079,2.255337953567505
1759335055571818800,2.85281884765625,0.9576807022094727,-1.335964560508728,2.2194249629974365
1759335055581819000,2.86281884765625,0.3878606855869293,-2.056619167327881,2.5474305152893066
1759335055591818800,2.87281884765625,-0.5937620401382446,-2.7317841053009033,4.218583583831787
1759335055601819000,2.88281884765625,-0.6799532771110535,0.0071826050989329815,4.587290287017822
1759335055611818800,2.89281884765625,1.1037269830703735,-3.6966474056243896,7.4678144454956055
1759335055621819000,2.90281884765625,2.209848165512085,-4.402936935424805,8.157344818115234
1759335055631818800,2.91281884765625,3.0358476638793945,-2.978386878967285,7.477391242980957
1759335055641819000,2.92281884765625,3.378218650817871,-2.9328970909118652,6.165368556976318
1759335055651819800,2.93281982421875,3.7636849880218506,-4.908412933349609,8.432677268981934
1759335055661819600,2.942819580078125,3.177105665206909,-3.2585084438323975,8.451830863952637
1759335055671819800,2.95281982421875,2.87064790725708,-2.7317841053009033,7.743147373199463
1759335055681819600,2.962819580078125,1.723825216293335,-1.7190368175506592,5.454290866851807
1759335055701819600,2.982819580078125,2.7269957065582275,-4.19224739074707,12.253823280334473
1759335055711819800,2.99281982421875,4.046200752258301,-3.7421371936798096,12.047922134399414
1759335055721819600,3.002819580078125,3.220201253890991,-5.511751651763916,14.097358703613281
1759335055731819800,3.01281982421875,1.2856862545013428,-4.807557106018066,13.465290069580078
1759335055741819600,3.022819580078125,0.8044517636299133,-6.03847599029541,13.29530143737793
1759335055751818800,3.03281884765625,0.6440402865409851,-6.237194538116455,12.603377342224121
1759335055761819000,3.04281884765625,0.2801215946674347,-6.9602437019348145,11.466131210327148
1759335055771818800,3.05281884765625,-0.706289529800415,-7.910741806030273,9.495702743530273
1759335055781819000,3.06281884765625,0.14844051003456116,-8.308178901672363,8.420706748962402
1759335055791818800,3.07281884765625,0.6727706789970398,-8.588300704956055,7.803002834320068
1759335055801819000,3.08281884765625,1.2018892765045166,-9.569923400878906,8.111854553222656
1759335055811818800,3.09281884765625,0.5099649429321289,-8.34409236907959,8.674491882324219
1759335055821819000,3.10281884765625,1.3670891523361206,-6.49098014831543,9.814131736755371
1759335055831818800,3.11281884765625,2.43011474609375,-5.55245304107666,10.992079734802246
1759335055841819000,3.12281884765625,3.4524388313293457,-6.383241176605225,11.502044677734375
1759335055851819800,3.13281982421875,2.6408045291900635,-8.078335762023926,11.145308494567871
1759335055861819600,3.142819580078125,2.185906171798706,-8.664915084838867,9.416694641113281
1759335055881819600,3.162819580078125,0.8690952062606812,-9.584288597106934,4.400542736053467
1759335055891819800,3.17281982421875,0.5530605912208557,-10.992079734802246,1.5490485429763794
1759335055901819600,3.182819580078125,1.4460978507995605,-9.890746116638184,0.6775590777397156
1759335055911819800,3.19281982421875,1.501164436340332,-10.580276489257812,1.0055646896362305
1759335055921819600,3.202819580078125,4.8267107009887695,-12.488455772399902,9.323320388793945
1759335055931819800,3.21281982421875,1.5634137392044067,-5.7631425857543945,18.163013458251953
1759335055941819600,3.222819580078125,-3.3039982318878174,0.828393816947937,18.060062408447266
1759335055951818800,3.23281884765625,-4.508281707763672,0.6105214357376099,15.112799644470215
1759335055961819000,3.24281884765625,-1.482010841369629,-1.1899182796478271,10.510845184326172
1759335055971818800,3.25281884765625,0.42377370595932007,-1.7956513166427612,6.771101474761963
1759335055981819000,3.26281884765625,0.8140285611152649,-2.1140801906585693,4.788403511047363
1759335055991818800,3.27281884765625,0.6105214357376099,-2.121262788772583,3.6296098232269287
1759335056001819000,3.28281884765625,-0.24420857429504395,-1.5945383310317993,3.6367924213409424
1759335056011818800,3.29281884765625,-1.0558429956436157,-1.400607943534851,4.242525577545166
1759335056021819000,3.30281884765625,-1.1683704853057861,-2.0590133666992188,5.068824291229248
1759335056031818800,3.31281884765625,-0.05746084079146385,-2.2242133617401123,5.8086323738098145
1759335056041819000,3.32281884765625,0.5363011956214905,-1.9943699836730957,8.233959197998047
1759335056051819800,3.33281982421875,0.6727706789970398,-1.8818424940109253,8.224382400512695
1759335056061819600,3.342819580078125,1.6903064250946045,-2.365471363067627,7.697657585144043
1759335056071819800,3.35281982421875,2.829946517944336,-4.809951305389404,8.59308910369873
1759335056081819600,3.362819580078125,1.656787633895874,-7.989750385284424,8.758289337158203
1759335056091819800,3.37281982421875,1.8914192914962769,-9.009679794311523,9.591471672058105
1759335056101819600,3.382819580078125,2.959233283996582,-7.834127426147461,8.70801067352295
1759335056111819800,3.39281982421875,3.536235809326172,-8.020874977111816,7.5324578285217285
1759335056121819600,3.402819580078125,5.341763496398926,-8.92348861694336,6.057629585266113
1759335056131819800,3.41281982421875,5.1023430824279785,-8.585906982421875,4.505887508392334
1759335056141819600,3.422819580078125,5.291484832763672,-7.091924667358398,3.754108190536499
1759335056151818800,3.43281884765625,4.611232280731201,-7.89158821105957,2.1547815799713135
1759335056161819000,3.44281884765625,1.800439715385437,-7.623437404632568,1.3287819623947144
1759335056171818800,3.45281884765625,-1.2521674633026123,-7.015310287475586,1.7190368175506592
1759335056181819000,3.46281884765625,-2.0374655723571777,-7.934683799743652,1.9800047874450684
1759335056191818800,3.47281884765625,-2.4396915435791016,-10.302549362182617,2.006340980529785
1759335056201819000,3.48281884765625,-3.5721490383148193,-12.833220481872559,2.497152328491211
1759335056211818800,3.49281884765625,-0.7948749661445618,-12.77575969696045,3.2609026432037354
1759335056221819000,3.50281884765625,2.0805611610412598,-11.973702430725098,2.999934673309326
1759335056231818800,3.51281884765625,1.4700398445129395,-10.307337760925293,2.889801502227783
1759335056241819000,3.52281884765625,0.8834604024887085,-9.806949615478516,4.266467571258545
1759335056251819500,3.532819580078125,1.7405846118927002,-9.428665161132812,5.243600845336914
1759335056261819600,3.542819580078125,0.7661445140838623,-8.839692115783691,5.471050262451172
1759335056271819500,3.552819580078125,-0.6775590777397156,-8.459013938903809,5.3920416831970215
1759335056281819600,3.562819580078125,-1.436521053314209,-7.556399822235107,4.850652694702148
1759335056291819500,3.572819580078125,-1.3215993642807007,-6.897994518280029,4.0749311447143555
1759335056301819600,3.582819580078125,-0.30885201692581177,-6.292261123657227,3.050212860107422
1759335056311818800,3.59281884765625,0.2753331959247589,-5.976226806640625,2.1978771686553955
1759335056321819000,3.60281884765625,-0.05027823522686958,-7.750329971313477,2.8993782997131348
1759335056331818800,3.61281884765625,0.507570743560791,-9.431059837341309,2.964021682739258
1759335056341819000,3.62281884765625,0.871489405632019,-11.751041412353516,3.136404275894165
1759335056351818000,3.63281787109375,0.5602431893348694,-12.557887077331543,2.9041666984558105
1759335056361817900,3.64281787109375,0.727837324142456,-10.506056785583496,2.123656988143921
1759335056371818000,3.65281787109375,1.0031704902648926,-7.94904899597168,1.4053963422775269
1759335056381817900,3.66281787109375,1.3455413579940796,-7.345710277557373,1.3670891523361206
1759335056391818000,3.67281787109375,1.0534487962722778,-7.934683799743652,2.078166961669922
1759335056401817900,3.68281787109375,1.9321208000183105,-13.29530143737793,4.9060187339782715
1759335056411818000,3.69281787109375,3.335123062133789,-20.820575714111328,7.264307022094727
1759335056421817900,3.70281787109375,3.397372245788574,-26.016292572021484,8.925883293151855
1759335056431818000,3.71281787109375,-1.1061211824417114,-21.826141357421875,8.293813705444336
1759335056441817900,3.72281787109375,-3.5410242080688477,-13.72625732421875,6.107907772064209
1759335056451818800,3.73281884765625,-3.0382418632507324,-8.382399559020996,3.9001545906066895
1759335056461819000,3.74281884765625,-1.7573440074920654,-7.498939037322998,2.7772738933563232
1759335056471818800,3.75281884765625,-0.9074024558067322,-7.522881031036377,2.296039342880249
1759335056481819000,3.76281884765625,0.27054479718208313,-7.656956195831299,2.2816741466522217
1759335056491818800,3.77281884765625,1.3215993642807007,-8.19804573059082,2.3487119674682617
1759335056501819000,3.78281884765625,2.03507137298584,-8.463802337646484,2.4636335372924805
1759335056511818000,3.79281787109375,2.123656988143921,-8.664915084838867,2.6599581241607666
1759335056521817900,3.80281787109375,1.8579005002975464,-8.98813247680664,3.00711727142334
1759335056531818000,3.81281787109375,1.213860273361206,-9.40711784362793,3.4356794357299805
1759335056541817900,3.82281787109375,0.8164227604866028,-9.555558204650879,3.7660791873931885
1759335056551817200,3.832817138671875,0.7733271718025208,-9.431059837341309,3.9839515686035156
1759335056561817000,3.842817138671875,0.8667010068893433,-9.028834342956543,4.041412353515625
1759335056571817200,3.852817138671875,0.9433154463768005,-8.978555679321289,3.971980571746826
1759335056581817000,3.862817138671875,0.9864110946655273,-8.964190483093262,3.869029998779297
1759335056591817200,3.872817138671875,0.9864110946655273,-8.842085838317871,3.73016619682312
1759335056601816800,3.88281689453125,0.9193734526634216,-8.746317863464355,3.5673606395721436
1759335056611817700,3.892817626953125,0.933738648891449,-8.607454299926758,3.4811692237854004
1759335056621817600,3.902817626953125,1.036689281463623,-8.521263122558594,3.4763808250427246
1759335056631817500,3.9128173828125,1.0797849893569946,-8.59069538116455,3.5242648124694824
1759335056641817600,3.922817626953125,1.1061211824417114,-8.806173324584961,3.6535518169403076
1759335056651818500,3.932818603515625,0.8307880163192749,-8.92109489440918,3.7038300037384033
1759335056661818400,3.942818359375,0.47165772318840027,-9.064746856689453,3.7493197917938232
1759335056671818500,3.952818603515625,0.35673606395721436,-9.172486305236816,3.8331170082092285
1759335056681818400,3.962818359375,0.5171475410461426,-9.28261947631836,3.912125587463379
1759335056691818500,3.972818603515625,0.4620809257030487,-9.356839179992676,3.7828385829925537
1759335056701818400,3.982818359375,0.22026655077934265,-9.277831077575684,3.4979286193847656
1759335056711818500,3.992818603515625,0.22505496442317963,-9.143755912780762,3.24414324760437
1759335056721818400,4.002818359375,0.44771572947502136,-9.093477249145508,3.19865345954895
1759335056731818500,4.012818603515625,0.5099649429321289,-9.174880027770996,3.246537446975708
1759335056741818400,4.022818359375,0.6775590777397156,-9.198822021484375,3.4404678344726562
1759335056751817500,4.0328173828125,0.9888052940368652,-9.246706008911133,3.845088005065918
1759335056761817600,4.042817626953125,0.7996633648872375,-9.232340812683105,4.376600742340088
1759335056771817500,4.0528173828125,0.5602431893348694,-9.033622741699219,4.89644193649292
1759335056781817600,4.062817626953125,-0.07422025501728058,-8.980949401855469,5.267542839050293
1759335056791817500,4.0728173828125,-0.7158663272857666,-8.961795806884766,5.511751651763916
1759335056801817600,4.082817626953125,-0.8307880163192749,-8.861239433288574,5.5883660316467285
1759335056811818500,4.092818603515625,-0.5171475410461426,-8.743924140930176,5.533299446105957
1759335056821818400,4.102818359375,-0.035913024097681046,-8.667309761047363,5.166986465454102
1759335056831818500,4.112818603515625,0.31124621629714966,-8.664915084838867,4.786009311676025
1759335056841818400,4.122818359375,0.5291185975074768,-8.662521362304688,4.563348293304443
1759335056851819300,4.1328193359375,0.7996633648872375,-8.516474723815918,4.388571739196777
1759335056871819800,4.15281982421875,0.7948749661445618,-8.233959197998047,4.010287761688232
1759335056881820000,4.16281982421875,0.8667010068893433,-8.226776123046875,3.758896589279175
1759335056891819800,4.17281982421875,0.8547300100326538,-8.312967300415039,3.514688014984131
1759335056901820200,4.182820068359375,0.7637503147125244,-8.43507194519043,3.3925838470458984
1759335056911820000,4.192820068359375,0.6392518281936646,-8.662521362304688,3.404554843902588
1759335056921820200,4.202820068359375,0.4692635238170624,-8.854057312011719,3.471592426300049
1759335056931820000,4.212820068359375,0.24181437492370605,-8.983344078063965,3.533841609954834
1759335056941820200,4.222820068359375,-0.016759412363171577,-9.064746856689453,3.555389642715454
1759335056951819300,4.2328193359375,-0.10295066982507706,-9.107842445373535,3.641580820083618
1759335056961819400,4.2428193359375,-0.2082955539226532,-9.220370292663574,3.713406801223755
1759335056971819300,4.2528193359375,-0.22266076505184174,-9.131784439086914,3.8331170082092285
1759335056981819400,4.2628193359375,0.031124621629714966,-9.179668426513672,4.082113742828369
1759335056991819300,4.2728193359375,0.08858546614646912,-8.877999305725098,4.046200752258301
1759335057001819400,4.2828193359375,0.15322890877723694,-8.61703109741211,4.067748546600342
1759335057011819300,4.2928193359375,0.2322375625371933,-8.389581680297852,4.072536945343018
1759335057021819400,4.3028193359375,0.33039984107017517,-8.121431350708008,4.1611223220825195
1759335057031819000,4.312819091796875,0.43095630407333374,-8.07115364074707,4.3861775398254395
1759335057041819000,4.32281884765625,0.4884171485900879,-8.12861442565918,4.558559894561768
1759335057051819800,4.33281982421875,0.42616790533065796,-8.327332496643066,4.707000732421875
1759335057061820000,4.34281982421875,0.3232172429561615,-8.59069538116455,4.793191909790039
1759335057071819800,4.35281982421875,0.21787235140800476,-8.873210906982422,4.855441093444824
1759335057081820000,4.36281982421875,0.12210428714752197,-9.059958457946777,4.817133903503418
1759335057091819800,4.37281982421875,0.0694318488240242,-9.110237121582031,4.778826713562012
1759335057101820000,4.38281982421875,0.14365209639072418,-9.107842445373535,4.786009311676025
1759335057111819800,4.39281982421875,0.20350714027881622,-9.040804862976074,4.901230335235596
1759335057121820000,4.40281982421875,0.24181437492370605,-8.952219009399414,5.090372085571289
1759335057131819800,4.41281982421875,0.23702596127986908,-8.851662635803223,5.3489460945129395
1759335057141820000,4.42281982421875,0.181959331035614,-8.760683059692383,5.5883660316467285
1759335057151819000,4.432819091796875,0.08858546614646912,-8.760683059692383,5.746383190155029
1759335057161819000,4.44281884765625,-0.035913024097681046,-8.992920875549316,5.925948619842529
1759335057171818500,4.452818603515625,-0.09816227108240128,-9.273042678833008,6.055235385894775
1759335057181818400,4.462818359375,-0.1628057211637497,-9.514857292175293,6.134243965148926
1759335057191818500,4.472818603515625,-0.2585737705230713,-9.909899711608887,6.330568790435791
1759335057201818400,4.482818359375,-0.35673606395721436,-10.348038673400879,6.47900915145874
1759335057211818500,4.492818603515625,-0.4429273009300232,-10.680832862854004,6.522104740142822
1759335057221818400,4.502818359375,-0.44532153010368347,-10.802937507629395,6.3425397872924805
1759335057231818200,4.512818359375,-0.26336219906806946,-11.20516300201416,6.225223541259766
1759335057241818400,4.522818359375,0.06703764945268631,-11.6552734375,6.007351398468018
1759335057251819300,4.5328193359375,0.5195417404174805,-11.681609153747559,5.4566850662231445
1759335057261819100,4.542819091796875,0.9169792532920837,-11.348814964294434,4.824316501617432
1759335057271819300,4.5528193359375,1.5107412338256836,-10.93222427368164,4.216189384460449
1759335057281819100,4.562819091796875,2.169146776199341,-10.697592735290527,3.7876269817352295
1759335057291819300,4.5728193359375,2.3702597618103027,-10.520421981811523,3.2297780513763428
1759335057301819100,4.582819091796875,2.123656988143921,-10.431836128234863,2.5115175247192383
1759335057311819300,4.5928193359375,1.5849615335464478,-10.508450508117676,2.0183119773864746
1759335057321819100,4.602819091796875,1.1348515748977661,-10.71674633026123,1.680729627609253
1759335057331819500,4.612819580078125,0.42616790533065796,-10.795754432678223,1.434126853942871
1759335057341819600,4.622819580078125,-0.002394201699644327,-10.802937507629395,1.2689268589019775
1759335057351818800,4.63281884765625,-0.10534487664699554,-10.853215217590332,0.9385270476341248
1759335057361819000,4.64281884765625,-0.07661445438861847,-11.032780647277832,0.7445967197418213
1759335057371818800,4.65281884765625,-0.5506663918495178,-11.382333755493164,1.0869675874710083
1759335057381819000,4.66281884765625,-1.6974890232086182,-11.729493141174316,1.702277421951294
1759335057391818800,4.67281884765625,-2.0446481704711914,-11.406275749206543,2.2194249629974365
1759335057401819000,4.68281884765625,-0.9241618514060974,-10.80772590637207,2.8993782997131348
1759335057411818800,4.69281884765625,0.9457096457481384,-10.240300178527832,3.162740468978882
1759335057421819000,4.70281884765625,1.944091796875,-9.821314811706543,3.1938650608062744
1759335057431818800,4.71281884765625,1.8507179021835327,-9.78061294555664,3.4596214294433594
1759335057441819000,4.72281884765625,1.7573440074920654,-9.735123634338379,3.620033025741577
1759335057451819800,4.73281982421875,1.601720929145813,-9.792584419250488,3.9863457679748535
1759335057461819600,4.742819580078125,0.47405192255973816,-9.890746116638184,4.216189384460449
1759335057471819800,4.75281982421875,-0.44771572947502136,-9.660902976989746,4.355052947998047
1759335057481819600,4.762819580078125,-1.3024457693099976,-9.651326179504395,4.7189717292785645
1759335057491819800,4.77281982421875,-1.7549498081207275,-9.708786964416504,5.166986465454102
1759335057501819600,4.782819580078125,-1.7166426181793213,-9.5531644821167,5.166986465454102
1759335057511819800,4.79281982421875,-1.8626888990402222,-9.361627578735352,5.011363506317139
1759335057521819600,4.802819580078125,-1.723825216293335,-9.174880027770996,4.513070106506348
1759335057531819800,4.81281982421875,-0.9768342971801758,-8.763077735900879,3.6774938106536865
1759335057541819600,4.822819580078125,-0.1388636976480484,-8.348880767822266,3.138798475265503
1759335057551818800,4.83281884765625,0.06464344263076782,-8.102277755737305,2.7461493015289307
1759335057561819000,4.84281884765625,-0.3447650372982025,-7.67850399017334,2.341529369354248
1759335057571818800,4.85281884765625,-1.039083480834961,-7.649773597717285,2.164358377456665
1759335057581819000,4.86281884765625,-2.0422539710998535,-7.580341815948486,1.9393033981323242
1759335057591818800,4.87281884765625,-2.719813108444214,-7.4223246574401855,1.7884687185287476
1759335057601819000,4.88281884765625,-2.6671407222747803,-6.883629322052002,1.5634137392044067
1759335057611818800,4.89281884765625,-2.561795711517334,-6.306626319885254,1.4269442558288574
1759335057621819000,4.90281884765625,-2.2194249629974365,-5.770325183868408,1.3239935636520386
1759335057631818800,4.91281884765625,-1.9560627937316895,-5.487809658050537,1.314416766166687
1759335057641819000,4.92281884765625,-1.6352397203445435,-5.339369297027588,1.4437036514282227
1759335057651819500,4.932819580078125,-1.8746598958969116,-5.214870452880859,1.4915876388549805
1759335057661819600,4.942819580078125,-2.343923568725586,-5.056853294372559,1.3407529592514038
1759335057671819500,4.952819580078125,-2.7964274883270264,-4.9275665283203125,1.0558429956436157
1759335057681819600,4.962819580078125,-3.246537446975708,-4.7405195236206055,0.8164227604866028
1759335057691819500,4.972819580078125,-4.036623954772949,-4.55616569519043,0.7637503147125244
1759335057701819600,4.982819580078125,-4.46518611907959,-4.460397720336914,0.8858546018600464
1759335057711819500,4.992819580078125,-4.572925090789795,-4.903624534606934,1.1109095811843872
1759335057721819600,5.002819580078125,-4.752490520477295,-5.648221015930176,1.5658079385757446
1759335057731819500,5.012819580078125,-4.836287498474121,-6.325780391693115,2.3080103397369385
1759335057741819600,5.022819580078125,-5.262754440307617,-7.082347869873047,2.9041666984558105
1759335057751818800,5.03281884765625,-5.636250019073486,-7.589918613433838,3.490746021270752
1759335057761818600,5.042818603515625,-6.076783180236816,-7.836521625518799,3.993528366088867
1759335057771818800,5.05281884765625,-6.3880295753479,-7.795820236206055,4.311957359313965
1759335057781819000,5.06281884765625,-6.87405252456665,-7.798214435577393,4.709394931793213
1759335057791818800,5.07281884765625,-7.269095420837402,-8.054393768310547,5.4566850662231445
1759335057801818600,5.082818603515625,-7.424718856811523,-8.68167495727539,6.502951145172119
1759335057811818800,5.09281884765625,-7.625831604003906,-9.701604843139648,7.767089366912842
1759335057821818600,5.102818603515625,-7.269095420837402,-10.886734008789062,9.16769790649414
1759335057831818800,5.11281884765625,-6.854898929595947,-11.545140266418457,10.247482299804688
1759335057841818600,5.122818603515625,-6.143820762634277,-10.704774856567383,10.798149108886719
1759335057851819500,5.132819580078125,-7.065588474273682,-9.160514831542969,10.802937507629395
1759335057861819600,5.142819580078125,-7.592312812805176,-7.316979885101318,9.749488830566406
1759335057871819500,5.152819580078125,-7.527669429779053,-5.863699436187744,8.087912559509277
1759335057881819600,5.162819580078125,-7.439084053039551,-5.20289945602417,6.280290126800537
1759335057891819500,5.172819580078125,-6.546046733856201,-5.068824291229248,4.973056316375732
1759335057901819600,5.182819580078125,-4.881777286529541,-5.990592002868652,3.993528366088867
1759335057911819800,5.19281982421875,-2.875436305999756,-8.23156452178955,3.002328872680664
1759335057921819600,5.202819580078125,-1.7046716213226318,-11.006444931030273,2.212242364883423
1759335057931819800,5.21281982421875,-0.7158663272857666,-13.680768013000488,1.479616641998291
1759335057941819600,5.222819580078125,-0.033518824726343155,-15.9890775680542,1.0749965906143188
1759335057951818800,5.23281884765625,0.016759412363171577,-16.02738380432129,0.9026140570640564
1759335057961819000,5.24281884765625,-2.609679937362671,-13.374309539794922,0.7206547260284424
1759335057971818800,5.25281884765625,-4.685452938079834,-10.654497146606445,1.2952631711959839
1759335057981819000,5.26281884765625,-3.576937437057495,-8.880393028259277,1.9249382019042969
1759335057991818800,5.27281884765625,-1.7764976024627686,-7.659350395202637,2.1978771686553955
1759335058001819000,5.28281884765625,-0.7733271718025208,-7.10150146484375,1.9249382019042969
1759335058011818800,5.29281884765625,0.4836287498474121,-6.993762493133545,1.6136919260025024
1759335058021819000,5.30281884765625,1.8531121015548706,-7.094318866729736,1.4915876388549805
1759335058031818800,5.31281884765625,2.63362193107605,-7.431901454925537,1.699883222579956
1759335058041819000,5.32281884765625,2.942473888397217,-7.793426036834717,2.212242364883423
1759335058051819800,5.33281982421875,2.806004285812378,-8.334515571594238,2.7724854946136475
1759335058061819600,5.342819580078125,2.434903144836426,-8.432677268981934,2.7293899059295654
1759335058071819800,5.35281982421875,2.2457611560821533,-8.284236907958984,2.7940332889556885
1759335058081819600,5.362819580078125,2.2361843585968018,-8.214805603027344,2.959233283996582
1759335058091819800,5.37281982421875,2.3343467712402344,-8.554781913757324,3.28963303565979
1759335058101819600,5.382819580078125,2.4133553504943848,-9.241917610168457,3.7277719974517822
1759335058111819800,5.39281982421875,1.9249382019042969,-9.857227325439453,4.335899353027344
1759335058121819600,5.402819580078125,0.8595184087753296,-10.125378608703613,4.961085319519043
1759335058131819800,5.41281982421875,-1.2832920551300049,-9.5316162109375,5.894824028015137
1759335058141819600,5.422819580078125,-3.1914708614349365,-8.913911819458008,6.617872714996338
1759335058151818800,5.43281884765625,-2.609679937362671,-8.92109489440918,6.35451078414917
1759335058161819000,5.44281884765625,-1.1324573755264282,-9.517251014709473,5.918766021728516
1759335058171818800,5.45281884765625,-1.0678139925003052,-9.340080261230469,5.2771196365356445
1759335058181819000,5.46281884765625,-0.7541735172271729,-8.753500938415527,4.577713489532471
1759335058191818800,5.47281884765625,0.06703764945268631,-8.262689590454102,3.8570590019226074
1759335058201819000,5.48281884765625,0.6560112833976746,-8.212410926818848,3.3686418533325195
1759335058211818800,5.49281884765625,0.8906430602073669,-8.233959197998047,3.00711727142334
1759335058221819000,5.50281884765625,1.1037269830703735,-8.001721382141113,2.9017724990844727
1759335058231818800,5.51281884765625,1.0462661981582642,-8.217199325561523,2.911349296569824
1759335058241819000,5.52281884765625,0.9648633003234863,-8.10706615447998,3.222595453262329
1759335058251819500,5.532819580078125,1.0438719987869263,-7.941866397857666,3.3063924312591553
1759335058261819600,5.542819580078125,1.2545616626739502,-7.855675220489502,3.5697548389434814
1759335058271819500,5.552819580078125,1.1803414821624756,-7.834127426147461,3.780444383621216
1759335058281819600,5.562819580078125,0.6631938815116882,-7.934683799743652,3.976768970489502
1759335058291819500,5.572819580078125,0.11013327538967133,-8.119037628173828,4.022258758544922
1759335058301819600,5.582819580078125,-0.33279404044151306,-8.109460830688477,4.010287761688232
1759335058311819500,5.592819580078125,-0.395043283700943,-7.877223014831543,3.8139634132385254
1759335058321819600,5.602819580078125,-0.5841852426528931,-7.63301420211792,3.4596214294433594
1759335058331819500,5.612819580078125,-0.8882488012313843,-7.54203462600708,3.177105665206909
1759335058341819600,5.622819580078125,-1.1899182796478271,-7.601889610290527,2.892195701599121
1759335058351818800,5.63281884765625,-1.4245500564575195,-7.834127426147461,2.7461493015289307
1759335058361819000,5.64281884765625,-1.53707754611969,-8.10706615447998,2.535459518432617
1759335058371818800,5.65281884765625,-1.556231141090393,-8.564358711242676,2.6240451335906982
1759335058381819000,5.66281884765625,-1.4484920501708984,-8.870816230773926,2.8179752826690674
1759335058391818800,5.67281884765625,-1.3934253454208374,-9.064746856689453,3.2297780513763428
1759335058401819000,5.68281884765625,-1.2737152576446533,-9.273042678833008,3.732560396194458
1759335058411818800,5.69281884765625,-0.9744400978088379,-9.22515869140625,4.259284973144531
1759335058421819000,5.70281884765625,-0.47165772318840027,-8.997709274291992,4.754884719848633
1759335058431818800,5.71281884765625,-0.11013327538967133,-8.753500938415527,5.0376996994018555
1759335058441819000,5.72281884765625,-0.0933738648891449,-8.712799072265625,5.408801078796387
1759335058451819500,5.732819580078125,-0.5626373887062073,-8.8971529006958,5.708076000213623
1759335058461819600,5.742819580078125,-1.0630255937576294,-9.129390716552734,5.894824028015137
1759335058471819500,5.752819580078125,-1.1468225717544556,-9.117419242858887,5.796661376953125
1759335058481819600,5.762819580078125,-0.43095630407333374,-8.997709274291992,5.724835395812988
1759335058491819500,5.772819580078125,0.4692635238170624,-9.019257545471191,5.906795024871826
1759335058501819600,5.782819580078125,1.4915876388549805,-9.368810653686523,6.498162746429443
1759335058511819500,5.792819580078125,1.455674648284912,-10.276212692260742,7.182904243469238
1759335058521819600,5.802819580078125,-0.17477671802043915,-11.008838653564453,6.969820499420166
1759335058531819500,5.812819580078125,-1.2521674633026123,-11.499650001525879,6.6920928955078125
1759335058541819600,5.822819580078125,-1.6352397203445435,-11.913846969604492,6.371270179748535
1759335058551818800,5.83281884765625,-1.9752163887023926,-11.916240692138672,5.68892240524292
1759335058561819000,5.84281884765625,-2.1739351749420166,-11.978490829467773,5.260360240936279
1759335058571818800,5.85281884765625,-1.8411411046981812,-12.193968772888184,5.2771196365356445
1759335058581819000,5.86281884765625,-0.9576807022094727,-12.294525146484375,5.614702224731445
1759335058591818800,5.87281884765625,0.21787235140800476,-12.471695899963379,6.194098949432373
1759335058601819000,5.88281884765625,0.8738836050033569,-12.380716323852539,6.378452777862549
1759335058611818800,5.89281884765625,1.0965443849563599,-12.162843704223633,5.825392246246338
1759335058621819000,5.90281884765625,1.2689268589019775,-11.470919609069824,4.618414878845215
1759335058631818800,5.91281884765625,0.9385270476341248,-10.707169532775879,3.5458126068115234
1759335058641819000,5.92281884765625,0.40222588181495667,-10.269030570983887,2.918531894683838
1759335058651819500,5.932819580078125,-0.019153613597154617,-10.29057788848877,2.535459518432617
1759335058661819600,5.942819580078125,-0.19871874153614044,-10.276212692260742,2.161964178085327
1759335058671819500,5.952819580078125,0.038307227194309235,-10.549152374267578,1.7884687185287476
1759335058681819600,5.962819580078125,1.0869675874710083,-11.092636108398438,1.6639702320098877
1759335058691819500,5.972819580078125,1.525106430053711,-11.53077507019043,1.5155296325683594
1759335058701819600,5.982819580078125,1.400607943534851,-11.9928560256958,1.5179238319396973
1759335058711819800,5.99281982421875,1.0342950820922852,-12.196362495422363,1.6208745241165161
1759335058721819600,6.002819580078125,0.7374141216278076,-11.947365760803223,2.054224967956543
1759335058731819800,6.01281982421875,0.15562310814857483,-11.578659057617188,2.3295583724975586
1759335058741819600,6.022819580078125,-0.7661445140838623,-11.274595260620117,2.3104045391082764
1759335058751818800,6.03281884765625,-1.0319008827209473,-10.960954666137695,2.2002713680267334
1759335058761819000,6.04281884765625,-1.3910311460494995,-11.083059310913086,2.5474305152893066
1759335058771818800,6.05281884765625,-1.9752163887023926,-11.4541597366333,2.829946517944336
1759335058781819000,6.06281884765625,-1.8124107122421265,-11.56668758392334,3.0119056701660156
1759335058791818800,6.07281884765625,-1.1324573755264282,-11.166855812072754,2.806004285812378
1759335058801819000,6.08281884765625,0.3423708379268646,-10.37916374206543,2.7916390895843506
1759335058811818800,6.09281884765625,0.5506663918495178,-9.720758438110352,3.3279404640197754
1759335058821819000,6.10281884765625,1.137245774269104,-8.98813247680664,4.1611223220825195
1759335058831818800,6.11281884765625,0.9983820915222168,-8.595483779907227,4.9922099113464355
1759335058841819000,6.12281884765625,0.3998316824436188,-8.190863609313965,5.538087844848633
1759335058851819800,6.13281982421875,-0.2992752194404602,-7.683292388916016,5.574000835418701
1759335058861819600,6.142819580078125,0.3280056416988373,-7.254730224609375,5.243600845336914
1759335058871819800,6.15281982421875,0.1412578970193863,-7.331345081329346,4.711789131164551
1759335058881819600,6.162819580078125,-1.6400281190872192,-6.778284072875977,3.555389642715454
1759335058891819800,6.17281982421875,-2.6815059185028076,-6.297049522399902,2.5977089405059814
1759335058901819600,6.182819580078125,-2.693476915359497,-5.997774600982666,1.6352397203445435
1759335058911819800,6.19281982421875,-2.626439332962036,-5.459079265594482,0.6320692300796509
1759335058921819600,6.202819580078125,-2.3702597618103027,-5.073612689971924,0.09576806426048279
1759335058931819800,6.21281982421875,-2.319981336593628,-4.709394931793213,-0.14844051003456116
1759335058941819600,6.222819580078125,-2.212242364883423,-4.331110954284668,-0.12928688526153564
1759335058951819000,6.232819091796875,-2.0183119773864746,-4.019864559173584,0.09576806426048279
1759335058961819000,6.24281884765625,-1.5634137392044067,-3.9264907836914062,0.3663128614425659
1759335058971819000,6.252819091796875,-1.702277421951294,-3.845088005065918,0.6703764796257019
1759335058981819000,6.26281884765625,-1.8291701078414917,-3.6583402156829834,0.7781155705451965
1759335058991819000,6.272819091796875,-2.233790159225464,-3.2561142444610596,0.8547300100326538
1759335059011818800,6.29281884765625,-3.354276657104492,-3.4739866256713867,1.094150185585022
1759335059021819000,6.30281884765625,-3.890577793121338,-4.271255970001221,1.6376339197158813
1759335059031818800,6.31281884765625,-4.206612586975098,-5.126285076141357,2.274491548538208
1759335059041819000,6.32281884765625,-5.097554683685303,-5.770325183868408,3.3877954483032227
1759335059051819800,6.33281982421875,-6.378452777862549,-7.1350202560424805,4.81473970413208
1759335059061819600,6.342819580078125,-7.40556526184082,-8.540416717529297,6.203675746917725
1759335059071819800,6.35281982421875,-8.573935508728027,-10.029610633850098,7.901165008544922
1759335059081819600,6.362819580078125,-9.378387451171875,-11.344026565551758,9.524434089660645
1759335059091819800,6.37281982421875,-9.687239646911621,-11.583447456359863,10.292972564697266
1759335059101819600,6.382819580078125,-9.519645690917969,-10.963348388671875,10.10622501373291
1759335059111819800,6.39281982421875,-8.657732963562012,-9.96257209777832,8.909123420715332
1759335059121819600,6.402819580078125,-7.630620002746582,-9.275436401367188,7.788637638092041
1759335059131819800,6.41281982421875,-6.371270179748535,-8.638579368591309,6.8716583251953125
1759335059141819600,6.422819580078125,-5.468656063079834,-8.358457565307617,6.177339553833008
1759335059151818800,6.43281884765625,-5.925948619842529,-7.563582420349121,6.210858345031738
1759335059161819000,6.44281884765625,-7.027281284332275,-7.175721645355225,6.4742207527160645
1759335059171818800,6.45281884765625,-6.771101474761963,-7.096713066101074,6.728005886077881
1759335059181819000,6.46281884765625,-6.615478515625,-7.333739280700684,6.459855556488037
1759335059191818800,6.47281884765625,-5.904400825500488,-8.087912559509277,6.024110794067383
1759335059201819000,6.48281884765625,-6.237194538116455,-9.598653793334961,5.866093635559082
1759335059211818800,6.49281884765625,-4.2090067863464355,-11.56668758392334,5.882853031158447
1759335059221819000,6.50281884765625,-1.1061211824417114,-13.903428077697754,5.466261863708496
1759335059231818800,6.51281884765625,-0.15083470940589905,-14.650419235229492,3.8714241981506348
1759335059241819000,6.52281884765625,-1.920149803161621,-13.438953399658203,1.5729905366897583
1759335059251819500,6.532819580078125,-2.434903144836426,-10.35761547088623,0.22266076505184174
1759335059261819600,6.542819580078125,-1.036689281463623,-8.815750122070312,-0.26096799969673157
1759335059271819500,6.552819580078125,-0.8643068075180054,-8.41352367401123,-0.8403648138046265
1759335059281819600,6.562819580078125,-1.9153614044189453,-8.368034362792969,-0.9792284965515137
1759335059291819500,6.572819580078125,-1.4508862495422363,-8.186075210571289,-0.5363011956214905
1759335059301819600,6.582819580078125,0.12210428714752197,-8.293813705444336,0.05985504388809204
1759335059311819800,6.59281982421875,1.9991583824157715,-8.588300704956055,0.933738648891449
1759335059321819600,6.602819580078125,3.0190882682800293,-8.964190483093262,1.5849615335464478
1759335059331819800,6.61281982421875,3.028665065765381,-9.3735990524292,2.121262788772583
1759335059341819600,6.622819580078125,2.4372973442077637,-9.718363761901855,2.7126305103302
1759335059351818800,6.63281884765625,1.845929503440857,-9.687239646911621,2.851494312286377
1759335059361819000,6.64281884765625,1.280897855758667,-9.416694641113281,2.8395233154296875
1759335059371818800,6.65281884765625,0.7565677165985107,-9.059958457946777,2.8562827110290527
1759335059381819000,6.66281884765625,0.8523358106613159,-8.810961723327637,2.940079689025879
1759335059391818800,6.67281884765625,1.036689281463623,-8.925883293151855,3.270479440689087
1759335059401819000,6.68281884765625,1.3503297567367554,-9.478943824768066,4.165910720825195
1759335059411818800,6.69281884765625,1.3646949529647827,-10.111013412475586,5.013757705688477
1759335059421819000,6.70281884765625,0.43095630407333374,-9.964966773986816,6.0504469871521
1759335059431818800,6.71281884765625,-1.0103530883789062,-9.304166793823242,7.05601167678833
1759335059441818600,6.722818603515625,-2.1954829692840576,-8.70801067352295,7.5755534172058105
1759335059451819300,6.7328193359375,-2.0901381969451904,-8.363245964050293,7.403171062469482
1759335059461819400,6.7428193359375,-1.5418659448623657,-8.28902530670166,6.941090106964111
1759335059471819300,6.7528193359375,-0.6631938815116882,-8.279448509216309,6.47900915145874
1759335059481819400,6.7628193359375,-0.16759411990642548,-7.984961986541748,5.743988990783691
1759335059491819300,6.7728193359375,-0.05506663769483566,-7.281066417694092,4.961085319519043
1759335059501819400,6.7828193359375,0.40462008118629456,-6.917148113250732,4.383783340454102
1759335059511819300,6.7928193359375,0.8236053586006165,-6.907571315765381,3.60566782951355
1759335059521819400,6.8028193359375,1.3024457693099976,-7.1781158447265625,2.7700912952423096
1759335059531819300,6.8128193359375,1.9249382019042969,-7.984961986541748,2.183511972427368
1759335059541819400,6.8228193359375,1.7381904125213623,-8.61703109741211,2.0422539710998535
1759335059551818500,6.832818603515625,1.0965443849563599,-8.449437141418457,2.2816741466522217
1759335059561818600,6.842818603515625,0.26096799969673157,-8.19804573059082,2.5905263423919678
1759335059571818500,6.852818603515625,-0.8092401623725891,-8.008903503417969,2.8874073028564453
1759335059581818600,6.862818603515625,-1.5418659448623657,-7.793426036834717,2.9759926795959473
1759335059591818500,6.872818603515625,-1.9560627937316895,-7.805397033691406,3.0406360626220703
1759335059601818600,6.882818603515625,-1.987187385559082,-8.054393768310547,3.2106244564056396
1759335059611818500,6.892818603515625,-1.7310078144073486,-7.965808391571045,3.3231520652770996
1759335059621818400,6.902818359375,-1.4676456451416016,-7.604283809661865,3.2297780513763428
1759335059631818500,6.912818603515625,-1.0654197931289673,-7.403171062469482,3.227383852005005
1759335059641818400,6.922818359375,-0.5554547905921936,-7.343316078186035,3.3016040325164795
1759335059651819300,6.9328193359375,-0.05985504388809204,-7.393594264984131,3.421314239501953
1759335059661819400,6.9428193359375,0.20350714027881622,-7.50851583480835,3.536235809326172
1759335059671819300,6.9528193359375,0.24420857429504395,-7.654561996459961,3.624821424484253
1759335059681819400,6.9628193359375,0.1628057211637497,-7.786243438720703,3.8331170082092285
1759335059691819300,6.9728193359375,0.12449848651885986,-7.776666164398193,4.01268196105957
1759335059701819400,6.9828193359375,0.10055647045373917,-8.049605369567871,4.364629745483398
1759335059711819300,6.9928193359375,0.035913024097681046,-8.571541786193848,4.879383087158203
1759335059721819400,7.0028193359375,0.031124621629714966,-9.452607154846191,5.497386455535889
1759335059731819300,7.0128193359375,-0.22026655077934265,-10.23311710357666,5.9642558097839355
1759335059741819600,7.022819580078125,-0.9576807022094727,-10.484508514404297,6.256348133087158
1759335059751818800,7.03281884765625,-1.534683346748352,-10.173262596130371,6.452672958374023
1759335059761818600,7.042818603515625,-1.4508862495422363,-9.706393241882324,6.816591739654541
1759335059771818800,7.05281884765625,-0.2968810200691223,-9.419088363647461,7.623437404632568
1759335059781818600,7.062818603515625,0.40222588181495667,-9.557952880859375,8.090307235717773
1759335059791818800,7.07281884765625,-0.12689268589019775,-10.084676742553711,8.01608657836914
1759335059801818600,7.082818603515625,-1.0342950820922852,-11.066299438476562,7.814973831176758
1759335059811818800,7.09281884765625,-1.479616641998291,-12.186785697937012,7.690474987030029
1759335059821818600,7.102818603515625,-1.9991583824157715,-12.780548095703125,6.562806129455566
1759335059831818800,7.11281884765625,-2.073378562927246,-13.288118362426758,5.7200469970703125
1759335059841818600,7.122818603515625,-1.290474772453308,-13.596970558166504,5.047276496887207
1759335059851819500,7.132819580078125,-0.24181437492370605,-13.862727165222168,4.572925090789795
1759335059861819600,7.142819580078125,0.8164227604866028,-13.975255012512207,4.613626480102539
1759335059871819500,7.152819580078125,0.9911994934082031,-13.879486083984375,4.321534156799316
1759335059881819600,7.162819580078125,0.5554547905921936,-12.682385444641113,3.6846764087677
1759335059891819500,7.172819580078125,0.004788403399288654,-11.018415451049805,2.9305028915405273
1759335059901819100,7.182819091796875,-0.17717093229293823,-9.89314079284668,2.5977089405059814
1759335059911819300,7.1928193359375,-0.6200982332229614,-9.000102996826172,2.164358377456665
1759335059921819100,7.202819091796875,-0.6823474764823914,-8.858845710754395,1.9129672050476074
1759335059931819300,7.2128193359375,0.6488286852836609,-9.514857292175293,1.922544002532959
1759335059941819100,7.222819091796875,1.2425906658172607,-10.570699691772461,1.802833914756775
1759335059951818500,7.232818603515625,1.2330138683319092,-11.865962982177734,1.9800047874450684
1759335059961818400,7.242818359375,0.9959878921508789,-12.4262056350708,2.3319525718688965
1759335059971818500,7.252818603515625,1.036689281463623,-12.4693021774292,2.911349296569824
1759335059981818400,7.262818359375,0.9552865028381348,-12.409446716308594,3.0765492916107178
1759335059991818500,7.272818603515625,-0.05746084079146385,-12.213122367858887,2.873042106628418
1759335060001818400,7.282818359375,-1.4484920501708984,-12.249034881591797,2.80361008644104
1759335060011818500,7.292818603515625,-2.123656988143921,-12.160449981689453,3.0885202884674072
1759335060021818400,7.302818359375,-2.8586769104003906,-12.375927925109863,2.9879636764526367
1759335060031818500,7.312818603515625,-2.9161376953125,-12.53633975982666,2.894589900970459
1759335060041818400,7.322818359375,-2.1763293743133545,-12.600982666015625,2.7748796939849854
1759335060051819300,7.3328193359375,-0.6488286852836609,-12.004826545715332,2.6815059185028076
1759335060061819100,7.342819091796875,1.3646949529647827,-10.999261856079102,2.6168625354766846
1759335060071819300,7.3528193359375,1.8171991109848022,-10.13974380493164,2.652775526046753
1759335060081819100,7.362819091796875,1.8411411046981812,-9.505280494689941,2.7700912952423096
1759335060091819300,7.3728193359375,1.4245500564575195,-9.452607154846191,3.598485231399536
1759335060101819100,7.382819091796875,0.8403648138046265,-9.246706008911133,4.766855716705322
1759335060111819300,7.3928193359375,-0.40462008118629456,-8.676886558532715,5.135861873626709
1759335060121819100,7.402819091796875,0.5315127968788147,-7.980173587799072,5.035305500030518
1759335060131819300,7.4128193359375,1.1324573755264282,-7.029675483703613,4.479551315307617
1759335060141819100,7.422819091796875,-0.22026655077934265,-6.218040943145752,3.1507694721221924
1759335060151818500,7.432818603515625,-2.274491548538208,-5.626673221588135,2.2218191623687744
1759335060161818400,7.442818359375,-3.308786630630493,-5.087977886199951,1.2665326595306396
1759335060171818500,7.452818603515625,-3.3446998596191406,-4.5609540939331055,0.19871874153614044
1759335060181818400,7.462818359375,-2.9903578758239746,-4.039018154144287,-0.24420857429504395
1759335060191818500,7.472818603515625,-2.693476915359497,-3.6822822093963623,-0.3280056416988373
1759335060201819000,7.48281884765625,-2.1475989818573,-3.450044631958008,-0.05746084079146385
1759335060211818800,7.49281884765625,-1.8938134908676147,-3.450044631958008,0.27054479718208313
1759335060221819000,7.50281884765625,-1.5490485429763794,-3.56017804145813,0.6272808313369751
1759335060231818800,7.51281884765625,-1.2761094570159912,-3.84269380569458,0.8164227604866028
1759335060241819000,7.52281884765625,-1.5418659448623657,-3.6128504276275635,0.9265560507774353
1759335060251819500,7.532819580078125,-2.073378562927246,-3.2130186557769775,0.8595184087753296
1759335060261819600,7.542819580078125,-2.674323320388794,-2.9712042808532715,0.8427590131759644
1759335060271819500,7.552819580078125,-3.1890766620635986,-2.9712042808532715,0.9768342971801758
1759335060281819600,7.562819580078125,-3.622427225112915,-3.2321722507476807,1.3742717504501343
1759335060291819500,7.572819580078125,-4.091690540313721,-3.794809579849243,1.721431016921997
1759335060301819600,7.582819580078125,-4.757278919219971,-4.7189717292785645,2.0877439975738525
1759335060311819800,7.59281982421875,-5.918766021728516,-5.755959987640381,2.827552318572998
1759335060321819600,7.602819580078125,-6.909965515136719,-7.1350202560424805,3.861847400665283
1759335060331819800,7.61281982421875,-7.898770809173584,-8.74152946472168,5.571606636047363
1759335060341819600,7.622819580078125,-8.74152946472168,-10.874763488769531,8.312967300415039
1759335060351818800,7.63281884765625,-8.952219009399414,-12.909834861755371,10.910676002502441
1759335060361819000,7.64281884765625,-8.88757610321045,-14.305654525756836,12.823643684387207
1759335060371818800,7.65281884765625,-8.432677268981934,-13.407828330993652,12.543521881103516
1759335060381819000,7.66281884765625,-7.218817234039307,-11.379940032958984,10.71674633026123
1759335060391818800,7.67281884765625,-6.2946553230285645,-9.251494407653809,8.657732963562012
1759335060401819000,7.68281884765625,-5.602731227874756,-7.309797286987305,6.567594528198242
1759335060411818800,7.69281884765625,-6.024110794067383,-5.739200592041016,5.777507781982422
1759335060421819000,7.70281884765625,-6.747159481048584,-4.546588897705078,5.447108268737793
1759335060431818800,7.71281884765625,-6.644208908081055,-4.6040496826171875,5.241206645965576
1759335060441819000,7.72281884765625,-6.359299182891846,-5.4351372718811035,4.857835292816162
1759335060451819800,7.73281982421875,-5.909189224243164,-7.319374084472656,4.01268196105957
1759335060461819600,7.742819580078125,-6.921936511993408,-9.914688110351562,3.5721490383148193
1759335060471819800,7.75281982421875,-6.510133743286133,-12.871527671813965,3.8163576126098633
1759335060481819600,7.762819580078125,-4.702212333679199,-16.300323486328125,4.704606533050537
1759335060491819800,7.77281982421875,-2.918531894683838,-17.873313903808594,5.530905246734619
1759335060501819600,7.782819580078125,-2.7293899059295654,-15.893309593200684,5.107131481170654
1759335060511819800,7.79281982421875,-1.5083470344543457,-10.721534729003906,3.5889084339141846
1759335060521819600,7.802819580078125,0.727837324142456,-8.279448509216309,1.5825673341751099
1759335060531819800,7.81281982421875,0.6368576288223267,-7.735964775085449,-0.5027823448181152
1759335060541819600,7.822819580078125,-0.7086837291717529,-7.6425909996032715,-1.778891921043396
1759335060551819000,7.832819091796875,-0.8020575642585754,-7.747935771942139,-1.290474772453308
1759335060561819000,7.84281884765625,-0.033518824726343155,-8.035240173339844,-0.33758243918418884
1759335060571819000,7.852819091796875,1.644816517829895,-8.353669166564941,0.751779317855835
1759335060581819000,7.86281884765625,2.9161376953125,-8.633790969848633,1.4700398445129395
1759335060591819000,7.872819091796875,3.3016040325164795,-8.935460090637207,2.1475989818573
1759335060601818600,7.882818603515625,2.7724854946136475,-9.371204376220703,2.698265314102173
1759335060611818500,7.892818603515625,2.1523873805999756,-9.49809741973877,2.875436305999756
1759335060621818400,7.902818359375,1.5969325304031372,-9.634567260742188,3.0334534645080566
1759335060631818500,7.912818603515625,1.216254472732544,-9.510068893432617,3.2609026432037354
1759335060641818400,7.922818359375,1.048660397529602,-9.277831077575684,3.514688014984131
1759335060651819300,7.9328193359375,1.2018892765045166,-9.215581893920898,3.799597978591919
1759335060661819400,7.9428193359375,1.1276689767837524,-9.433453559875488,4.376600742340088
1759335060671819300,7.9528193359375,0.44771572947502136,-9.268254280090332,5.011363506317139
1759335060681819400,7.9628193359375,-1.0127472877502441,-8.815750122070312,5.95946741104126
1759335060691819300,7.9728193359375,-2.078166961669922,-8.882787704467773,6.610690116882324
1759335060701819400,7.9828193359375,-2.231395959854126,-9.10066032409668,6.754342079162598
1759335060711819300,7.9928193359375,-1.623268723487854,-9.186851501464844,6.514922142028809
1759335060721819400,8.0028193359375,-1.2976573705673218,-8.885181427001953,6.153397560119629
1759335060731819300,8.0128193359375,-0.9768342971801758,-8.186075210571289,5.6984992027282715
1759335060741819400,8.0228193359375,-0.5147533416748047,-7.7527241706848145,5.0376996994018555
1759335060751818500,8.032818603515626,-0.15083470940589905,-7.307403087615967,4.462791919708252
1759335060761818400,8.042818359375,0.5482721924781799,-6.744765281677246,3.8067808151245117
1759335060771818500,8.052818603515625,0.8834604024887085,-7.060800075531006,3.0166940689086914
1759335060781818400,8.062818359375,1.9033904075622559,-8.03763484954834,2.5546131134033203
1759335060791818500,8.072818603515625,2.2194249629974365,-8.827720642089844,2.827552318572998
1759335060801818400,8.082818359375,1.6208745241165161,-8.619425773620605,3.246537446975708
1759335060811818500,8.092818603515624,1.01753568649292,-8.207622528076172,3.622427225112915
1759335060821818400,8.102818359375,0.21547815203666687,-7.913136005401611,3.823540210723877
1759335060831818500,8.112818603515626,-0.22505496442317963,-7.819762229919434,4.132391929626465
1759335060841818400,8.122818359375,-0.6033388376235962,-7.8221564292907715,4.082113742828369
1759335060851819300,8.1328193359375,-0.8403648138046265,-7.656956195831299,3.9887399673461914
1759335060861819100,8.142819091796875,-1.139639973640442,-7.520486831665039,3.7900211811065674
1759335060871819300,8.1528193359375,-1.482010841369629,-7.395988464355469,3.5865142345428467
1759335060881819100,8.162819091796875,-1.625662922859192,-7.2427592277526855,3.28963303565979
1759335060891819300,8.1728193359375,-1.5682021379470825,-7.187692642211914,3.1220390796661377
1759335060901819600,8.182819580078124,-1.3024457693099976,-7.23797082901001,2.9161376953125
1759335060911819800,8.19281982421875,-0.8236053586006165,-7.3600754737854,2.9233202934265137
1759335060921819600,8.202819580078126,-0.363918662071228,-7.544428825378418,3.095702886581421
1759335060931819800,8.21281982421875,-0.019153613597154617,-7.7072343826293945,3.354276657104492
1759335060941819600,8.222819580078125,0.40222588181495667,-7.8437042236328125,3.737348794937134
1759335060951818800,8.23281884765625,0.6392518281936646,-7.8652520179748535,4.094084739685059
1759335060961819000,8.24281884765625,0.7996633648872375,-7.898770809173584,4.637568473815918
1759335060971818800,8.25281884765625,0.8595184087753296,-8.121431350708008,5.195716857910156
1759335060981819000,8.26281884765625,0.5530605912208557,-8.595483779907227,5.712864398956299
1759335060991818800,8.27281884765625,-0.14844051003456116,-9.3735990524292,6.2084641456604
1759335061001819000,8.28281884765625,-1.070208191871643,-9.998485565185547,6.438307762145996
1759335061011818800,8.29281884765625,-1.6735470294952393,-10.012850761413574,6.3425397872924805
1759335061021819000,8.30281884765625,-1.6903064250946045,-9.742305755615234,6.258742332458496
1759335061031818800,8.31281884765625,-0.6224924325942993,-9.572318077087402,6.519710540771484
1759335061041819000,8.32281884765625,-0.20111294090747833,-9.615413665771484,7.048829078674316
1759335061051819800,8.33281982421875,0.3280056416988373,-10.431836128234863,8.233959197998047
1759335061061819600,8.342819580078125,-1.359906554222107,-11.32966136932373,8.490138053894043
1759335061071819800,8.35281982421875,-1.9608511924743652,-12.193968772888184,8.810961723327637
1759335061081819100,8.362819091796876,-2.27209734916687,-13.098977088928223,7.721599578857422
1759335061091819300,8.3728193359375,-1.414973258972168,-14.126089096069336,6.237194538116455
1759335061101819100,8.382819091796875,-0.31364041566848755,-14.782400131225586,4.92996072769165
1759335061111819300,8.3928193359375,0.9672574996948242,-15.064915657043457,3.950432777404785
1759335061121819100,8.402819091796875,1.278503656387329,-14.497190475463867,2.9712042808532715
1759335061131819300,8.4128193359375,1.1324573755264282,-12.914623260498047,2.1787235736846924
1759335061141819100,8.422819091796875,0.8667010068893433,-10.812514305114746,1.9632453918457031
1759335061151818500,8.432818603515624,0.20111294090747833,-9.811738014221191,2.738966703414917
1759335061161818400,8.442818359375,-0.45010992884635925,-9.241917610168457,3.292027235031128
1759335061171818500,8.452818603515626,-1.0749965906143188,-8.949825286865234,3.1507694721221924
1759335061181818400,8.462818359375,-0.6153098344802856,-9.423876762390137,2.889801502227783
1759335061191818500,8.472818603515625,1.2425906658172607,-10.609006881713867,2.6216509342193604
1759335061201818400,8.482818359375,1.6950948238372803,-12.057498931884766,2.2002713680267334
1759335061211818200,8.492818359375,0.9433154463768005,-12.976872444152832,1.9608511924743652
1759335061221818400,8.502818359375,0.4165911078453064,-13.264176368713379,1.7597382068634033
1759335061231818200,8.512818359375,0.6033388376235962,-13.307271957397461,1.9345149993896484
1759335061241818400,8.522818359375,-0.16519992053508759,-13.000814437866211,1.824381709098816
1759335061251819300,8.5328193359375,-1.1683704853057861,-12.598588943481445,1.6831238269805908
1759335061261819100,8.542819091796876,-1.742978811264038,-12.064682006835938,1.8626888990402222
1759335061271819300,8.5528193359375,-2.2840683460235596,-11.42064094543457,2.2242133617401123
1759335061281819100,8.562819091796875,-2.183511972427368,-11.22671127319336,2.8155810832977295
1759335061291819300,8.5728193359375,-1.6352397203445435,-11.08066463470459,3.2369606494903564
1759335061301819100,8.582819091796875,-0.5530605912208557,-10.316914558410645,3.3518824577331543
1759335061311819300,8.5928193359375,0.038307227194309235,-9.68005657196045,3.711012601852417
1759335061321819000,8.60281884765625,0.17956513166427612,-9.569923400878906,3.9624037742614746
1759335061331818800,8.61281884765625,0.08858546614646912,-9.555558204650879,4.311957359313965
1759335061341819000,8.62281884765625,0.2346317619085312,-9.447818756103516,5.131073474884033
1759335061351818000,8.63281787109375,0.021547814831137657,-9.22515869140625,5.578789234161377
1759335061361817900,8.64281787109375,0.3064578175544739,-8.542811393737793,5.222053050994873
1759335061371818000,8.65281787109375,0.9624691009521484,-7.350498676300049,4.477157115936279
1759335061381818400,8.662818359375,0.42616790533065796,-6.409577369689941,3.6535518169403076
1759335061391818200,8.672818359375,-0.8307880163192749,-5.660192012786865,2.80361008644104
1759335061401818400,8.682818359375,-2.0853497982025146,-5.32739782333374,1.6879122257232666
1759335061411818200,8.692818359375,-2.3535003662109375,-5.166986465454102,0.8786720037460327
1759335061421818400,8.702818359375,-2.454056739807129,-4.934749126434326,0.12928688526153564
1759335061431818200,8.712818359375,-2.2816741466522217,-4.474762916564941,-0.5219359993934631
1759335061441818400,8.722818359375,-2.185906171798706,-4.003105163574219,-0.7805097699165344
1759335061451819300,8.7328193359375,-1.9704279899597168,-3.6942532062530518,-0.6631938815116882
1759335061461819100,8.742819091796875,-1.8986018896102905,-3.536235809326172,-0.26096799969673157
1759335061471819300,8.7528193359375,-1.8626888990402222,-3.6104562282562256,0.12210428714752197
1759335061481819100,8.762819091796874,-1.8842366933822632,-3.7158010005950928,0.47644615173339844
1759335061491819300,8.7728193359375,-1.946485996246338,-3.383007049560547,0.8068459630012512
1759335061501819100,8.782819091796876,-2.293645143508911,-3.203441858291626,0.7350199222564697
1759335061511819300,8.7928193359375,-3.0095114707946777,-2.8802247047424316,0.7637503147125244
1759335061521819100,8.802819091796875,-3.246537446975708,-2.920926094055176,0.9050082564353943
1759335061531819300,8.8128193359375,-3.6846764087677,-3.7445313930511475,1.335964560508728
1759335061541819100,8.822819091796875,-4.2329487800598145,-4.8482584953308105,2.161964178085327
1759335061551818200,8.832818359375,-5.229235649108887,-6.071994781494141,3.1507694721221924
1759335061561818400,8.842818359375,-6.878840923309326,-7.254730224609375,4.865017890930176
1759335061571818200,8.852818359375,-8.7391357421875,-9.332897186279297,7.958625793457031
1759335061581818400,8.862818359375,-9.34965705871582,-12.035951614379883,11.217134475708008
1759335061591818200,8.872818359375,-9.009679794311523,-14.494796752929688,13.625700950622559
1759335061601818400,8.882818359375,-8.41352367401123,-14.504373550415039,13.501202583312988
1759335061611818200,8.892818359375,-7.513304233551025,-12.75181770324707,11.324872970581055
1759335061621818600,8.902818603515625,-6.641814708709717,-10.834061622619629,8.961795806884766
1759335061631818800,8.91281884765625,-6.452672958374023,-8.743924140930176,7.029675483703613
1759335061641818600,8.922818603515625,-6.577171325683594,-7.530063629150391,5.90200662612915
1759335061651819500,8.932819580078124,-6.864475727081299,-6.043264389038086,5.708076000213623
1759335061661819600,8.942819580078124,-6.555623531341553,-4.242525577545166,5.830180644989014
1759335061671819500,8.952819580078126,-6.979397296905518,-2.808398485183716,5.811026573181152
1759335061681819600,8.962819580078126,-7.075165271759033,-3.4548330307006836,5.308244228363037
1759335061691819500,8.972819580078125,-6.146214962005615,-5.188534259796143,4.537012100219727
1759335061701819600,8.982819580078125,-5.753565788269043,-7.690474987030029,3.931279182434082
1759335061711819500,8.992819580078125,-4.910807132720947,-11.157279014587402,3.4093432426452637
1759335061721819600,9.002819580078125,-2.609679937362671,-16.094423294067383,3.428496837615967
1759335061731819500,9.012819580078125,-1.0103530883789062,-20.3944091796875,4.323928356170654
1759335061741819600,9.022819580078124,-3.28963303565979,-21.830928802490234,4.802768707275391
1759335061751818800,9.03281884765625,-4.331110954284668,-14.988301277160645,3.7493197917938232
1759335061761818600,9.042818603515625,-0.5937620401382446,-8.25550651550293,2.2457611560821533
1759335061771818800,9.05281884765625,0.9265560507774353,-5.4351372718811035,-0.6320692300796509
1759335061781818400,9.062818359375,-1.580173134803772,-5.4159836769104,-2.631227731704712
1759335061791818500,9.072818603515625,-2.0159177780151367,-6.186916351318359,-2.983175277709961
1759335061801818400,9.082818359375,-0.5506663918495178,-7.28346061706543,-1.8387469053268433
1759335061811818500,9.092818603515624,1.7381904125213623,-8.28663158416748,-0.5506663918495178
1759335061821818400,9.102818359375,3.44765043258667,-9.280224800109863,0.646434485912323
1759335061831818500,9.112818603515626,3.706224203109741,-10.170867919921875,1.8626888990402222
1759335061841818600,9.122818603515626,3.5386300086975098,-10.597036361694336,2.8107926845550537
1759335061851819300,9.1328193359375,3.354276657104492,-10.62576675415039,3.2537200450897217
1759335061861819400,9.1428193359375,3.3949780464172363,-10.541969299316406,3.7876269817352295
1759335061871819300,9.1528193359375,3.2417490482330322,-10.314519882202148,4.003105163574219
1759335061881819400,9.1628193359375,2.564189910888672,-10.398317337036133,4.501099109649658
1759335061891819300,9.1728193359375,1.525106430053711,-10.333673477172852,5.181351661682129
1759335061901819400,9.1828193359375,0.5889736413955688,-10.082283020019531,5.837363243103027
1759335061911819500,9.192819580078124,-0.6560112833976746,-9.330503463745117,6.617872714996338
1759335061921819400,9.2028193359375,-1.6927006244659424,-8.906729698181152,7.328950881958008
1759335061931819500,9.212819580078126,-1.845929503440857,-9.13657283782959,7.700051784515381
1759335061941819400,9.2228193359375,-1.0223240852355957,-9.536404609680176,7.321768283843994
1759335061951818800,9.23281884765625,-0.7038952708244324,-9.007286071777344,6.550835132598877
1759335061961818600,9.242818603515625,-0.9074024558067322,-8.248324394226074,5.7200469970703125
1759335061971818800,9.25281884765625,-1.05105459690094,-7.690474987030029,4.795586109161377
1759335061981818600,9.262818603515624,-0.9169792532920837,-7.300220489501953,3.8307228088378906
1759335061991818800,9.27281884765625,-0.3256114423274994,-7.070376873016357,3.028665065765381
1759335062001818600,9.282818603515626,0.2777273952960968,-7.036858081817627,2.3343467712402344
1759335062011818800,9.29281884765625,0.6775590777397156,-7.106289863586426,1.7334020137786865
1759335062021818600,9.302818603515625,0.993593692779541,-7.352892875671387,1.534683346748352
1759335062031818800,9.31281884765625,1.0869675874710083,-7.594707012176514,1.7070658206939697
1759335062041818600,9.322818603515625,1.3239935636520386,-7.688080787658691,2.0901381969451904
1759335062051819500,9.332819580078125,0.8619126081466675,-7.956231594085693,2.801215887069702
1759335062061819400,9.3428193359375,0.07661445438861847,-7.9083476066589355,3.7205893993377686
1759335062071819500,9.352819580078124,-0.8331822156906128,-7.76948356628418,4.225766181945801
1759335062081819600,9.362819580078124,-1.2497732639312744,-7.719205379486084,4.529829502105713
1759335062091819800,9.37281982421875,-1.4844050407409668,-7.7287821769714355,4.671087741851807
1759335062101820000,9.38281982421875,-1.6496049165725708,-7.577947616577148,4.371812343597412
1759335062111819800,9.39281982421875,-1.5873557329177856,-7.276278018951416,3.9671921730041504
1759335062121819600,9.402819580078125,-1.256955862045288,-7.036858081817627,3.643975019454956
1759335062131819800,9.41281982421875,-0.8738836050033569,-6.941090106964111,3.466804027557373
1759335062141819600,9.422819580078125,-0.43335050344467163,-7.017704486846924,3.4141316413879395
1759335062151818800,9.43281884765625,-0.016759412363171577,-7.235576629638672,3.5266590118408203
1759335062161819000,9.44281884765625,0.1604115068912506,-7.5109100341796875,3.6798880100250244
1759335062171818800,9.45281884765625,0.1364694982767105,-7.767089366912842,3.8810009956359863
1759335062181819000,9.46281884765625,0.38307225704193115,-7.896376609802246,4.185064792633057
1759335062191818800,9.47281884765625,0.629675030708313,-7.9945387840271,4.486733913421631
1759335062201819000,9.48281884765625,0.9002198576927185,-8.281843185424805,4.9922099113464355
1759335062211818800,9.49281884765625,0.8259995579719543,-8.928277015686035,5.404012680053711
1759335062221819000,9.50281884765625,0.06224924325942993,-9.80455493927002,5.729623794555664
1759335062231818800,9.51281884765625,-1.5179238319396973,-10.826879501342773,6.0504469871521
1759335062241819000,9.52281884765625,-2.937685489654541,-11.051934242248535,5.966650009155273
1759335062251819500,9.532819580078124,-3.1866824626922607,-10.680832862854004,5.648221015930176
1759335062261819600,9.542819580078126,-2.497152328491211,-10.16368579864502,5.50696325302124
1759335062271819500,9.552819580078125,-1.2713210582733154,-10.027215957641602,5.851728439331055
1759335062281819600,9.562819580078125,-0.33997663855552673,-10.41507625579834,6.56998872756958
1759335062291819500,9.572819580078125,0.18914192914962769,-10.927435874938965,7.659350395202637
1759335062301819600,9.582819580078125,-0.5003881454467773,-11.660061836242676,8.34409236907959
1759335062311819500,9.592819580078125,-1.6903064250946045,-12.4262056350708,8.07115364074707
1759335062321819600,9.602819580078124,-1.1899182796478271,-13.225869178771973,7.23797082901001
1759335062331819500,9.612819580078124,0.1867477297782898,-14.274529457092285,6.486191749572754
1759335062341819600,9.622819580078126,1.400607943534851,-15.000271797180176,5.423166275024414
1759335062351818800,9.63281884765625,1.941697597503662,-14.66478443145752,4.1180267333984375
1759335062361818600,9.642818603515625,1.702277421951294,-13.611335754394531,2.8443117141723633
1759335062371818800,9.65281884765625,1.1468225717544556,-11.87075138092041,1.9991583824157715
1759335062381818600,9.662818603515625,-0.26096799969673157,-10.838850021362305,2.3558945655822754
1759335062391818800,9.67281884765625,-0.9744400978088379,-10.304943084716797,3.0861260890960693
1759335062401818600,9.682818603515624,-0.6536170840263367,-9.955389976501465,2.7437551021575928
1759335062411818800,9.69281884765625,-0.8092401623725891,-9.648932456970215,2.7485435009002686
1759335062421818600,9.702818603515626,-1.2090718746185303,-10.101436614990234,2.9951462745666504
1759335062431818800,9.71281884765625,0.304063618183136,-10.573094367980957,2.561795711517334
1759335062441818600,9.722818603515625,1.194706678390503,-11.466131210327148,2.4013843536376953
1759335062451819500,9.732819580078125,1.5514427423477173,-12.39029312133789,2.5091233253479004
1759335062461819600,9.742819580078125,1.015141487121582,-12.471695899963379,2.4420857429504395
1759335062471819500,9.752819580078125,0.706289529800415,-12.201150894165039,2.7772738933563232
1759335062481819100,9.762819091796874,0.2825157940387726,-11.616966247558594,3.0358476638793945
1759335062491819300,9.7728193359375,-0.7948749661445618,-11.02320384979248,2.717418909072876
1759335062501819100,9.782819091796876,-1.678335428237915,-10.893917083740234,2.8562827110290527
1759335062511819300,9.7928193359375,-1.3120225667953491,-10.738293647766113,2.9951462745666504
1759335062521819100,9.802819091796875,-0.7757213711738586,-10.252270698547363,2.801215887069702
1759335062531819300,9.8128193359375,-0.07900865375995636,-10.118195533752441,2.691082715988159
1759335062541819100,9.822819091796875,-0.26336219906806946,-10.431836128234863,2.9041666984558105
1759335062551818500,9.832818603515625,-1.170764684677124,-10.589853286743164,3.3518824577331543
1759335062561818400,9.842818359375,-1.436521053314209,-10.314519882202148,3.88818359375
1759335062571818500,9.852818603515624,-2.1140801906585693,-10.453383445739746,5.028122901916504
1759335062581818400,9.862818359375,-1.920149803161621,-10.151714324951172,5.535693645477295
1759335062591818500,9.872818603515626,-1.3287819623947144,-9.615413665771484,5.68892240524292
1759335062601818400,9.882818359375,0.035913024097681046,-8.782231330871582,5.7415947914123535
1759335062611818200,9.892818359375,0.8810662031173706,-7.5875244140625,4.973056316375732
1759335062621818400,9.902818359375,2.056619167327881,-6.531681537628174,4.0294413566589355
1759335062631818200,9.912818359375,1.115697979927063,-5.849334239959717,3.069366693496704
1759335062641818400,9.922818359375,0.06703764945268631,-5.360917091369629,2.22660756111145
1759335062651819300,9.9328193359375,-1.1324573755264282,-5.025728702545166,1.3838485479354858
1759335062661819100,9.942819091796874,-2.360682964324951,-4.51067590713501,0.3758896589279175
1759335062671819300,9.9528193359375,-2.4588451385498047,-4.089296340942383,-0.7445967197418213
1759335062681819100,9.962819091796876,-2.008735179901123,-3.861847400665283,-1.7980455160140991
1759335062691819300,9.9728193359375,-1.6041151285171509,-3.287238836288452,-2.367865562438965
1759335062701819100,9.982819091796875,-1.558625340461731,-2.978386878967285,-2.1571757793426514
1759335062711819300,9.9928193359375,-2.013523578643799,-2.650381326675415,-1.4413094520568848
1759335062721819100,10.002819091796875,-2.233790159225464,-2.2840683460235596,-0.47644615173339844
1759335062731819300,10.0128193359375,-2.276885747909546,-2.3487119674682617,-0.07661445438861847
1759335062741819100,10.022819091796874,-2.5330653190612793,-2.5785553455352783,0.023942016065120697
1759335062751818200,10.032818359375,-2.760514497756958,-3.3734302520751953,-0.19153612852096558
1759335062761818400,10.042818359375,-3.1914708614349365,-4.335899353027344,-0.3208230137825012
1759335062771818200,10.052818359375,-4.3406877517700195,-4.786009311676025,0.1412578970193863
1759335062781818600,10.062818603515625,-5.284302234649658,-5.590760231018066,1.1085153818130493
1759335062791818800,10.07281884765625,-7.1350202560424805,-7.407959461212158,2.298433542251587
1759335062801818600,10.082818603515625,-9.256282806396484,-10.44620132446289,5.054459095001221
1759335062811818800,10.09281884765625,-10.245088577270508,-13.738228797912598,9.019257545471191
1759335062821818600,10.102818603515624,-10.35761547088623,-16.582839965820312,12.675203323364258
1759335062831818800,10.11281884765625,-9.311349868774414,-16.43918800354004,14.015955924987793
1759335062841818600,10.122818603515626,-8.748712539672852,-13.630489349365234,11.964125633239746
1759335062851819500,10.132819580078126,-7.747935771942139,-10.585064888000488,8.638579368591309
1759335062861819600,10.142819580078125,-6.457461357116699,-7.644985198974609,5.47344446182251
1759335062871819500,10.152819580078125,-5.9427080154418945,-6.512527942657471,4.086902141571045
1759335062881819600,10.162819580078125,-5.86848783493042,-5.408801078796387,3.7924153804779053
1759335062891819500,10.172819580078125,-5.73441219329834,-5.195716857910156,3.9217023849487305
1759335062901819600,10.182819580078124,-4.388571739196777,-4.402936935424805,4.383783340454102
1759335062911819500,10.192819580078124,-3.0789434909820557,-6.845322132110596,4.915595531463623
1759335062921819600,10.202819580078126,-6.091148376464844,-11.988067626953125,5.95946741104126
1759335062931819500,10.212819580078126,-5.423166275024414,-13.745410919189453,6.416759967803955
1759335062941819600,10.222819580078125,-3.002328872680664,-15.325883865356445,5.990592002868652
1759335062951818800,10.23281884765625,-1.3623007535934448,-15.912463188171387,4.764461517333984
1759335062961819000,10.24281884765625,-3.667917013168335,-13.72625732421875,2.6384103298187256
1759335062971818800,10.25281884765625,-3.6966474056243896,-10.93222427368164,0.9026140570640564
1759335062981819000,10.26281884765625,-1.6615760326385498,-9.22755241394043,0.3878606855869293
1759335062991818800,10.27281884765625,-1.5298948287963867,-8.044816970825195,-0.05506663769483566
1759335063001819000,10.28281884765625,-1.5179238319396973,-7.439084053039551,-0.14365209639072418
1759335063011818800,10.29281884765625,-0.6775590777397156,-7.166144847869873,-0.1149216815829277
1759335063021819000,10.30281884765625,0.3471592366695404,-7.470208644866943,0.5219359993934631
1759335063031818800,10.31281884765625,2.6886885166168213,-8.408735275268555,0.9145850539207458
1759335063041819000,10.32281884765625,7.252336025238037,-11.016021728515625,0.8834604024887085
1759335063051819500,10.332819580078125,8.25550651550293,-13.158831596374512,1.3311761617660522
1759335063061819600,10.342819580078125,4.8482584953308105,-11.552322387695312,2.0661959648132324
1759335063071819500,10.352819580078124,1.8411411046981812,-9.115025520324707,2.695871114730835
1759335063081819600,10.362819580078124,-0.22026655077934265,-8.394370079040527,3.2776620388031006
1759335063091819500,10.372819580078126,-1.3862427473068237,-7.733570575714111,3.957615375518799
1759335063101819600,10.382819580078126,-1.800439715385437,-7.640196800231934,4.285621166229248
1759335063111819500,10.392819580078125,-1.6855180263519287,-7.764695167541504,4.505887508392334
1759335063121819600,10.402819580078125,-1.3096283674240112,-8.157344818115234,4.592078685760498
1759335063131819800,10.41281982421875,-0.8307880163192749,-8.16452693939209,4.594472885131836
1759335063151818800,10.43281884765625,0.05985504388809204,-8.552388191223145,4.577713489532471
1759335063161819000,10.44281884765625,0.12689268589019775,-8.779836654663086,4.7405195236206055
1759335063171818800,10.45281884765625,0.023942016065120697,-9.028834342956543,4.965873718261719
1759335063181819000,10.46281884765625,-0.24181437492370605,-8.743924140930176,5.0161519050598145
1759335063191818800,10.47281884765625,-0.27054479718208313,-8.19565200805664,4.81473970413208
1759335063201819000,10.48281884765625,-0.4836287498474121,-8.049605369567871,4.656722068786621
1759335063211818800,10.49281884765625,-0.35434186458587646,-8.315361976623535,4.546588897705078
1759335063221819000,10.50281884765625,-0.2849099934101105,-8.729558944702148,4.462791919708252
1759335063231818800,10.51281884765625,0.10773907601833344,-9.126996040344238,4.278438568115234
1759335063241819000,10.52281884765625,0.586579442024231,-9.217975616455078,4.1395745277404785
1759335063251819500,10.532819580078124,0.6344634294509888,-8.743924140930176,3.734954595565796
1759335063261819600,10.542819580078126,0.4165911078453064,-7.9969329833984375,3.1675288677215576
1759335063271819500,10.552819580078125,0.1388636976480484,-7.28346061706543,2.6599581241607666
1759335063281819600,10.562819580078125,0.15801730751991272,-7.211634635925293,2.454056739807129
1759335063291819500,10.572819580078125,0.49799394607543945,-7.750329971313477,2.7892448902130127
1759335063301819600,10.582819580078125,0.4596867263317108,-8.61463737487793,3.157952070236206
1759335063311819800,10.59281982421875,0.07182604819536209,-9.13417911529541,3.1962592601776123
1759335063321819600,10.602819580078124,-0.272938996553421,-10.027215957641602,2.983175277709961
1759335063331819800,10.61281982421875,-1.194706678390503,-8.097489356994629,2.8658595085144043
1759335063341819600,10.622819580078126,-3.1435868740081787,2.2170307636260986,3.620033025741577
1759335063351818800,10.63281884765625,-2.829946517944336,-3.801992416381836,3.2178070545196533
1759335063361819000,10.64281884765625,-0.6871358752250671,-10.008062362670898,3.5721490383148193
1759335063371818800,10.65281884765625,1.723825216293335,-11.672032356262207,4.005499362945557
1759335063381819000,10.66281884765625,1.5418659448623657,-10.003273963928223,4.060565948486328
1759335063391818800,10.67281884765625,0.08619125932455063,-9.74709415435791,3.313575267791748
1759335063401819000,10.68281884765625,-1.4173674583435059,-9.608230590820312,2.1308395862579346
1759335063411818800,10.69281884765625,-2.300827741622925,-9.179668426513672,1.1492167711257935
1759335063421819000,10.70281884765625,-1.9800047874450684,-9.055170059204102,0.569819986820221
1759335063431818800,10.71281884765625,-1.0869675874710083,-9.665691375732422,0.2777273952960968
1759335063441819000,10.72281884765625,-0.6224924325942993,-10.094253540039062,0.6703764796257019
1759335063451819500,10.732819580078125,-0.004788403399288654,-11.315296173095703,1.5634137392044067
1759335063461819600,10.742819580078125,0.22026655077934265,-12.351985931396484,2.9688100814819336
1759335063471820000,10.752820068359375,-1.3215993642807007,-11.576264381408691,4.144362926483154
1759335063481820000,10.76281982421875,-2.3989901542663574,-10.889128684997559,4.879383087158203
1759335063491820000,10.772820068359374,-2.3319525718688965,-10.743082046508789,4.922778129577637
1759335063501820000,10.78281982421875,-1.3407529592514038,-11.296142578125,4.63517427444458
1759335063511820000,10.792820068359376,-1.2401964664459229,-10.965743064880371,4.335899353027344
1759335063521820000,10.80281982421875,-3.4141316413879395,-10.103830337524414,3.756502389907837
1759335063531820000,10.812820068359375,-4.592078685760498,-9.378387451171875,3.222595453262329
1759335063541820000,10.82281982421875,-3.469198226928711,-8.813355445861816,3.155557870864868
1759335063551819000,10.832819091796875,-0.304063618183136,-8.8971529006958,3.6511576175689697
1759335063561819100,10.842819091796875,1.3910311460494995,-9.16769790649414,4.46518611907959
1759335063581819100,10.862819091796876,-0.2513911724090576,-10.07509994506836,7.721599578857422
1759335063591819000,10.872819091796876,-0.3878606855869293,-11.056722640991211,8.55717658996582
1759335063601819100,10.882819091796875,2.346317768096924,-12.117354393005371,8.399158477783203
1759335063611819000,10.892819091796875,4.137180328369141,-11.504438400268555,6.593930721282959
1759335063621819100,10.902819091796875,4.153939723968506,-10.640131950378418,4.235342979431152
1759335063631819000,10.912819091796875,3.97916316986084,-11.96173095703125,2.5091233253479004
1759335063641819100,10.922819091796875,0.2825157940387726,-10.877157211303711,2.6192567348480225
1759335063651820000,10.932820068359375,-0.16759411990642548,-11.552322387695312,2.779668092727661
1759335063661819600,10.942819580078124,1.2449848651885986,-12.280159950256348,2.980781078338623
1759335063671819500,10.952819580078126,1.7932571172714233,-12.581829071044922,2.52109432220459
1759335063681819600,10.962819580078126,2.365471363067627,-13.54190444946289,1.4269442558288574
1759335063691819500,10.972819580078125,2.980781078338623,-14.583381652832031,0.016759412363171577
1759335063701819600,10.982819580078125,3.378218650817871,-15.002666473388672,-1.2521674633026123
1759335063711819500,10.992819580078125,3.7900211811065674,-14.756063461303711,-1.4077905416488647
1759335063721819600,11.002819580078125,2.9735984802246094,-15.072097778320312,-0.5817909836769104
1759335063731819500,11.012819580078125,2.406172752380371,-14.899715423583984,0.22505496442317963
1759335063741819600,11.022819580078124,2.0685901641845703,-14.715362548828125,0.524330198764801
1759335063751818800,11.03281884765625,0.9624691009521484,-15.167866706848145,0.5267243981361389
1759335063761818600,11.042818603515625,-0.002394201699644327,-15.313912391662598,1.1563993692398071
1759335063771818500,11.052818603515625,-1.139639973640442,-15.220539093017578,2.145204782485962
1759335063781818400,11.062818359375,-2.118868589401245,-14.047080993652344,3.1244332790374756
1759335063791818500,11.072818603515625,-1.4245500564575195,-12.167632102966309,3.3446998596191406
1759335063801818400,11.082818359375,-1.192312479019165,-11.676820755004883,2.47560453414917
1759335063811818500,11.092818603515624,0.40462008118629456,-11.164462089538574,1.8052281141281128
1759335063821818400,11.102818359375,1.5179238319396973,-10.541969299316406,1.359906554222107
1759335063831818500,11.112818603515626,1.6543933153152466,-9.292196273803711,1.5322890281677246
1759335063841818400,11.122818359375,1.482010841369629,-8.578723907470703,1.4077905416488647
1759335063851819300,11.1328193359375,0.9864110946655273,-8.020874977111816,1.173158884048462
1759335063861819100,11.142819091796875,1.048660397529602,-6.012139797210693,0.8164227604866028
1759335063871819300,11.1528193359375,2.7700912952423096,-6.749553680419922,0.7350199222564697
1759335063881819100,11.162819091796875,3.2968156337738037,-7.264307022094727,1.0319008827209473
1759335063891818800,11.17281884765625,4.041412353515625,-7.412747859954834,2.011129379272461
1759335063901819000,11.18281884765625,3.141192674636841,-7.939472198486328,2.8826189041137695
1759335063911818800,11.19281884765625,1.6184803247451782,-8.351274490356445,3.5649664402008057
1759335063921819000,11.20281884765625,0.19871874153614044,-7.391200065612793,4.474762916564941
1759335063931818800,11.21281884765625,-1.4532804489135742,-7.544428825378418,4.809951305389404
1759335063941819000,11.22281884765625,-2.9975404739379883,-7.721599578857422,4.680664539337158
1759335063951818000,11.23281787109375,-5.782296180725098,-8.315361976623535,3.9001545906066895
1759335063961818400,11.242818359375,-10.984896659851074,-11.38472843170166,1.6328455209732056
1759335063971818200,11.252818359375,-10.024822235107422,-9.371204376220703,-0.6344634294509888
1759335063981818400,11.262818359375,-4.036623954772949,-7.783848762512207,-0.47644615173339844
1759335063991818200,11.272818359375,-0.2944868206977844,-10.257059097290039,-0.011971008032560349
1759335064001818400,11.282818359375,0.2513911724090576,-10.577882766723633,0.5722141861915588
1759335064011818200,11.292818359375,6.2060699462890625,-9.58668327331543,1.3646949529647827
1759335064021818400,11.302818359375,6.73997688293457,-8.542811393737793,1.6496049165725708
1759335064031818200,11.312818359375,3.713406801223755,-8.885181427001953,2.3343467712402344
1759335064041818400,11.322818359375,2.3965959548950195,-9.591471672058105,3.643975019454956
1759335064051819300,11.3328193359375,0.849941611289978,-9.285013198852539,4.503493309020996
1759335064061819100,11.342819091796875,3.3877954483032227,-9.44063663482666,5.540482044219971
1759335064071819300,11.3528193359375,4.158728122711182,-9.124602317810059,4.876988887786865
1759335064081819100,11.362819091796876,1.01753568649292,-8.181286811828613,6.5173163414001465
1759335064091819300,11.3728193359375,0.5267243981361389,-7.956231594085693,6.737582683563232
1759335064101819100,11.382819091796875,-0.790086567401886,-8.856451034545898,5.971438407897949
1759335064111819300,11.3928193359375,-3.112462282180786,-7.791031837463379,5.365705490112305
1759335064121819100,11.402819091796875,-2.8131868839263916,-9.414299964904785,4.4508209228515625
1759335064131819300,11.4128193359375,-1.8483237028121948,-8.442254066467285,3.4093432426452637
1759335064141819100,11.422819091796875,0.9050082564353943,-8.827720642089844,2.8371291160583496
1759335064151818200,11.432818359375,-0.17956513166427612,-8.712799072265625,2.628833532333374
1759335064161818400,11.442818359375,-1.5658079385757446,-9.419088363647461,3.378218650817871
1759335064171818200,11.452818359375,1.6112977266311646,-8.391976356506348,3.3423056602478027
1759335064181818400,11.462818359375,-0.3663128614425659,-11.22671127319336,2.5258827209472656
1759335064191818800,11.47281884765625,-2.7078421115875244,-9.955389976501465,4.027047157287598
1759335064201819000,11.48281884765625,-5.485415458679199,-10.494085311889648,4.8722004890441895
1759335064211818800,11.49281884765625,-3.8738183975219727,-10.726323127746582,6.720823287963867
1759335064221819000,11.50281884765625,-0.7398083209991455,-9.35205078125,6.273107528686523
1759335064231818800,11.51281884765625,4.19224739074707,-8.224382400512695,4.441244125366211
1759335064241819000,11.52281884765625,3.9169139862060547,-6.309020519256592,1.98958158493042
1759335064251819500,11.532819580078124,-0.26815059781074524,-4.913201332092285,-0.608127236366272
1759335064261819600,11.542819580078126,-12.75421142578125,-7.484573841094971,0.6224924325942993
1759335064271819500,11.552819580078125,-16.31468963623047,-9.150938034057617,5.109525680541992
1759335064281819600,11.562819580078125,-9.517251014709473,-10.087071418762207,4.9706621170043945
1759335064291819500,11.572819580078125,0.5339069962501526,-10.204386711120605,5.20289945602417
1759335064301819600,11.582819580078125,9.002497673034668,-6.969820499420166,6.275501728057861
1759335064311818800,11.59281884765625,12.7853364944458,-6.151003360748291,6.593930721282959
1759335064321818600,11.602818603515624,10.245088577270508,-7.065588474273682,7.424718856811523
1759335064341818600,11.622818603515626,9.541193008422852,-7.817368030548096,7.149385452270508
1759335064351817700,11.632817626953125,9.823708534240723,-8.971372604370117,6.634632110595703
1759335064361817600,11.642817626953125,10.271424293518066,-10.28818416595459,6.26592493057251
1759335064371817700,11.652817626953125,10.609006881713867,-11.288960456848145,5.849334239959717
1759335064381817600,11.662817626953125,11.178827285766602,-12.239458084106445,5.0376996994018555
1759335064391817700,11.672817626953124,12.146084785461426,-13.089400291442871,3.7900211811065674
1759335064401817600,11.682817626953126,13.314455032348633,-13.630489349365234,2.2840683460235596
1759335064411817700,11.692817626953126,14.305654525756836,-14.008773803710938,0.7038952708244324
1759335064421817600,11.702817626953125,14.751275062561035,-14.183549880981445,-0.667982280254364
1759335064431817700,11.712817626953125,14.729727745056152,-14.140454292297363,-1.7597382068634033
1759335064441817600,11.722817626953125,14.612112045288086,-13.941736221313477,-2.5905263423919678
1759335064451818500,11.732818603515625,14.346355438232422,-13.721468925476074,-3.1507694721221924
1759335064461818600,11.742818603515625,13.946524620056152,-13.486837387084961,-3.445256233215332
1759335064471818500,11.752818603515625,13.4197998046875,-13.266571044921875,-3.5649664402008057
1759335064481818600,11.762818603515624,12.735057830810547,-12.821249008178711,-3.533841609954834
1759335064491818500,11.772818603515624,11.990461349487305,-12.076652526855469,-3.428496837615967
1759335064501818600,11.782818603515626,11.095029830932617,-11.382333755493164,-3.361459255218506
1759335064511817700,11.792817626953125,10.309731483459473,-10.678439140319824,-3.464409828186035
1759335064521817600,11.802817626953125,9.74470043182373,-9.830891609191895,-3.708618402481079
1759335064531817700,11.812817626953125,9.268254280090332,-8.937853813171387,-3.955221176147461
1759335064541817600,11.822817626953125,8.643367767333984,-8.102277755737305,-4.163516521453857
1759335064551817700,11.832817626953124,7.84609842300415,-7.407959461212158,-4.338293552398682
1759335064561817600,11.842817626953124,7.034463882446289,-6.699275493621826,-4.4532151222229
1759335064571817700,11.852817626953126,6.213252544403076,-5.9211602210998535,-4.410119533538818
1759335064581817600,11.862817626953126,5.325003623962402,-5.2555718421936035,-4.378994941711426
1759335064591817700,11.872817626953125,4.280832767486572,-4.934749126434326,-4.405331134796143
1759335064601817600,11.882817626953125,3.6607344150543213,-4.446032524108887,-4.220977783203125
1759335064611818500,11.892818603515625,3.177105665206909,-3.8594532012939453,-3.8594532012939453
1759335064621818600,11.902818603515625,2.7461493015289307,-3.3686418533325195,-3.5697548389434814
1759335064631818800,11.91281884765625,2.612074136734009,-2.983175277709961,-3.4189200401306152
1759335064641818600,11.922818603515625,2.6001031398773193,-2.7246015071868896,-3.4308910369873047
1759335064651819500,11.932819580078124,2.851494312286377,-2.4875755310058594,-3.6367924213409424
1759335064661819400,11.9428193359375,3.1531636714935303,-2.2601263523101807,-3.883395195007324
1759335064671819500,11.952819580078126,3.1890766620635986,-2.049436569213867,-4.000710964202881
1759335064681819400,11.9628193359375,2.80361008644104,-1.8291701078414917,-3.97916316986084
1759335064691819500,11.972819580078125,2.2577321529388428,-1.6160861253738403,-3.890577793121338
1759335064701819400,11.9828193359375,3.0334534645080566,-0.9600749015808105,-3.9217023849487305
1759335064711818800,11.99281884765625,4.065354347229004,-0.35673606395721436,-4.0078935623168945
1759335064721818600,12.002818603515625,4.606443881988525,0.3519476354122162,-4.2544965744018555
1759335064731818800,12.01281884765625,4.4077253341674805,1.37906014919281,-4.73573112487793
1759335064741818600,12.022818603515624,4.577713489532471,2.849100112915039,-6.148609161376953
1759335064751817700,12.032817626953126,4.742913722991943,4.534617900848389,-7.436689853668213
1759335064761817900,12.04281787109375,4.888959884643555,5.751171588897705,-8.621819496154785
1759335064771817700,12.052817626953125,5.301061630249023,6.2060699462890625,-9.364022254943848
1759335064781817900,12.06281787109375,6.2707133293151855,5.1238908767700195,-9.38317584991455
1759335064791817700,12.072817626953125,6.909965515136719,3.7852327823638916,-9.002497673034668
1759335064801817900,12.08281787109375,7.027281284332275,2.693476915359497,-8.540416717529297
1759335064811818500,12.092818603515624,7.063194274902344,1.9105730056762695,-8.059182167053223
1759335064821818600,12.102818603515624,7.22599983215332,1.6519991159439087,-7.520486831665039
1759335064831818500,12.112818603515626,7.115866661071777,1.889025092124939,-6.97700309753418
1759335064841818600,12.122818603515626,7.05601167678833,1.9800047874450684,-6.49098014831543
1759335064851818800,12.13281884765625,7.190086841583252,1.8938134908676147,-5.9427080154418945
1759335064861818600,12.142818603515625,7.345710277557373,1.8363527059555054,-5.514145851135254
1759335064871818800,12.15281884765625,7.3600754737854,1.9273324012756348,-5.219658851623535
1759335064881818600,12.162818603515625,7.592312812805176,2.1811177730560303,-5.056853294372559
1759335064891818800,12.17281884765625,8.243535995483398,2.492363929748535,-5.214870452880859
1759335064901818600,12.182818603515624,9.098265647888184,2.736572504043579,-5.430348873138428
1759335064911818800,12.19281884765625,9.572318077087402,2.9879636764526367,-5.760748386383057
1759335064921818600,12.202818603515626,9.593865394592285,3.2106244564056396,-6.153397560119629
1759335064931818800,12.21281884765625,9.251494407653809,3.2632968425750732,-6.325780391693115
1759335064941818600,12.222818603515625,8.810961723327637,3.026270866394043,-6.177339553833008
1759335064951818000,12.23281787109375,8.186075210571289,2.7748796939849854,-5.770325183868408
1759335064961817900,12.24281787109375,7.577947616577148,2.719813108444214,-5.384859085083008
1759335064971818000,12.25281787109375,7.036858081817627,2.8778305053710938,-5.186140060424805
1759335064981817900,12.26281787109375,7.075165271759033,3.354276657104492,-5.011363506317139
1759335064991818000,12.27281787109375,7.223605632781982,3.823540210723877,-4.8267107009887695
1759335065001817900,12.28281787109375,7.40556526184082,4.156333923339844,-4.613626480102539
1759335065011818800,12.29281884765625,7.008127689361572,4.338293552398682,-4.41969633102417
1759335065021818600,12.302818603515625,6.435913562774658,4.158728122711182,-3.883395195007324
1759335065031818800,12.31281884765625,6.268319129943848,3.7014358043670654,-3.1268274784088135
1759335065041818600,12.322818603515625,6.842927932739258,3.799597978591919,-2.674323320388794
1759335065051819500,12.332819580078125,7.063194274902344,4.0294413566589355,-2.3965959548950195
1759335065081819600,12.362819580078124,6.47900915145874,4.4077253341674805,-2.1092917919158936
1759335065091819500,12.372819580078126,6.481403350830078,4.613626480102539,-1.8722656965255737
1759335065121819000,12.40281884765625,7.98256778717041,5.06643009185791,-1.0749965906143188
1759335065131818800,12.41281884765625,8.624214172363281,4.728548526763916,-0.7948749661445618
1759335065141819000,12.42281884765625,9.17009162902832,4.290409564971924,-0.5841852426528931
1759335065151818800,12.43281884765625,9.62020206451416,3.9695863723754883,-0.4644751250743866
1759335065161819000,12.44281884765625,9.864410400390625,3.823540210723877,-0.4668693244457245
1759335065171818800,12.45281884765625,9.931447982788086,3.818751811981201,-0.5099649429321289
1759335065181819000,12.46281884765625,9.897929191589355,3.9408559799194336,-0.586579442024231
1759335065191818800,12.47281884765625,9.730335235595703,4.027047157287598,-0.7182605266571045
1759335065201819000,12.48281884765625,9.5531644821167,4.1156325340271,-0.8212111592292786
1759335065211818800,12.49281884765625,9.47415542602539,4.223371982574463,-0.9409212470054626
1759335065221818600,12.502818603515625,9.435848236083984,4.350264549255371,-1.0438719987869263
1759335065231818800,12.51281884765625,9.433453559875488,4.474762916564941,-1.192312479019165
1759335065241818600,12.522818603515624,9.598653793334961,4.51067590713501,-1.5131354331970215
1759335065251819500,12.532819580078124,9.624990463256836,4.3861775398254395,-1.9512743949890137
1759335065261819600,12.542819580078126,9.569923400878906,4.223371982574463,-2.3750481605529785
1759335065271819500,12.552819580078125,9.615413665771484,4.151545524597168,-2.6886885166168213
1759335065281819600,12.562819580078125,9.56274127960205,4.086902141571045,-2.8562827110290527
1759335065291819500,12.572819580078125,9.296984672546387,4.062960147857666,-2.8395233154296875
1759335065301819400,12.5828193359375,8.755894660949707,4.0964789390563965,-2.6408045291900635
1759335065311819500,12.592819580078125,8.279448509216309,4.247313976287842,-2.3511061668395996
1759335065321819400,12.6028193359375,7.965808391571045,4.398148536682129,-2.0877439975738525
1759335065331819500,12.612819580078124,7.76948356628418,4.496310710906982,-1.9033904075622559
1759335065341819400,12.6228193359375,7.704840183258057,4.551377296447754,-1.8315643072128296
1759335065351818500,12.632818603515625,7.726387977600098,4.58968448638916,-1.8171991109848022
1759335065361818600,12.642818603515625,7.76948356628418,4.632780075073242,-1.7932571172714233
1759335065371818500,12.652818603515625,7.8006086349487305,4.67827033996582,-1.7405846118927002
1759335065381818600,12.662818603515625,7.905953407287598,4.742913722991943,-1.7118542194366455
1759335065401818600,12.682818603515624,8.389581680297852,4.668693542480469,-1.7908629179000854
1759335065411819500,12.692819580078124,8.662521362304688,4.558559894561768,-1.886630892753601
1759335065421819400,12.7028193359375,8.928277015686035,4.443638324737549,-2.0039467811584473
1759335065431819500,12.712819580078126,9.088688850402832,4.345476150512695,-2.118868589401245
1759335065441819400,12.7228193359375,9.131784439086914,4.2975921630859375,-2.2002713680267334
1759335065461819400,12.7428193359375,9.007286071777344,4.331110954284668,-2.248155355453491
1759335065471819500,12.752819580078125,8.868422508239746,4.383783340454102,-2.2888567447662354
1759335065481819400,12.7628193359375,8.7175874710083,4.455609321594238,-2.341529369354248
1759335065501819400,12.7828193359375,8.363245964050293,4.668693542480469,-2.3726539611816406
1759335065511819500,12.792819580078126,8.245929718017578,4.788403511047363,-2.274491548538208
1759335065521819400,12.8028193359375,8.207622528076172,4.898836135864258,-2.056619167327881
1759335065531819500,12.812819580078125,8.224382400512695,4.9275665283203125,-1.824381709098816
1759335065541819400,12.8228193359375,8.23156452178955,4.8937482833862305,-1.6328455209732056
1759335065551818500,12.832818603515625,8.212410926818848,4.838681697845459,-1.5131354331970215
1759335065561818000,12.842818115234374,8.171710014343262,4.76924991607666,-1.4676456451416016
1759335065571818200,12.852818359375,8.138191223144531,4.63517427444458,-1.434126853942871
1759335065581818000,12.862818115234376,8.152556419372559,4.517858505249023,-1.3551181554794312
1759335065591818200,12.872818359375,8.233959197998047,4.513070106506348,-1.2425906658172607
1759335065601818400,12.882818359375,8.3800048828125,4.608838081359863,-1.137245774269104
1759335065611818200,12.892818359375,8.516474723815918,4.671087741851807,-1.0079588890075684
1759335065621818400,12.902818359375,8.61703109741211,4.580107688903809,-0.9313444495201111
1759335065631818200,12.912818359375,8.626607894897461,4.441244125366211,-0.8667010068893433
1759335065641818400,12.922818359375,8.552388191223145,4.486733913421631,-0.7733271718025208
1759335065651819300,12.9328193359375,8.382399559020996,4.6255974769592285,-0.6392518281936646
1759335065661819100,12.942819091796874,8.157344818115234,4.709394931793213,-0.5315127968788147
1759335065671819300,12.9528193359375,7.747935771942139,4.738125324249268,-0.4812345504760742
1759335065681819100,12.962819091796876,7.376834869384766,4.757278919219971,-0.5434837937355042
1759335065691819300,12.9728193359375,7.630620002746582,4.953902721405029,-0.8451532125473022
1759335065701819100,12.982819091796875,7.963414192199707,5.121496677398682,-1.216254472732544
