seconds_elapsed,acc_z,acc_y,acc_x,grav_z,grav_y,grav_x,gyro_z,gyro_y,gyro_x
16.109283447265625,1.170382334500551,2.3190315606206653,2.1238217077314854,2.412540303792804,-9.481285826978088,-0.674731152921915,0.0931824892759323,-0.6770353317260742,-1.196128249168396
16.119342529296876,2.492265436284244,1.2929185808449983,1.4993677667595444,2.307061867494136,-9.50787397417426,-0.6694779085688293,0.1385978758335113,-0.738770604133606,-1.095558762550354
16.129401611328124,3.6805204043447968,0.0237830266475677,0.5677623319350182,2.2169961043827238,-9.52966027404666,-0.6639791650220751,0.1236069425940513,-0.8644832968711853,-0.8884090781211853
16.139461669921875,5.126068171980977,-1.4505816701501606,0.1660605499681085,2.149012555350363,-9.545836917343737,-0.6550761659897864,0.0893875062465667,-0.8279749751091003,-0.6458067297935486
16.1495205078125,6.774926096853614,-2.883811808004975,-0.6928774888567626,2.10501836919263,-9.55586146775186,-0.6517660185284913,0.1988546103239059,-0.6858870983123779,-0.3679271638393402
16.15958056640625,8.104039442151784,-4.125498214262724,-2.73642081412822,2.0889744123645126,-9.558260930109023,-0.6679843090102077,0.3715205192565918,-0.3698865175247192,-0.0317435935139656
16.1696396484375,9.84583167130947,-5.194630836075544,-3.94957992182076,2.1027311350382862,-9.552603342738747,-0.7047481055229902,0.4750346541404724,-0.0721967741847038,0.2729396224021911
16.17969873046875,9.871965644997358,-6.190111946222186,-3.9617306706026194,2.135703722574562,-9.541737665331365,-0.7512552974149584,0.5153971314430237,-0.0743339210748672,0.377807468175888
16.189758544921876,7.256176412636041,-6.420296666380763,-4.139105591593682,2.1706932028912007,-9.529874793580174,-0.799982722639665,0.6183493733406067,-0.4336462914943695,0.2956510782241821
16.1998173828125,3.7833965491905808,-5.415619273343682,-4.946573190096021,2.1959727517068384,-9.519860764566063,-0.8487420043073594,0.6975579261779785,-0.951682984828949,0.1096924915909767
16.209876708984375,0.8606962076038122,-3.3320284537136557,-4.89998562644422,2.209867713807524,-9.513312365835905,-0.8853037023767828,0.544058620929718,-1.172781229019165,0.0035719138104468
16.219936767578126,0.112782329571247,0.2695095993310213,-1.5924761124372482,2.21961900023222,-9.509332356289027,-0.903479045210406,0.377543568611145,-1.1107778549194336,-0.0060855410993099
16.229995361328125,-0.2415244448184967,1.625399307873845,-1.2942717490196227,2.2282632021978497,-9.50651262269318,-0.9118353701453656,0.2722064852714538,-0.9293965697288512,-0.0117450254037976
16.2400546875,-0.5043759014345706,3.2888048135370016,-0.3644331046719103,2.231791960845888,-9.505498477214577,-0.9137710874482988,0.141876146197319,-0.689789354801178,-0.0728951841592788
16.250114501953124,-0.6594295388936996,4.736712880563736,0.8813033806942403,2.2250877870321277,-9.507758238840102,-0.9065921357296408,-0.0353745371103286,-0.4487468600273132,-0.1835471242666244
16.260173583984376,-0.799306942269951,5.376833907875418,2.106236658941209,2.2029072271451358,-9.515061255329847,-0.8838469276972114,-0.291803628206253,-0.2351718693971634,-0.3528364300727844
16.270232421875,-0.8776005806535482,4.906241764229536,3.115020610514283,2.159096726991236,-9.529294947865605,-0.8373866436868905,-0.6169295310974121,-0.0592375881969928,-0.5963037014007568
16.28029248046875,-0.8456642042972147,3.66988444404006,3.631780046573281,2.0881047899231318,-9.551389875295758,-0.762329503006488,-0.955835461616516,0.0881207138299942,-0.8841831088066101
16.2903515625,-0.6672866821348666,1.673748035979271,3.8681224125787614,1.987838827575743,-9.580449965563416,-0.6586950871393085,-1.271467208862305,0.3007381558418274,-1.163320541381836
16.30041064453125,0.3178741095274686,-1.3314198686748742,3.7114538872689007,1.865488313061744,-9.612775779628754,-0.5337495876960456,-1.484416127204895,0.6362931132316589,-1.281177282333374
16.310470703125,2.903388615134358,-6.22699235485196,3.3717931856080887,1.7488446318872273,-9.641028060644864,-0.4031329472811892,-1.515856385231018,1.143469214439392,-0.9771935939788818
16.320529541015624,1.6338703452296557,-12.215983762836457,3.447583170607686,1.675066132840514,-9.65819196141362,-0.2896311077963561,-1.2537472248077393,1.457850694656372,-0.4715141057968139
16.330588623046875,-2.3805497130312023,-14.652387903428076,4.168208644220233,1.6401427034974096,-9.666115740150213,-0.2156807958466932,-0.7372398972511292,1.4038716554641724,-0.1956790536642074
16.3406484375,-3.009683336251974,-12.183968329894542,3.937131943657994,1.6238897800937293,-9.6692563762635,-0.1970896570201031,-0.0929977297782898,1.1703609228134155,-0.1048394739627838
16.350707763671874,-3.4407577085018155,-4.914119950258732,4.021525506351888,1.6081458291254938,-9.671355978891253,-0.2216281234111636,0.2145979106426239,0.7829265594482422,-0.1896443665027618
16.360766357421873,-3.1326416074007746,1.409524852618575,4.6793750825777645,1.5847902341097593,-9.67445745203793,-0.2523467032092623,0.2115808874368667,0.3118594288825989,-0.2493029236793518
16.370826416015625,-1.573375836778432,4.60216354034245,5.190026557150483,1.5611055532701312,-9.67787047535181,-0.2685956080249511,0.0491368509829044,0.1274256706237793,-0.2196715325117111
16.3808857421875,-0.8477364805266261,6.250908067968488,5.483660543912649,1.5407076390162109,-9.681198742991686,-0.2663959973551333,-0.1561312526464462,0.2924549281597137,-0.2021073400974273
16.3909443359375,-0.8211503791570663,6.2555485872507095,5.466867230021953,1.5141224144294858,-9.685841600361464,-0.249602464268729,-0.3303725719451904,0.6108397841453552,-0.3429999947547912
16.401003662109375,-3.435857076978684,6.728182465857267,5.460450348716974,1.4657283858776091,-9.693999187853931,-0.2199919553103856,-0.5130433440208435,0.9227190613746644,-0.6038687229156494
16.4110634765625,-3.3651293438047167,6.7395368035644285,5.415002602750063,1.395000360442698,-9.705354110082984,-0.1745443189413286,-0.723930835723877,1.1271276473999023,-0.7859565019607544
16.42112255859375,-4.063527203518152,4.613004083308577,4.53196479947865,1.3139360883019864,-9.717590491321682,-0.1112209894055034,-0.8791665434837341,1.145347237586975,-0.8192957043647766
16.431181396484376,-3.9867163510382175,4.62364705787599,4.4576343656376,1.237125381952524,-9.728233465889096,-0.0368908249925123,-0.9158830642700196,1.0636858940124512,-0.7179099321365356
16.441241455078124,-3.889210501053929,3.5193437539607286,3.61646966471672,1.1765798739664255,-9.735738726952672,0.0379800176018616,-0.853038489818573,0.9323509335517884,-0.5090154409408569
16.45130078125,-3.676087390333414,2.5909154878675937,2.8789763506725428,1.1388321079175918,-9.739703538930415,0.1079398762424476,-0.7804734706878662,0.8083128929138184,-0.2751350700855255
16.461359619140627,-3.6201287717461583,1.7626333571344612,2.437352381227165,1.1234254260797052,-9.740562786108256,0.1724769380827434,-0.7201964259147644,0.7511976957321167,-0.0597653873264789
16.471419677734374,-3.5244407848387955,0.7994862443596125,2.204145098377019,1.1297902118712664,-9.738536833238602,0.2341996914209798,-0.6907488107681274,0.502202570438385,0.1593632400035858
16.481478515625,-4.2169229907676575,-0.3357750923991203,1.80323293241784,1.1524944303061813,-9.734085699048638,0.2994746756143868,-0.6951313614845276,-0.1722524315118789,0.2800431847572326
16.49153759765625,-6.026033729177713,-1.5445312889575955,1.2770613787606355,1.181216813052073,-9.727819039869308,0.3803248666130006,-0.8473472595214844,-0.9475990533828736,0.3368244469165802
16.501597412109376,-6.382699633914232,-2.8956133049577475,0.9054992259263992,1.1898255783781408,-9.72167922194004,0.4936124788252636,-1.1759867668151855,-1.5500483512878418,-0.1770853698253631
16.51165673828125,-7.185590718281269,-4.146053511035442,-0.1161016101870685,1.103869734803587,-9.723106624394656,0.6426763378176837,-1.4418549537658691,-1.794576644897461,-1.4340635538101196
16.52171533203125,-7.826364656543731,-5.141923912760615,-2.282061720141768,0.8869205629888921,-9.733550276997684,0.8010984287966042,-1.3884302377700806,-1.6072856187820437,-2.706772804260254
16.531775390625,-5.8194870742380616,-4.771542201882601,-4.735251575839519,0.563167040034011,-9.745998255160451,0.93206216561608,-1.0436067581176758,-1.178328037261963,-3.5826659202575684
16.541834716796874,-3.483504963338375,-4.021155796256661,-6.202891348296403,0.1868391706353053,-9.752087219685317,1.0160028699759394,-0.5972476005554199,-0.4995807707309723,-3.8411247730255127
16.5518935546875,-0.392367332714796,-3.309502149128914,-6.509848342490196,-0.1774529546633362,-9.748173845633865,1.0545098568942397,-0.191450297832489,0.2069915384054184,-3.4865562915802
16.56195361328125,2.5298458098769188,-2.1865976051181555,-6.089194826489687,-0.4784642287278547,-9.737573541164398,1.058827208636701,0.1376712620258331,1.0610462427139282,-2.756579875946045
16.572012451171876,4.843694414901733,-0.7056991226375102,-5.342344193774461,-0.6925972836758941,-9.726434892034533,1.0426571412108838,0.3707468509674072,1.944063663482666,-1.947809338569641
16.582071533203123,5.491535222810507,1.0476233853161334,-4.595416404169797,-0.8255351701125502,-9.718824417030811,1.016534054243192,0.5284740328788757,2.8470475673675537,-1.295499324798584
16.592130615234375,5.105068054050207,2.3673761970728635,-3.638350364874303,-0.8966603781715035,-9.715330729696154,0.9893157193847,0.6051243543624878,3.7001240253448486,-0.867414653301239
16.6021904296875,4.207832798600196,2.897725767067074,-2.5660382362425325,-0.9328642757792024,-9.714019647097588,0.9685071054380386,0.5684469938278198,4.397676467895508,-0.7215917706489563
16.612249755859374,1.675790355461836,2.3924831658005714,-0.6065564652316272,-0.961271162835136,-9.711707278501986,0.963890916879475,0.4282137155532837,4.776813507080078,-0.7960260510444641
16.62230859375,0.70778126267381,1.4230863449811937,-0.2893202882815152,-1.002866690353304,-9.70657400726676,0.973164137463644,0.3603882193565368,4.709197044372559,-1.0202149152755735
16.63236865234375,0.1517021350741386,0.3786217159569263,-0.1581415935371071,-1.0716741229891775,-9.698051678115128,0.9847394975103436,0.3600678443908691,4.106417655944824,-1.279732584953308
16.642427490234375,0.2498001057326793,0.366738385939598,-0.1634353890962898,-1.1697725320391357,-9.6861683480978,0.9900335853304714,0.3639910519123077,3.123663902282715,-1.456409573554993
16.652486572265627,0.8619780641078948,-0.6526970157682895,0.6453461415488273,-1.2884458193451165,-9.67125018042922,0.9885467808388172,0.307966411113739,2.0071232318878174,-1.4858074188232422
16.66254638671875,1.635850851522386,-0.6304331615120172,1.1979008213493971,-1.412142487771064,-9.654311320587992,0.9851621799018232,0.1620960682630539,0.977902352809906,-1.33500874042511
16.672605712890626,2.3300632422447203,-0.2946300120621919,1.5957441743224858,-1.5215709768697618,-9.63726666228473,0.9890957930237054,-0.0854333043098449,0.1701728105545044,-1.017517328262329
16.682664306640625,2.772456296366453,0.222301273432374,1.5819878900401294,-1.6022900888346134,-9.621936406683922,1.0106330865710973,-0.3866697251796722,-0.2722797691822052,-0.6285608410835266
16.6927236328125,2.818016270536184,0.2096907981842756,1.5363020975336432,-1.647850063004345,-9.609327685001492,1.0563191713385285,-0.6755651831626892,-0.3976584374904632,-0.2386439591646194
16.70278369140625,2.549842303723097,0.7084604040443897,0.6838947756517678,-1.658900595459342,-9.599178631430863,1.1288150101635603,-0.9564580917358398,-0.3673857748508453,0.0852944180369377
16.712842529296875,1.671464747347683,0.8923311167955398,0.1419486566923558,-1.6440813581205904,-9.589569091564416,1.2278339681245385,-1.1973183155059814,-0.2789248824119568,0.284367561340332
16.722901611328126,0.4069802338264882,0.7153513326019049,-0.6761269911944866,-1.6172496114268895,-9.578238134732842,1.3462043269611894,-1.329967021942139,-0.2592646479606628,0.3207010328769684
16.73296142578125,-0.8860486755251884,0.5868973866462707,-1.616304293400794,-1.5959904041685162,-9.563507598590853,1.47055712120831,-1.3436468839645386,-0.3629090189933777,0.1953138262033462
16.7430205078125,-1.473763223773241,0.5138672217488288,-2.630844762673974,-1.5932092490173877,-9.544795883858203,1.5902650122590365,-1.2700154781341553,-0.4508357048034668,-0.017368096858263
16.75307958984375,-1.616392263945192,0.1928822867244481,-3.630896249476075,-1.6151808423288163,-9.522486436894535,1.6981766670539975,-1.1358613967895508,-0.4522061645984649,-0.2821608781814575
16.763139404296876,-1.1598961579300462,-0.1116582939773798,-3.97570863481164,-1.659874847318977,-9.497171962895989,1.7941423018589615,-1.0187585353851318,-0.3919518589973449,-0.4841123223304748
16.77319873046875,-0.622667788207531,-0.820239109531045,-4.232620326115191,-1.7178138260684903,-9.470039625820515,1.8809158915571864,-0.919387936592102,-0.2806714177131653,-0.5902941823005676
16.783257568359375,-0.3335771439634263,-1.7779612746477127,-4.631942592534423,-1.7816994382627307,-9.442464221152663,1.958516871501505,-0.7983261942863464,-0.2216120809316635,-0.646914005279541
16.793316650390626,0.5228416785821318,-2.688284559729696,-4.86249965313673,-1.8471347641170024,-9.416201652649043,2.0232759055294096,-0.6323606967926025,-0.1451055854558944,-0.6457304954528809
16.80337646484375,0.5843170147642492,-2.711269129475951,-4.911683663022518,-1.9086095157772305,-9.393217082902789,2.072459769284725,-0.4348960518836975,0.0044021140784025,-0.62523353099823
16.813435546875,1.3881748983368276,-3.346093219423294,-4.989367206683754,-1.965178229086846,-9.373702819615602,2.107646525739133,-0.2793117761611938,0.1974362879991531,-0.6161636114120483
16.82349462890625,1.6949240949988365,-3.544746490764618,-4.9445244408726685,-2.0158967550635336,-9.356708430194852,2.135078576413542,-0.18207448720932,0.3885735273361206,-0.5922161340713501
16.8335546875,1.8484382479310035,-3.487982401013374,-4.8546319885015485,-2.059576614575088,-9.342095382952689,2.157264689258486,-0.0859503522515297,0.5201454162597656,-0.5484095811843872
16.843613525390627,1.7136628438688817,-3.386780619120598,-4.926273329389095,-2.0971844606965777,-9.330469827088711,2.171295260437578,0.0409397706389427,0.5929003953933716,-0.5150381922721863
16.853672607421874,1.6313845197632908,-3.22273104364872,-4.9287861889928575,-2.1295275181576607,-9.32213688302934,2.1756034790255128,0.1628963053226471,0.7327786684036255,-0.4773350358009338
16.863731689453125,2.273700280640274,-2.8881770174771546,-4.576843221125007,-2.1520441781312227,-9.317312823873758,2.174112071423977,0.2472011744976043,0.9423942565917968,-0.3841235041618347
16.87379150390625,3.271133255507052,-2.725506913664937,-4.095354420411587,-2.1554349896132945,-9.316727717462182,2.17325896172598,0.2361160367727279,1.1179873943328855,-0.1500721275806427
16.883849853515624,4.480748406982421,-2.976708118367195,-3.3227310485363004,-2.1279962169371545,-9.321856312522293,2.178302654981613,0.1776775121688842,1.1196447610855105,0.2289048731327057
16.893908935546875,5.404580577456951,-3.73144804302752,-2.56100667181611,-2.060479408633709,-9.335804758375884,2.183470997530222,0.1782162636518478,0.9011726379394532,0.7438459992408752
16.903968994140627,5.658197611129284,-4.660244557911158,-2.45937438955158,-1.9498780763633548,-9.36020036396384,2.1805995337471367,0.1994993984699249,0.6020579934120178,1.2435460090637207
16.914028076171874,5.141003290784359,-4.536953109285236,-2.095435132811218,-1.803785890125483,-9.391914768132567,2.1699548056140543,0.2205176055431366,0.3693853318691253,1.6152122020721436
16.9240869140625,3.8617362186729904,-3.7547728045135735,-1.860098436716944,-1.6315378106288612,-9.42740226109922,2.152340676859766,0.2612135112285614,0.239807441830635,1.8780503273010252
16.93414599609375,2.7941549179553986,-3.166411190533638,-2.2242506055556235,-1.4394856911182403,-9.464498358306288,2.1263876126967367,0.3380036354064941,0.0364284925162792,2.095452308654785
16.9442060546875,1.789465834480524,-2.833786671119928,-2.99199044317305,-1.2334126450397074,-9.502786295646429,2.084737651577592,0.5020352602005005,-0.3382996022701263,2.281780958175659
16.95426513671875,0.9396155766703188,-2.621737327110768,-3.942046895967424,-1.0210186523113398,-9.5423023134768,2.018006440693885,0.748192310333252,-0.8255990147590637,2.3935513496398926
16.964323974609375,0.4310171621698886,-2.0962913112491366,-4.552884837910533,-0.8085522519338876,-9.58187561445236,1.9246499654740092,0.9829514026641846,-1.1997358798980713,2.441772699356079
16.974383056640626,0.6889268515348435,-1.201166179820895,-4.121226528292894,-0.5957021860010921,-9.619727498462796,1.810073738223314,1.1920822858810425,-1.4442100524902344,2.4828383922576904
16.984443115234374,0.9174515295267104,-0.7934849581182003,-3.1618337996155024,-0.3798032904243096,-9.654809917759897,1.6765306524351238,1.3926358222961426,-1.757862567901611,2.549848318099976
16.994501708984377,-0.8495897071778774,-1.875763477230072,-1.1358237929470836,-0.1600150775250978,-9.68538684233129,1.5290711233668028,1.5013197660446167,-2.1323230266571045,2.613966703414917
17.00456103515625,-1.793524169960618,-2.376952419191599,0.2927922752410173,0.0652099104674067,-9.708379010862112,1.3832983783416448,1.4419440031051636,-2.3320024013519287,2.676306962966919
17.01462109375,-2.7330010688126087,-2.724832959926128,1.644513465927541,0.2979483245636336,-9.721274732792375,1.256360974428803,1.220426321029663,-2.2465579509735107,2.704476833343506
17.024679931640627,-2.9701497827649117,-2.7231916224598884,1.7394240387216209,0.5350970933148637,-9.722915485736728,1.1614505477651953,0.8864696025848389,-1.763213872909546,2.6308958530426025
17.0347392578125,-4.16970560477972,-3.9165737242758274,3.780762401294708,0.767245624359697,-9.71451532166004,1.099967612798512,0.5500335097312927,-0.8337163925170898,2.410301446914673
17.0447978515625,-4.06554438855946,-4.5063387753129005,4.209272476014495,0.9854038066379726,-9.6993569154948,1.0591682771593331,0.35031858086586,0.3739936053752899,2.1068477630615234
17.05485791015625,-3.277885944637656,-4.476892900598049,4.805445640528202,1.185653261129558,-9.681667529547214,1.0148585953116416,0.3732973933219909,1.5164159536361694,1.795648217201233
17.0649169921875,-1.8757324975699183,-3.857065304252505,5.9969426592499016,1.364720080730319,-9.665235450184344,0.9439976642120628,0.5867583155632019,2.292897224426269,1.4921400547027588
17.074975830078124,-0.2279530155837535,-2.365384146472812,7.755954318755864,1.5191758984267711,-9.651862173870205,0.8390800766665488,0.8088182806968689,2.685941457748413,1.2302367687225342
17.085034912109375,-1.411355136785656,0.097041739603877,7.831053691142797,1.6431436388790606,-9.641974401584267,0.7090636306345462,1.0077465772628784,2.5689568519592285,0.852819561958313
17.095094970703126,-3.799956931108236,1.1971551906138658,5.127019189095497,1.7138590970933436,-9.639109659802912,0.5662429403480143,1.127843141555786,1.8816370964050293,0.3268266022205353
17.105154052734374,-1.7068715762935578,0.4189502192139625,3.342887116858363,1.7384454029478131,-9.641865095990896,0.4273819109400734,1.1357840299606323,1.5165034532546997,0.0484073683619499
17.115212890625,-2.3000005508057773,0.3195499337852001,1.3896234897099435,1.7428997520081695,-9.64601403236389,0.29514643715173,1.107113242149353,1.0915855169296265,-0.0594045855104923
17.12527294921875,-4.619561834388971,0.5966372748941182,-1.2210376590479164,1.732304123713821,-9.650909403190015,0.1716292352122254,1.186294436454773,0.3960162103176117,-0.1851890087127685
17.13533203125,-3.487621166485548,0.4470277281850576,-3.511064585915208,1.715013966216892,-9.655426003831623,0.0430634492128388,1.4336919784545898,0.0300613790750503,-0.1481281965970993
17.14539111328125,-1.6887831080257891,-0.3216419376283884,-5.024762345191836,1.7113782400630413,-9.655445293053983,-0.118132330563385,1.853001356124878,0.1837505102157592,0.0942197069525718
17.155449951171875,-1.7333797901213168,0.1729986056029796,-4.241943450255691,1.7333800823822616,-9.64700362792313,-0.3179631029851734,2.13127064704895,0.3335613310337066,0.3600159585475921
17.165510009765626,-3.043075902765989,1.4484358902931211,-1.9860138041056687,1.772503301502764,-9.630620063877103,-0.5289454388173297,2.0661635398864746,0.2259238958358764,0.4465919435024261
17.17556884765625,-4.739431491872668,2.3643992270886898,-0.9498374762814492,1.8129687290124596,-9.611049686488508,-0.7150306492801756,1.7947758436203003,-0.3986467719078064,0.3719155788421631
17.185628173828125,-5.211261652880907,2.490055651280284,-1.280362173871696,1.8499520134948195,-9.59200596332252,-0.861101646599546,1.566757082939148,-1.280693292617798,0.253659725189209
17.195686767578124,-5.246641593819857,2.4721967539846896,-1.1659523161638528,1.8853321005642412,-9.574147650548817,-0.9755115043073892,1.419948935508728,-1.7847825288772583,0.1924493759870529
17.205746826171875,-3.8836446836203335,2.6148253557652232,-0.7772585573952645,1.9241402623862027,-9.55636474109888,-1.069568821272999,1.2859282493591309,-1.96332585811615,0.2276511341333389
17.21580615234375,-2.831185548710823,3.10665317966342,0.3730824212040752,1.975258601335436,-9.536880288428067,-1.1474570206608623,1.1526362895965576,-2.069441795349121,0.3819576203823089
17.225864990234374,-2.8965619839847085,3.397458665001392,1.85539741941914,2.0464707570254803,-9.51509281951189,-1.2022293520729987,0.9159832000732422,-2.392893075942993,0.5563609004020691
17.235924072265625,-3.663574530240893,3.5868688917011022,3.118835200366377,2.138617856455594,-9.491717789143324,-1.2263682794861497,0.7086582779884338,-2.61439847946167,0.7226633429527283
17.24598388671875,-3.417358712735772,3.5590257760077715,3.3967475941225884,2.2434515651099383,-9.467017063128948,-1.2299947994202374,0.581049919128418,-2.594661235809326,0.7814010977745056
17.25604296875,-3.0390166905030607,3.242732213670015,3.508963814243674,2.343351762884855,-9.44356604491472,-1.2239979701582342,0.4982946217060089,-2.3929264545440674,0.6706322431564331
17.26610205078125,-2.979025747659802,3.3505157120406626,3.729117846514285,2.4261150940284133,-9.42385713583827,-1.2146076260004193,0.4518641531467438,-2.148970603942871,0.4844536185264587
17.276160888671875,-2.950988278438151,3.6627357413291928,3.980279303728044,2.486662501710653,-9.409417691597342,-1.20405269504264,0.3677031993865967,-1.8754081726074217,0.2719165980815887
17.286220947265626,-2.837458345369994,4.068554091769457,4.289803225800394,2.522770172402262,-9.401488067641854,-1.1908083058051764,0.2621491551399231,-1.55370831489563,0.0625525042414665
17.296280029296874,-2.5610510954797268,4.139937073981762,4.213916502428055,2.536360890859365,-9.399997536823152,-1.1735795231066644,0.1526061445474624,-1.3606233596801758,-0.1342503130435943
17.306339111328125,-2.481440967670083,4.024251424184441,3.8265754734426736,2.5323174606874583,-9.403872916951777,-1.151055045152828,0.0955539122223854,-1.3054548501968384,-0.2756560742855072
17.31639794921875,-2.1056977297589183,3.710885731992125,3.1053195929721,2.5142080957621333,-9.411629522427916,-1.1271102520722895,0.0662053376436233,-1.1513936519622805,-0.4145955741405487
17.3264580078125,-1.202407704314589,3.2829876516908407,2.748056599125266,2.4809116830989715,-9.422917809161545,-1.1063824482768774,0.059483028948307,-0.9793846607208252,-0.5306088924407959
17.336516845703127,-0.3492038982927799,2.702704714748263,2.463693129533529,2.4373963664993643,-9.436396883937716,-1.088074492039531,0.0295685399323701,-0.842817485332489,-0.5904264450073242
17.346576171875,0.4910857733592391,2.2346365366220478,2.128348537506163,2.389288461412489,-9.450759171289205,-1.0699614007871598,-0.0040634358301758,-0.7759305834770203,-0.5975366830825806
17.356634765625,1.275907678680867,1.771356761816144,1.6317784875169394,2.342479217834025,-9.464823352476952,-1.04893987474218,-0.0556928068399429,-0.7353706359863281,-0.550210177898407
17.366695068359373,2.359243744021654,1.1397902123600243,1.3186211773782968,2.3010697874724864,-9.477447856250404,-1.0263787911050022,-0.0524055808782577,-0.7234046459197998,-0.4774205684661865
17.37675390625,4.457101573935151,-0.27771804022789,-0.251616726700589,2.2668642971403896,-9.487781034216283,-1.0068354478538035,-0.0022798301652073,-0.7521414756774902,-0.3939917087554931
17.386812744140624,5.381890606743097,-0.825013484326005,-0.78486216426678,2.2413971167981623,-9.495493216028809,-0.9910372824802994,0.0319883562624454,-0.8011228442192078,-0.2993797063827514
17.396871826171875,6.133576404529809,-1.6329308724224567,-1.245732759039104,2.226078113243729,-9.500705397719145,-0.9754877581056208,0.0274868123233318,-0.8277917504310608,-0.1971984952688217
17.406930908203126,6.142067169499397,-1.6294231565624475,-1.2606813218459487,2.217586909882724,-9.504213113579151,-0.9605392683640122,0.0436632111668586,-0.8302559852600098,-0.1516607701778412
17.4169912109375,6.0847594743907445,-3.629060850742459,-2.901872949874401,2.212197179668397,-9.506727726748585,-0.9480033196568488,0.1059838384389877,-0.8334027528762817,-0.1376698613166809
17.4270498046875,4.86449579539001,-4.763403903612494,-3.999955187317729,2.2051329403705893,-9.508431023535133,-0.9473631220571695,0.2842069864273071,-0.8608061075210571,-0.1891026794910431
17.437109130859376,3.0563778674095867,-4.974965756365656,-4.347977182349562,2.1885699281044304,-9.510402615869046,-0.9658038378287106,0.505456805229187,-0.9073477983474731,-0.3404096364974975
17.44716796875,1.7683458895623685,-3.719423843234777,-3.2570413095295425,2.158892874982208,-9.513777645260095,-0.9988018520671874,0.5941500067710876,-1.0081751346588137,-0.4631495475769043
17.45722802734375,1.451394155576825,-1.4412082771271466,-1.8949217666864395,2.126141675111651,-9.517950547030567,-1.0288474462408572,0.4910769164562225,-1.0961012840270996,-0.423163503408432
17.467286865234374,1.253995268210769,0.644982495868206,-1.13594727319628,2.102675313197821,-9.521335513293742,-1.0456192789521068,0.3402341902256012,-1.017998456954956,-0.3038314580917358
17.477345947265626,0.8809450687758624,2.3863316574335096,-0.1255905924137681,2.0860694847032426,-9.52434404745996,-1.051458725695312,0.1551303565502166,-0.7073910236358643,-0.2454714626073837
17.487405029296873,0.1371428638458252,3.8009628932803863,1.02215401301682,2.068215994235128,-9.529089780682323,-1.0437019010234625,-0.0965605974197387,-0.3363202214241028,-0.2514171302318573
17.497465087890625,-0.0754490626074373,4.421642722541094,2.0340999357521534,2.042136088822037,-9.53745253535807,-1.0183596622351556,-0.3858081102371216,0.1030899137258529,-0.3288778364658355
17.50752392578125,0.0411554556004703,4.097707705539465,3.0478648906081918,2.0000506588950757,-9.551250174564125,-0.9714935008376836,-0.7309516072273254,0.514657199382782,-0.4885599315166473
17.5175830078125,0.2559317403554916,3.1143425651222465,3.71412222969532,1.937306910212338,-9.571654080167413,-0.8948001372575759,-1.1344828605651855,0.7634976506233215,-0.6919320225715637
17.52764208984375,1.064275244909525,1.2005664603620767,3.8535114111632103,1.855752808728069,-9.597630232945084,-0.7823490854673087,-1.514621376991272,0.8769276142120361,-0.8373761773109436
17.537701904296874,2.9060265624225137,-2.825945894491672,3.816414144912362,1.7704475380167364,-9.624351651132104,-0.6385604269314556,-1.7820192575454712,0.9326640963554382,-0.75074702501297
17.547760986328125,4.073299240469932,-9.40548795093298,4.573526059401035,1.710044214980304,-9.644576693037152,-0.4777953164903447,-1.8613017797470093,1.016852617263794,-0.3554719090461731
17.55781982421875,0.4649691891975701,-15.747239488387107,6.130537475225329,1.691907377526164,-9.654193831688165,-0.3231023655697703,-1.599246382713318,0.8731119632720947,0.0303053334355354
17.567879150390624,-3.720092536276579,-16.248497403931616,6.245125392913818,1.6987879308201372,-9.656015201896428,-0.2141316301759332,-0.8550179600715637,0.5252573490142822,0.1171794831752777
17.577937744140623,-5.364945317161083,-9.882969854092597,5.9335465841382735,1.7061561215005814,-9.65551075950563,-0.1747438053024932,-0.1299425214529037,0.1033082380890846,0.0337519720196723
17.587997802734375,-5.361936782994866,-9.882391177421807,5.930862459620833,1.7031475873343644,-9.65608943617642,-0.1720594798556529,0.0547291673719882,-0.2678932249546051,-0.1010952591896057
17.59805712890625,-5.7664306068331,-1.2562211275666952,6.274219385451078,1.6913495975129305,-9.658196053066847,-0.1702026364752091,0.0031626471318304,-0.2997233271598816,-0.1468963027000427
17.608115966796873,-4.239675213062763,3.5783564994215964,5.85956949377954,1.6742881342053413,-9.661274729859828,-0.1640632021384313,-0.1115156263113021,0.2803103327751159,-0.2186694890260696
17.618175048828125,-2.532026661047339,6.012766251325607,5.5311237213552,1.6448256006166335,-9.666468791371583,-0.1559914662985131,-0.3095453679561615,1.0758274793624878,-0.3692704439163208
17.62823486328125,-2.4132937525086104,7.157540681838989,5.73798835620284,1.5956740316957234,-9.675044312015176,-0.1331624250406864,-0.6185194253921509,1.5875993967056274,-0.5959363579750061
17.6382939453125,-3.635633799391985,7.440790637230872,5.766926281395555,1.5257435863792896,-9.686850485143063,-0.0860846027870662,-0.8626631498336792,1.619492769241333,-0.7957956790924072
17.64835302734375,-4.922997668719291,6.980928561913967,4.766667581583559,1.439284615588188,-9.700441788122058,-0.0161225989968108,-1.017556071281433,1.4035874605178833,-0.9468365907669068
17.658411865234374,-5.352441224896907,6.108558867651224,3.773945999278128,1.343649966303259,-9.713927292639015,0.0678499629476806,-1.0534828901290894,1.1673336029052734,-1.0010859966278076
17.668470947265625,-4.945460844939947,4.831553310731053,2.900141596037149,1.251057899584621,-9.725300335046647,0.1541114247055724,-0.9926938414573668,1.0333774089813232,-0.8947009444236755
17.678531005859377,-4.107020892807841,3.647431204691529,2.407580489428341,1.178612987229228,-9.732743636789918,0.2344209329562261,-0.8813478350639343,0.852051317691803,-0.6061383485794067
17.68858984375,-3.641492754553258,2.619266553083062,1.979987091162056,1.139253255939111,-9.735434191048144,0.3063257653518579,-0.7573379278182983,0.5979375839233398,-0.2370990216732025
17.69864892578125,-3.602419512054324,1.5715952369719743,1.6196186786457896,1.1326510811951012,-9.73402724685967,0.3690650753214955,-0.6335094571113586,0.2973657548427582,0.0537240169942379
17.708707763671875,-4.299391138356924,0.2206388931781053,1.280102646152675,1.1487716103907677,-9.72980933690369,0.4260651657857001,-0.5606487989425659,-0.1528913080692291,0.2599108219146728
17.71876708984375,-5.264802104410529,-0.9756541276484728,1.0508010655041784,1.178199218796566,-9.723435710218547,0.4868748411333188,-0.5930802822113037,-0.7628910541534424,0.3635722398757934
17.7288271484375,-6.287651113954186,-2.2508453286230563,0.6135939626529813,1.194136646510288,-9.717170220082998,0.5665978912655264,-0.8045788407325745,-1.3703250885009766,-0.072408340871334
17.7388857421875,-7.791592033848166,-4.358889036986231,-0.4551707756955176,1.1140139660686257,-9.719615275147556,0.6770832690060138,-1.106476902961731,-1.4345842599868774,-1.4504165649414062
17.748945068359376,-7.77215200484097,-6.422543568524718,-2.2015192799180743,0.891066576752439,-9.732481770983338,0.8094407252062111,-1.3149346113204956,-0.9437100291252136,-2.877283096313477
17.75900390625,-5.247292166683078,-6.269920226952433,-3.4839942081600426,0.5534595196858048,-9.74579250345528,0.9400052335750312,-1.202580451965332,-0.3417235016822815,-3.8253445625305176
17.76906298828125,-0.6954547919988632,-3.820981598958373,-6.370839684772491,0.1602008641544729,-9.74995196122229,1.0407481657844035,-0.8306500911712646,0.3822581470012665,-4.111018180847168
17.779122802734374,2.2599814057588574,-2.4285358914345503,-6.414623881441354,-0.2226653757707215,-9.742087803718448,1.101142501796782,-0.3880383372306824,1.137205719947815,-3.78774094581604
17.789181884765625,4.98269839644432,-0.9693471364587544,-5.937773261922597,-0.5420527942042798,-9.726748780289292,1.125577635677531,0.0066051450558006,2.031129837036133,-3.062148332595825
17.799240966796877,6.28119156255126,0.3340209422081708,-4.86475473858714,-0.7721334694664925,-9.710911159688234,1.12800457056351,0.2696705758571625,2.9211983680725098,-2.2148733139038086
17.8092998046875,5.782311482053995,1.477334652519226,-3.7424826472610233,-0.913252981858328,-9.6994703127414,1.1209815400589256,0.4386759400367737,3.583540916442871,-1.4535377025604248
17.819360107421875,4.151085075461864,2.32803202867806,-2.747808761844039,-0.9856509863320736,-9.693643798545002,1.110025115628168,0.5153225064277649,3.9801785945892334,-0.9398238062858582
17.8294189453125,2.1690788995623587,2.733758024659753,-2.035788619491458,-1.0221068128742277,-9.690709498658777,1.102648522445559,0.4647232592105865,4.159548282623291,-0.7785443067550659
17.83947802734375,0.413074605178833,2.6574042682975527,-1.294483199813217,-1.0566655005581675,-9.686181792101264,1.1098304698389023,0.2466495186090469,3.928234338760376,-0.8841010928153992
17.849536865234374,-0.13245266020298,2.09839325196445,-0.9772879393953828,-1.110886700893566,-9.67678910985589,1.1384477117098868,-0.0105155054479837,3.349259614944458,-1.0732905864715576
17.859595947265625,0.009894640418142,1.3147884673476218,-1.476150703431666,-1.189338014056906,-9.662622052815555,1.1788208578262478,-0.0945289134979248,2.485980033874512,-1.2334847450256348
17.869656005859376,0.3598280220292508,0.7192658756971358,-1.7461328887104988,-1.290274496077001,-9.645748659425973,1.2104305595114826,-0.0323522351682186,1.5157217979431152,-1.3250796794891355
17.879715576171876,1.2579250088751317,0.3389589831322431,-1.271085519221425,-1.405019065631926,-9.628012511727214,1.223800109498575,0.0504302605986595,0.6544158458709717,-1.2923663854599
17.889774169921875,2.238553125543892,0.0064122051298618,-0.434232105628401,-1.5181975549139082,-9.61090004888475,1.223121552649885,0.0462679266929626,0.0189963933080434,-1.1083884239196775
17.89983349609375,2.863589104187489,-0.3574515021562576,0.3567977874878794,-1.614265334919095,-9.595544074320792,1.220681904412806,-0.07005175948143,-0.3430808484554291,-0.8282406330108643
17.909892333984374,3.1284079153537747,-0.5743816039443016,0.8161452643461525,-1.6847044604100283,-9.58212111364603,1.2308973012179136,-0.2764070034027099,-0.35349902510643,-0.5385439991950989
17.91995263671875,3.0296085184276103,-0.6383563557267189,1.0245809479027983,-1.7271631075635552,-9.57007002584636,1.2653233024328947,-0.5257584452629089,-0.0949627831578254,-0.2860289216041565
17.930011474609376,2.404447452099621,-0.4513584508657455,0.9014218934848904,-1.744694818731397,-9.558198970788716,1.3293750649742782,-0.7791021466255188,0.2188797891139984,-0.1033081263303756
17.9400703125,1.34828741684556,-0.250035668054223,0.4022616808719932,-1.7452756873592734,-9.545092236456274,1.419725782506913,-0.9636768102645874,0.4330258965492248,-0.0212239082902669
17.950129638671875,-0.1414360309951007,-0.1435907248109579,-0.3569863688625395,-1.7425021309927105,-9.529435233119129,1.5244592456571755,-1.0342715978622437,0.4662763476371765,-0.0780002474784851
17.960188232421874,-0.9304840295791624,0.1141582940995693,-1.206100275222212,-1.7498248750962315,-9.510651037672162,1.6297243314661083,-0.9993562698364258,0.3706600964069366,-0.2201762944459915
17.97024755859375,-0.9077683399021624,0.0924649332076311,-1.3050047399580478,-1.7725408570341763,-9.488958845824005,1.7286289423324166,-0.96226304769516,0.2383288741111755,-0.3625878393650055
17.980307373046877,-0.803211402362585,0.4707055408924818,-1.8633938250005244,-1.810658698504418,-9.463925526854394,1.823739713873714,-0.967112958431244,0.1080483719706535,-0.4989728629589081
17.990366455078124,-0.6784566031858325,0.4118471092104911,-2.336294245588779,-1.8616409899838269,-9.435891272503136,1.9153633739516136,-0.938182532787323,-0.0247408002614974,-0.5798556804656982
18.00042529296875,-0.2907505402803421,-0.1805097118854522,-3.1884044111549854,-1.9184990416288372,-9.40722047381401,1.9984860399268567,-0.8338886499404907,-0.0999428778886795,-0.5829079151153564
18.010484375,0.3921273864790797,-1.0974930393785238,-3.948188175201416,-1.9731981616742909,-9.380880748420951,2.067842192486673,-0.6736215949058533,-0.1098945513367652,-0.52106773853302
18.02054345703125,0.9848670694127678,-2.0250357548087834,-4.341428199097514,-2.020957107193023,-9.358793419775369,2.1211051422491667,-0.5002008080482483,-0.0880944430828094,-0.4449689388275146
18.030603515625,1.0893785603754222,-2.6799861024618146,-4.447499632853269,-2.0603766789115965,-9.341148457491398,2.1605875500708818,-0.3728006780147552,-0.0325206033885479,-0.3664503693580627
18.040662353515625,1.0042835714139045,-3.2299475508987903,-4.361308957609534,-2.0917001840665934,-9.326890799558162,2.191862978300452,-0.2979844808578491,0.0465883314609527,-0.3073063790798187
18.05072143554688,0.8102733035728334,-3.601234686183929,-4.383653475886583,-2.116010887850076,-9.31473625138402,2.220043801515549,-0.2618012130260467,0.1282984763383865,-0.2556462585926056
18.060780517578124,0.6895430837370455,-3.685187811633945,-4.50523870511651,-2.134593130984157,-9.304553295543789,2.2448129165910182,-0.1890521943569183,0.2043937742710113,-0.2213548570871353
18.07083959960937,0.7355962482511996,-3.2130385016739367,-4.77939525347054,-2.14817478935197,-9.296814810246229,2.263837204404175,-0.0843743756413459,0.3451586663722992,-0.2010258436203003
18.0808994140625,1.20347460289374,-2.473167060321569,-4.923565823996067,-2.156067442297936,-9.291789675560594,2.2769256724275646,-0.0087350150570273,0.5093367099761963,-0.1716967076063156
18.09095849609375,1.7640446852371097,-1.9955758515685795,-4.751688331377506,-2.1553470190688966,-9.288597016999123,2.290598954601586,-0.008668877184391,0.6985116600990295,-0.1048532649874687
18.101017578125,2.4662533354103564,-1.8074942431241272,-4.0523768639504905,-2.1409413309670984,-9.287086612436177,2.310145951114595,-0.0441789329051971,0.8599039912223816,0.0413228571414947
18.11107666015625,3.366134429194033,-2.130119931092858,-3.5007921982258554,-2.1049888508372008,-9.289322993186117,2.3340673633195457,-0.0623058080673217,0.8788975477218628,0.3016598522663116
