seconds_elapsed,acc_z,acc_y,acc_x,grav_z,grav_y,grav_x,gyro_z,gyro_y,gyro_x
8.061510009765625,4.376095607852935,1.282888769739866,-4.068150479404628,-0.5512083432255312,-9.734718736255168,1.0496604441016912,0.3468658328056335,2.503104448318481,-1.4960402250289917
8.071570068359375,4.411947842478752,2.110681071129441,-3.31198987429142,-0.6475146446943283,-9.731425539928674,1.0249288845576343,0.4871481359004974,3.0314557552337646,-1.086087942123413
8.08163037109375,1.5032032532691957,3.053488575708866,-1.4241767705664037,-0.7107227960184216,-9.72971932053268,0.9989066276159136,0.4804098010063171,3.492473602294922,-0.9114768505096436
8.091690185546875,0.3823135562121867,2.9151316598981616,-0.510120509501174,-0.7631412577807903,-9.727083711332082,0.985818451853469,0.3329814374446869,3.8698999881744394,-0.9273366928100586
8.101750244140625,-0.2559282332241535,2.395755319339037,-0.0071440265357494,-0.8190680199250578,-9.721563486605882,0.9953507617652416,0.1055141910910606,3.8722140789031982,-1.0086451768875122
8.111810302734375,-0.5282394459724425,1.592333489096165,-0.1357747172977775,-0.8840404044426977,-9.712716747805477,1.0256694007266312,-0.0678044483065605,3.4430577754974365,-1.085573434829712
8.121870361328124,-0.9199205499887466,0.8802034566283226,-0.4921323598027229,-0.9626699967823922,-9.701040923058986,1.06464575872235,-0.1330124884843826,2.6893973350524902,-1.1905629634857178
8.131929931640625,-1.0163561403930186,0.3189151430130004,-0.6646012424431741,-1.0586682917479424,-9.686976741871238,1.1009445680718868,-0.1469651758670807,1.7678632736206057,-1.267007827758789
8.141990234375,-0.6228665256500244,-0.1566945365339517,-0.6429459485393018,-1.1670979060024025,-9.671054365596175,1.1309142474651337,-0.1689583510160446,0.8719722032546997,-1.2486629486083984
8.152051513671875,0.0436311980642378,-0.4646937332570552,-0.5148938613828271,-1.2778421538747846,-9.654099723663926,1.1557916452206671,-0.2279162853956222,0.1305149793624878,-1.1300787925720217
8.162111328125,1.0541818670488894,-0.7188923662096262,-0.1533949104666709,-1.379194450154155,-9.636927055066824,1.1823030739188194,-0.3628852963447571,-0.360276311635971,-0.9175214767456056
8.172171142578126,1.9556559291124345,-0.6968336791366339,0.1450138894818723,-1.462899592192471,-9.619930912080406,1.219531273072958,-0.54328852891922,-0.5167775750160217,-0.7012019753456116
8.182231201171875,2.640798585933447,-0.5405132366120815,0.1249754561901092,-1.528093510506302,-9.6028207873255,1.273238313341141,-0.7023287415504456,-0.371646523475647,-0.5340561270713806
8.192291259765625,2.968143703639507,-0.6419061571627855,-0.1021646355755627,-1.577411668165773,-9.585376316049697,1.3426606630049644,-0.791496753692627,-0.0105783473700284,-0.4464011788368225
8.20235107421875,2.79594238589406,-0.8789052335113287,-0.5268589513994753,-1.6172475656002758,-9.567146247354149,1.4228889227129518,-0.7881118655204773,0.4487372934818268,-0.4490342438220978
8.212411376953124,2.830581153076887,-0.8977192395746707,-0.610960983800888,-1.6518851637393237,-9.548332241290808,1.506990808983892,-0.7362786531448364,0.8464880585670471,-0.4700941741466522
8.222471435546876,1.929147861415148,-0.1956704561382532,-1.6147060644239186,-1.6817971946612,-9.529277412208916,1.5921109323866665,-0.7032977938652039,1.046079158782959,-0.4613446295261383
8.23253125,1.3187256606660782,0.1931687024503946,-2.1911726579487323,-1.707633792837709,-9.51020563199222,1.6764194471456109,-0.6894885897636414,0.9981008768081664,-0.432995080947876
8.242591064453125,0.9549825110197068,0.274196880364418,-2.796106636545062,-1.7316016745328902,-9.491274137029052,1.7571728997714815,-0.667846143245697,0.8118942379951477,-0.3954572975635528
8.252651123046874,0.6184593767322599,0.1412128897637128,-3.2843107169881463,-1.7548074858143925,-9.473062188512086,1.8308805255390703,-0.6181670427322388,0.5603852868080139,-0.352752685546875
8.262711181640626,0.063087447553873,-0.200049694135785,-3.658418170391023,-1.7792812712050974,-9.45621451408565,1.8932928503103552,-0.5358905792236328,0.2566866874694824,-0.3269277215003967
8.272771240234375,-0.6158206987917423,-0.7412041512608528,-3.90793449074626,-1.8087568104058505,-9.440886012050507,1.941247318401188,-0.4404761791229248,-0.0840653479099273,-0.3302224278450012
8.282832275390625,-1.0483891089916229,-1.247694706761837,-4.009396384879946,-1.8454525101184844,-9.426853979566692,1.974624102824181,-0.3595288693904876,-0.3784996569156647,-0.3480640053749084
8.292892333984375,-1.003539913439751,-1.2614654579609632,-4.032527669620514,-1.8903019979313012,-9.413082059323788,1.9977558259561656,-0.32101571559906,-0.5506318807601929,-0.403928279876709
8.302952392578124,-1.326766343780607,-1.638596058577299,-4.062139840812981,-1.9431144274473189,-9.398074459806084,2.017641114512831,-0.3174487054347992,-0.477843701839447,-0.4910679757595062
8.31301220703125,-1.0908511171460151,-2.172854910969734,-4.146701161289215,-2.0014104029409587,-9.38081352840364,2.0408511635780333,-0.3235133290290832,-0.2311408817768097,-0.584808886051178
8.323072265625,-0.6599823504708707,-2.6780764694482087,-4.309837713569403,-2.0611771816395223,-9.361914182144403,2.067967134040594,-0.2657565474510193,0.1307965517044067,-0.6561429500579834
8.33313232421875,0.1000523195967078,-3.2869682457596063,-4.596169268363714,-2.1177657686933875,-9.34319486862719,2.095276288987696,-0.1478331089019775,0.6055420637130737,-0.7000910639762878
8.343192138671874,1.3859239045396443,-3.4832255618751047,-4.493898395934701,-2.1634408936753866,-9.326649976539612,2.122142376342416,-0.0083817318081855,1.2251611948013306,-0.6741441488265991
8.353252197265626,3.309450711202621,-3.335873438704013,-3.9948599100053306,-2.187767087288946,-9.314040085813405,2.15237165651992,0.0947145372629165,1.928432583808899,-0.5560198426246643
8.363312255859375,5.257492658179998,-2.908838697233796,-3.210732855080068,-2.1804946120679376,-9.30727482946217,2.188707729139924,0.1678667813539505,2.480783224105835,-0.3026692867279053
8.3733720703125,6.767766288226842,-2.609160169610381,-2.486550273507833,-2.133639629651606,-9.309174525603652,2.226480118173361,0.2101189047098159,2.5890278816223145,0.0972644016146659
8.38343212890625,7.06932346920371,-2.641266203445196,-2.0445671153612435,-2.0492808460101486,-9.32061361898482,2.257650770854205,0.1916301846504211,2.151224374771118,0.5572676658630371
8.3934921875,5.934768819409609,-3.12563786611855,-2.127987156847864,-1.9360032802678644,-9.339623439881205,2.2789713529109954,0.0891390293836593,1.2796745300292969,1.0074312686920166
8.40355224609375,4.699543133598565,-3.699506259843707,-2.67555601105988,-1.8061508656911551,-9.363109529408812,2.2891918642826377,0.0022685816511511,0.2375699877738952,1.3684756755828855
8.4136123046875,3.584520867270231,-4.046244644805789,-3.7865778095752,-1.6679628767065704,-9.389265714928507,2.286909452433884,-0.009089957922697,-0.5436050295829773,1.6447255611419678
8.42367333984375,3.3201837021410463,-4.015346817716956,-4.774200022915005,-1.517051015227288,-9.418518697419762,2.27166102989763,0.0835963040590286,-0.9548301100730896,1.9159191846847532
8.4337333984375,3.353291021972894,-3.795580031198263,-5.711007994818687,-1.3460522051393986,-9.452136304861307,2.23956493293494,0.266467273235321,-1.191712498664856,2.202955961227417
8.44379296875,2.875601029020548,-3.587607142847776,-6.44866877438426,-1.1510277187544853,-9.48982160013318,2.1883364116095003,0.4627446234226227,-1.3754801750183103,2.486459493637085
8.45385302734375,1.965787885417789,-3.060196548914909,-6.387209220293164,-0.9344861048273742,-9.52911549964547,2.1196946909293533,0.6197241544723511,-1.685030221939087,2.71265721321106
8.4639130859375,0.2485714407205581,-2.2890163615852592,-5.7851429060876365,-0.7063129436869173,-9.56662076217532,2.0374686815328893,0.7553743720054626,-2.107919931411743,2.844422578811645
8.473973388671874,-2.3117186072587965,-1.6073562861829995,-5.15090450707376,-0.4757304929150268,-9.600949732756614,1.940579356011748,0.9407919049263,-2.576403856277466,2.8874144554138184
8.484033203125,-3.2687913685560224,-1.55174078194499,-4.757640517780184,-0.2514328762999736,-9.631425535041092,1.8283346404485403,1.1581476926803589,-3.0447781085968018,2.837804079055786
8.49409326171875,-3.895302972710133,-1.496788710051775,-3.952111778385937,-0.0391182689507491,-9.657796824616192,1.7017117093123495,1.3398137092590332,-3.3892900943756104,2.710877656936645
8.5041533203125,-3.871871828240156,-1.353431209474802,-2.63412480725795,0.1613083687386475,-9.679048871481418,1.5685551386237144,1.4119256734848022,-3.4562830924987797,2.5761914253234863
8.514213134765624,-3.414617889595032,-1.354046126502752,-0.7901416390396654,0.3572221138471737,-9.693098439621926,1.444507026411593,1.280055046081543,-3.026679039001465,2.4659619331359863
8.5242734375,-2.9468542473733423,-1.825555384993553,0.5585273244693875,0.5583387065621093,-9.698185533627868,1.3430671979792417,1.035820722579956,-2.149829149246216,2.4129457473754883
8.53433349609375,-3.1115806991934774,-2.81504105411768,1.516283099594712,0.770350896898657,-9.694213707387446,1.2645822748072444,0.7859370708465576,-0.987220823764801,2.3558809757232666
8.54439306640625,-3.4435160672992464,-4.211106121182442,2.537557407167554,0.99125516301468,-9.682295306056735,1.200389861686155,0.5960254669189453,0.3257550895214081,2.25227952003479
8.554453125,-3.5732343341022728,-5.351231849107146,4.013000546851754,1.213000190803781,-9.664752050581574,1.1364780921373516,0.5210050344467163,1.4709341526031494,2.0757858753204346
8.56451318359375,-3.139702047306299,-5.876459253782033,6.421680814215541,1.4208146006569264,-9.645149524489044,1.0596006041619923,0.5694316625595093,2.124441623687744,1.7722772359848022
8.5745732421875,-1.862468965240568,-5.568204036471247,8.989270371553301,1.5958149014711378,-9.62764543198049,0.96552078310363,0.7005072236061096,2.2184972763061523,1.361104130744934
8.58463330078125,-1.929723615476489,-3.5395395697712897,9.511908344256875,1.7232234300270677,-9.616299277579785,0.853039336175099,0.9514049291610718,1.6972349882125854,0.8820086121559143
8.594693359375,-1.936368168057501,-1.8828525587081908,7.757122193491458,1.7961577333346008,-9.613653146985172,0.722391971828416,1.237636923789978,1.006031155586243,0.4198560118675232
8.60475439453125,-0.9035266106791794,-1.3682371489405631,5.837333696573972,1.8245460618205367,-9.61770622176826,0.5840647205036134,1.2841802835464478,0.6639273762702942,0.0788099989295005
8.614814453125,-1.6651919506885111,0.0470388145506381,3.5448327077433466,1.8223112885057928,-9.625191609087588,0.4530350423084571,1.1835240125656128,0.5895114541053772,-0.1883880048990249
8.624874267578125,-2.116953575527668,0.4915396546065807,1.098502727877721,1.8001706222377716,-9.63439724432826,0.3288902282562106,1.1827572584152222,0.535132110118866,-0.2781077921390533
8.634934326171875,-1.1296386745713651,0.2512473819315433,-1.044621500086412,1.7831060901902616,-9.641157824504376,0.1975228425392881,1.364006519317627,0.5127711892127991,-0.066469058394432
8.644994140625,-0.6457610790252685,0.2896329344272613,-2.5057950722038744,1.7955764263153076,-9.640786068582534,0.0391686748305801,1.6776318550109863,0.6333228945732117,0.3071942627429962
8.65505419921875,-1.9290157594680784,0.601119388744235,-2.230544445002824,1.8390835596084596,-9.63159855352044,-0.1430072988998144,1.8351624011993408,0.4629866182804107,0.5715473294258118
8.6651142578125,-1.988422618813068,0.5852116255164146,-2.050134394099563,1.8984904189534484,-9.61569079029262,-0.3234171306073665,1.74525785446167,0.1519768089056015,0.6450638771057129
8.67517431640625,-4.69250373648107,2.217272729367018,-1.1948754091136158,1.9568290645450352,-9.597399346798658,-0.4807665143208578,1.5641037225723269,-0.455994576215744,0.5331852436065674
8.685234130859374,-4.740761863693595,2.2000889548540115,-1.067786760161817,2.005086899496615,-9.580214987763762,-0.6078551632726564,1.426665425300598,-1.2385553121566772,0.373944491147995
8.695294189453126,-5.492985421618819,2.8406641556739807,-1.1866131922028955,2.0483280753299598,-9.56418038328588,-0.7079485089994967,1.2743704319000244,-1.6685316562652588,0.33883798122406
8.705354248046875,-4.175746638509631,3.499419740828872,0.1224419191244989,2.09668191800192,-9.547621462672948,-0.7856355597920716,1.0833855867385864,-1.6885218620300293,0.4040388166904449
8.71541455078125,-3.13735957583338,3.660324588534236,1.5462611814901233,2.153641676455736,-9.529559736281632,-0.848351251424104,1.0085219144821167,-1.8225535154342647,0.4904031753540039
8.72547412109375,-3.697120826011896,3.434271269091964,1.8318898487120865,2.2243878220692275,-9.50850993399024,-0.9003956922423094,0.9628914594650269,-2.028658628463745,0.6359907984733582
8.7355341796875,-3.5714909975662827,3.583001694878936,2.5029490351229904,2.31064410989508,-9.483809792497754,-0.9426775215242056,0.8898070454597473,-2.0071358680725098,0.7702829241752625
8.74559423828125,-2.772786551234126,3.880103650012612,3.222812292191386,2.405126958796382,-9.456647644805908,-0.9785472187414764,0.8284862041473389,-1.8991284370422363,0.80483078956604
8.755654052734375,-2.505162327258289,3.9285371337920414,3.640546121352911,2.497380587340891,-9.429813413894175,-1.0060265426237136,0.723704993724823,-1.8940064907073972,0.7318373918533325
8.765714111328125,-2.7625603407740598,4.04570045492649,4.098774165727198,2.579553259114921,-9.406018696808816,-1.0213273529343307,0.6041660904884338,-1.8729771375656128,0.594020664691925
8.7757744140625,-2.915856467041373,4.135232841813564,4.330315561191737,2.6454616093084216,-9.387363096177577,-1.024372054392472,0.472030371427536,-1.767521858215332,0.3986789882183075
8.785834228515625,-3.118610451699793,4.357704795637726,4.193040303137898,2.690348214261234,-9.375354093953966,-1.0174310761481522,0.3124715983867645,-1.527791976928711,0.1954260021448135
8.795894287109375,-3.142510090464353,4.503270619913935,4.117311400675773,2.7134990804851054,-9.370532957407832,-1.0002102575603873,0.1359388083219528,-1.2992594242095947,-0.0035768118686974
8.805954345703125,-3.104273006528616,4.530850116235017,3.662871058146656,2.716711320529878,-9.372375370404123,-0.9738833185836672,0.0178297460079193,-1.1439939737319946,-0.1815811693668365
8.81601416015625,-2.7758573369815944,4.39082029877603,2.7772113819390536,2.7025346188783645,-9.379588370522857,-0.9434022556021808,-0.0249986723065376,-1.0427229404449463,-0.3448300659656524
8.82607421875,-2.081662774176896,4.0175142248839135,2.090864025503397,2.670636090314388,-9.391748179394009,-0.912767098037526,-0.0796699076890945,-0.8451814651489258,-0.5110294222831726
8.83613427734375,-0.9591013445153832,3.76608038046956,1.9857494540810583,2.623371358053386,-9.407867539545894,-0.8833693002481013,-0.1013296246528625,-0.7181621789932251,-0.6393760442733765
8.8461943359375,-0.2522507137551903,3.306463804346323,1.798807078799605,2.562654731284082,-9.427239179491997,-0.854593726010248,-0.1299823075532913,-0.6755649447441101,-0.7607421875
8.856254150390624,1.1215043218240142,2.3152175552904604,1.3463076412051915,2.491345983351767,-9.449189730015396,-0.8224263904422521,-0.1975613534450531,-0.643851101398468,-0.8523648977279663
8.866314208984376,1.9965344674676653,1.3218284489870071,0.9131552205722778,2.4149317289739844,-9.47243908817768,-0.7819231151401996,-0.2846680283546448,-0.8198580741882324,-0.8567295074462891
8.87637451171875,3.5764427747547622,0.2029091752201318,0.1174077243495732,2.344716913758218,-9.49435690547526,-0.7279292207546532,-0.3663774728775024,-1.073432207107544,-0.7549287676811218
8.8864345703125,5.766804700842499,-1.1199784274309872,-1.034135761907324,2.2902825821287927,-9.51222223251164,-0.6652984309270977,-0.3786090910434723,-1.1777578592300415,-0.5366160869598389
8.89649462890625,7.8571379804700605,-2.77328222579658,-2.5623680232971906,2.2613566396348177,-9.52303764103651,-0.6069564608672633,-0.2776271998882293,-1.0995585918426514,-0.2090627551078796
8.906554443359376,9.280413126021624,-4.719713230445981,-4.109854070407152,2.2654741579562425,-9.524588377609849,-0.5658721342742443,-0.1047068312764167,-0.8412470817565918,0.1680027693510055
8.91661572265625,8.644037130457162,-6.872371156561374,-5.686134250324964,2.29716459672749,-9.517734273931383,-0.5533048405807465,0.1828199177980423,-0.5473614931106567,0.3789848685264587
8.92667529296875,5.838733041977882,-8.118305867913366,-6.71687488990128,2.334473606032878,-9.507359010389449,-0.5751156173072755,0.5094579458236694,-0.4549066424369812,0.3074755370616913
8.9367353515625,2.2162901480704544,-7.600938529089093,-6.462658136770129,2.3542408211678265,-9.499346968847512,-0.6247771815769374,0.7945030331611633,-0.7399254441261292,0.0214036405086517
8.94679541015625,0.4094809646010399,-5.154896207058429,-3.627892976006865,2.3510336956895888,-9.496271214663984,-0.6810714618593454,0.8198022842407227,-1.1536723375320437,-0.1913903802633285
8.95685546875,0.5110816826835275,-2.4842881737947464,-1.3789710166618228,2.3408611151129004,-9.49554757656455,-0.7247840545967221,0.7147835493087769,-1.3448538780212402,-0.1953935474157333
8.96691552734375,0.4020679118655622,-0.4135550821721553,-0.5579074390053749,2.3336063216790555,-9.494548628655076,-0.7603997039876877,0.6360626220703125,-1.2176761627197266,-0.1474451869726181
8.9769755859375,0.3120421885035931,1.781905043837428,0.3114177729949355,2.3326529664769766,-9.4925805434525,-0.78741499055475,0.4743703007698059,-1.004631757736206,-0.0624975636601448
8.987035400390624,0.5546002141535282,3.5351322747230527,1.180275148287788,2.3337046674869955,-9.490708904361725,-0.806629978634417,0.3098255693912506,-0.5940693020820618,-0.0696215257048606
8.997095458984376,0.0016714403435587,4.871503628325463,2.426590164194256,2.3230989561900497,-9.492314001470804,-0.8182854181800037,0.1000164151191711,-0.1390804797410965,-0.2285392582416534
9.0071552734375,-0.2309804005809128,5.329153288289905,3.747208506739139,2.289694406977296,-9.500600183779,-0.816256688831374,-0.1895110011100769,0.2775665521621704,-0.4650961458683014
9.017215576171877,-0.1701306489512324,5.345719223165512,3.722261112487316,2.2288450937390327,-9.517167287698388,-0.7913092945795506,-0.5607439875602722,0.6661750078201294,-0.7289972901344299
9.027275390625,-0.0093111414417624,3.343934580084681,5.169775796282291,2.139402284831553,-9.541922958770394,-0.7382579417411238,-0.9305806159973145,1.0133438110351562,-0.994096040725708
9.03733544921875,1.0397672649882734,0.9192156165897846,4.827985681377351,2.029150204390288,-9.57185983187258,-0.6575856645926833,-1.2423467636108398,1.2992228269577026,-1.1020996570587158
9.0473955078125,3.0112215056046843,-2.9837194584339857,4.5960120319753885,1.9208336220562456,-9.600652211114763,-0.5551978512531146,-1.4992027282714844,1.747289538383484,-0.9201704263687134
9.057455322265625,3.098013946133852,-2.960667084148526,4.477809723182022,1.8340414737880228,-9.623705754444002,-0.4369957616554573,-1.6794215440750122,2.0484628677368164,-0.7016814947128296
9.067515380859374,1.0680465801417829,-8.454895783826709,4.887131990090012,1.7608524650670587,-9.642126377275586,-0.3149549706777557,-1.5014973878860474,1.7658812999725342,-0.6703901290893555
9.07757568359375,-4.215597587382793,-12.813034294706585,5.050647897076606,1.6910618666127324,-9.657146836274862,-0.2240871339358389,-0.8572215437889099,1.1697795391082764,-0.6912709474563599
9.087635498046875,-6.6237073613822455,-11.994143677175044,4.4559652633816,1.621172922350466,-9.669939682352542,-0.1856074186169542,-0.2191787809133529,0.2041777968406677,-0.7093620896339417
9.0976953125,-6.805058200266957,-6.122555244299769,3.63484118770957,1.553975701390207,-9.681121001580356,-0.1773147335027344,0.0608041286468505,-0.4081504344940185,-0.6711783409118652
9.10775537109375,-4.157120263972878,0.2688864989966154,3.3023563690274957,1.493121711976826,-9.690668582126497,-0.1786716097380966,0.0343799740076065,-0.1695985943078994,-0.5893921256065369
9.1178154296875,-0.8587358673162758,3.929095936718583,3.901900471279025,1.4378333938665686,-9.699121353173256,-0.1733802618643269,-0.1881885826587677,0.3841976821422577,-0.5515559315681458
9.127875244140624,-0.4909845049418508,5.714650735235214,4.661040384463965,1.3801310003519058,-9.70787866012454,-0.1506636954044923,-0.4595135450363159,0.8461796641349792,-0.6235635876655579
9.137935546875,-2.1986937011033296,6.214136964932084,4.991516493672132,1.3108939441271126,-9.718051094570756,-0.1068965138025116,-0.7080709338188171,1.152981877326965,-0.7671834826469421
9.14799560546875,-3.5620044995576143,5.907808331769704,5.017787245482206,1.2300522286958993,-9.72910381898284,-0.0435338614698732,-0.901147186756134,1.314408779144287,-0.8512211441993713
9.158055419921874,-3.817098035523295,5.234263758283853,4.601164592432975,1.1472636900458484,-9.739252288031578,0.0334114127783803,-0.9840741157531738,1.3671389818191528,-0.8210940361022949
9.168115478515626,-3.628866789475083,4.464831875926256,3.8530642519176,1.073505576200038,-9.747040457689762,0.1148762148442678,-0.978995442390442,1.2724103927612305,-0.6946192383766174
9.178175537109375,-3.557402558720112,3.9277386768907303,3.0232687940120697,1.0158077127300202,-9.751933490428328,0.1957352467364631,-0.9133261442184448,1.0668678283691406,-0.515586256980896
9.1882353515625,-3.4935336053997275,3.2216660447657106,2.4377749905534087,0.9779756293985992,-9.753947168338298,0.2729101467558182,-0.8635807037353516,0.8234003186225891,-0.2920511364936828
9.19829541015625,-3.356425228345394,2.23901577461958,2.1829396671324965,0.9653657386723904,-9.7527681876868,0.3492280098207295,-0.8276435136795044,0.5075621008872986,0.0021874653175473
9.20835546875,-3.343725905770063,0.6450538075387477,2.080474733436108,0.9825940829794854,-9.74795815705657,0.4268531012929976,-0.8240969777107239,0.1606891304254531,0.3158641755580902
9.21841552734375,-3.658743456822634,-1.1319494357317683,2.058632611723244,1.0231763418018818,-9.739821027830242,0.5092981602676212,-0.8417413234710693,-0.3602313697338104,0.5103421211242676
9.228475341796877,-5.175851316803693,-2.5941478939175604,1.4331475741378965,1.0732373537179083,-9.72895651946664,0.6049165160048753,-1.003221869468689,-0.8859776854515076,0.5494871139526367
9.238535400390624,-5.693168971267342,-3.638941608765721,0.9634992872133852,1.0811886049833148,-9.719505969554186,0.7297996908016502,-1.32481050491333,-1.0679173469543457,-0.3669637143611908
9.248595703125,-6.589576543721556,-5.211841498595476,-2.509237029351294,0.9684399584859608,-9.718999189075827,0.8795338868036866,-1.497960925102234,-0.8897995352745056,-1.775169014930725
9.258655517578124,-4.985743755489588,-4.402006294178962,-4.466051188588142,0.7294519002772867,-9.725131408220529,1.029623691310361,-1.3985356092453003,-0.6654143333435059,-2.8976495265960693
9.26871435546875,-3.073285163068771,-3.921751419174671,-5.698400442180037,0.4079403840955347,-9.729836809432506,1.1551032245650887,-1.0800822973251345,-0.5167503356933594,-3.464632987976074
9.2787744140625,-0.4393447724670171,-3.1045103224158286,-6.2920087246418,0.0619588316830107,-9.727213475191592,1.2441336532793938,-0.7191858291625977,-0.2491566389799118,-3.4367940425872803
9.28883447265625,1.5320552537441252,-1.754353604567051,-6.665963617831468,-0.2534020026821643,-9.7171643748641,1.2972653778776526,-0.3716219663619995,0.1017619743943214,-2.954481363296509
9.29889453125,3.012334727543592,-0.0112590606391429,-6.254050457647442,-0.506054867497459,-9.70411083202362,1.3207976446345449,-0.0983917489647865,0.628099262714386,-2.3025081157684326
9.30895458984375,4.275125296628475,1.2652280253648758,-5.111332959663868,-0.6866654094088822,-9.691770405888557,1.3298410750508307,0.0208393018692731,1.3661749362945557,-1.681247353553772
9.319014404296874,4.095037609547377,1.8718419198721643,-4.415189016357064,-0.8036090964432805,-9.68172715077996,1.337442928356677,0.0991220399737358,2.129599571228028,-1.2273893356323242
9.329074462890626,3.1811364659786223,2.417594226181507,-3.772404907315969,-0.878363308654353,-9.67426982051134,1.3443851487100125,0.1868143379688263,2.864129066467285,-1.0284013748168943
9.339134521484375,2.447114919698238,2.4621079061686992,-2.63611188942194,-0.9339796166099608,-9.667757077616452,1.3537176252007483,0.2193383574485778,3.530550479888916,-1.027897834777832
9.3491943359375,2.4986253267049787,2.4552479572713373,-2.6485031689614056,-0.9854896582905204,-9.66089829776287,1.3661087586097418,0.2596223950386047,3.751963138580322,-1.0635496377944946
9.35925439453125,1.6510614262662826,1.0932079094052314,-2.006002699167281,-1.041288264010474,-9.65382675194144,1.3746817950353023,0.3433136343955993,3.57706880569458,-1.1370683908462524
9.369314453125,1.2810953104518352,0.6199836636900902,-1.4196695222750306,-1.1100597485501318,-9.646424366730452,1.3728330984286965,0.435280829668045,3.070033073425293,-1.2290239334106443
9.379374267578124,1.2411175203286111,0.2696493000626563,-0.6189576816432177,-1.194131385813281,-9.63816156529784,1.360262516799569,0.4608791768550873,2.348889112472534,-1.2608754634857178
9.389434326171877,1.1764132852278648,0.0733539900243282,0.1986737296074628,-1.286845836802572,-9.62876362235546,1.3421446763068436,0.3985215425491333,1.5068548917770386,-1.1807267665863037
9.39949462890625,1.2197485690854488,-0.0893769040644168,0.8142515595540404,-1.3780657383851709,-9.618514031019808,1.3249676237955688,0.2429035007953643,0.6528534293174744,-0.9877418875694276
9.4095546875,1.343835698133707,0.0728887106001377,1.2688169897675514,-1.4568122351028023,-9.607946459776162,1.3173697160124778,-0.0174316838383674,-0.0830988362431526,-0.7109941840171814
9.419614501953124,1.3952584268569943,0.3494564117491245,1.578059756810963,-1.5163148099072277,-9.59691068649888,1.330595985071361,-0.3726428151130676,-0.5570926070213318,-0.4264498949050903
9.42967431640625,1.3926609577096998,0.5346925676345825,1.4237301958426831,-1.554119932166487,-9.584474398773908,1.375839586768299,-0.7619506120681763,-0.6679379343986511,-0.1899984776973724
9.439734375,0.9195407568909229,0.4107499616235494,0.7019171198807657,-1.573905705871433,-9.569617605903744,1.454510387901217,-1.0550237894058228,-0.5795060396194458,-0.0438522733747959
9.449794189453126,0.9289620807088912,0.393560926413536,0.6025467911988497,-1.5833271758198737,-9.55242915521562,1.5538807165831328,-1.1673383712768557,-0.5050607919692993,0.000794026069343
9.4598544921875,0.2690275149025022,0.0262251591026782,-0.3658173255719244,-1.5952654508948323,-9.532850594520568,1.658386654587835,-1.157375454902649,-0.4401323199272156,-0.1109796687960624
9.46991455078125,-0.3904008549474179,-0.2911854245662689,-0.8404623978704213,-1.623871221523732,-9.50977776196897,1.759985472974181,-1.073558330535889,-0.2553249299526214,-0.3712115287780761
9.479974365234376,-0.7563513053797185,-0.5915875902891159,-1.2054301208756864,-1.6755587386630475,-9.483062773522734,1.8532110152907668,-0.92574805021286,-0.0316226780414581,-0.6498303413391113
9.490034423828124,-0.596933481361717,-0.9451485147476196,-1.8912873557068408,-1.745194146555662,-9.45406581161916,1.935280518951267,-0.7764096856117249,0.1431640386581421,-0.8234668374061584
9.500094482421876,0.038573768544197,-1.275333824315667,-2.6025451353847977,-1.8219544378921388,-9.424652670130133,2.006688489474356,-0.6623504161834717,0.2195411175489425,-0.8512070178985596
9.510154541015623,1.128231291991472,-1.543859088784456,-3.24046719134748,-1.893776834435016,-9.396595034903289,2.070750042757392,-0.5951418280601501,0.2826082110404968,-0.7598222494125366
9.52021435546875,2.5609035037025807,-2.0573621533960105,-4.076887620350719,-1.950233319541812,-9.371509693485498,2.131150150923431,-0.5491656064987183,0.3890598118305206,-0.5717405080795288
9.5302744140625,3.655223173741996,-2.974898438596725,-4.909881582036614,-1.9828741909056904,-9.351649977761506,2.1875249490961437,-0.4542186260223388,0.4728878438472748,-0.3191040158271789
9.54033447265625,3.881438990269601,-3.885681157884002,-5.887316163361072,-1.990170193132758,-9.339590706655382,2.2319690709784625,-0.2952600121498108,0.3807139694690704,-0.0471851043403148
9.550394287109375,3.1170985858321187,-4.232945612546802,-6.830071645492315,-1.9783565673507748,-9.336192296388743,2.2565482164397834,-0.1125639677047729,0.162858098745346,0.1534180343151092
9.560454345703125,2.149679494826496,-3.7142572542518377,-7.301219669455289,-1.959341193496436,-9.339529916378854,2.2593308328956363,0.070281021296978,-0.0747090429067611,0.2127755284309387
9.5705146484375,1.1899287464916706,-2.8448721287578342,-7.263446695899963,-1.9423070565871892,-9.34685222209096,2.243703201783448,0.2272187173366546,-0.0592778921127319,0.1882121264934539
9.580574462890626,1.3091755959019065,-2.088829304805398,-6.697389268186688,-1.922391226761788,-9.357101813426612,2.217987891899049,0.3499101996421814,0.2859728634357452,0.2083057463169098
9.59063330078125,2.4172997732795776,-1.775196486109495,-5.65160186612606,-1.8833925108037888,-9.371008758226036,2.192578579223901,0.3991903960704803,0.7838601469993591,0.3941869437694549
9.600693359375,3.741834412485361,-1.848888914307952,-4.268901307547092,-1.808067366836965,-9.390541141691804,2.1723284028775987,0.4135075807571411,1.152687668800354,0.762520968914032
9.61075341796875,4.797692542183399,-2.3541642488002776,-3.004138269345462,-1.6880730600602925,-9.416777406710386,2.155243850955367,0.4109549224376678,1.343959927558899,1.1977145671844482
9.6208134765625,5.783733039289713,-2.9608377645403143,-1.8170074830092489,-1.524298209876567,-9.448457908609509,2.1385785473585126,0.3954520523548126,1.3136162757873535,1.6393814086914062
9.63087353515625,5.961606557452678,-2.9118408016592263,-1.2861682298019528,-1.3231398238465188,-9.4832404681772,2.118452435783297,0.3914791643619537,1.086222767829895,2.037886619567871
9.640933349609377,4.497430661714077,-2.28032335204184,-2.2800461425356566,-1.0913793057385832,-9.519349892434477,2.088360372119397,0.4813854396343231,0.6589787006378174,2.4209413528442383
9.650993408203124,2.2983880010426043,-1.7454548433184622,-3.265021202367544,-0.8343334666613489,-9.556673953178525,2.0357484336115417,0.6911016702651978,-0.0511566661298275,2.785680055618286
9.661053466796876,-0.5703554171681404,-1.2409124992758034,-3.853946003188193,-0.5655440348310395,-9.593598785471915,1.9527999551594255,0.9596836566925048,-1.047128677368164,2.9869062900543213
9.67111376953125,-3.1487469390273093,-1.3096470128059383,-4.389014126136899,-0.308480404368788,-9.62781435880661,1.838590953785926,1.257216215133667,-2.12300443649292,2.927163600921631
9.68117333984375,-4.2824809200882905,-1.7369085487693547,-4.415528039053082,-0.0797546691131778,-9.658443305826186,1.6966126326076685,1.56001615524292,-3.010054111480713,2.726255416870117
9.6912333984375,-4.253459992787242,-2.418490882760286,-3.051233490258455,0.1213669925025198,-9.684946697348355,1.5354042719110843,1.7446640729904177,-3.453620672225952,2.495563745498657
9.70129345703125,-4.326239982315898,-3.355478302884101,-1.3284155722923576,0.3039811567207798,-9.70549030368328,1.3716606936484574,1.7224522829055786,-3.4985620975494385,2.303424596786499
9.711353271484375,-4.500976956018805,-3.343444750741124,-1.1859607196435331,0.4787184592172503,-9.717523271304367,1.229205840999633,1.4331477880477903,-2.952122926712036,2.1527085304260254
9.721413330078123,-3.9686265675961967,-4.882085812616348,1.8496156211473047,0.6550515430051833,-9.720599610009788,1.1185958139661698,1.0837030410766602,-1.7650970220565796,2.027451276779175
9.7314736328125,-3.8361055183321233,-5.641656226173043,2.652755565708876,0.83527308559902,-9.716099960502982,1.0344644824050366,0.8023583292961121,-0.1912082433700561,1.8784750699996948
9.741533447265626,-3.1752205199331045,-6.18146920556128,3.2316385727256534,1.0172967822439969,-9.706751701921224,0.9562689706336708,0.7022538185119629,1.3964139223098757,1.7241644859313965
9.751593505859375,-2.001377231323719,-6.37953269431591,4.659496954414248,1.1970750380497426,-9.695137251973152,0.861232652568072,0.783226728439331,2.669768810272217,1.56266987323761
9.7616533203125,-0.4373955380953848,-5.985113689768314,6.25414807280302,1.362305566934496,-9.683589437520505,0.7366214265804737,0.9848290681838988,3.3178443908691406,1.323339343070984
9.77171337890625,1.44517908045426,-4.901103232297301,6.474605179673433,1.5040288904383778,-9.673450320822,0.5767678049610927,1.3307846784591677,3.2148799896240234,1.147078275680542
9.7817724609375,1.3235206398576498,-4.911241179952025,6.666738109335303,1.6256868926435708,-9.663312373167276,0.3846344369078054,1.62959086894989,2.6760523319244385,1.056342363357544
9.79183251953125,1.2239298002928494,-1.1256681635051966,6.386477398887276,1.7278212792113423,-9.651382281398773,0.1893469887377694,1.5085395574569702,2.048708915710449,0.9064212441444396
9.801892333984377,-2.951581860417128,-0.2037824509233236,5.610840816670656,1.80401078492254,-9.639230071312188,0.0345367818128084,1.0929545164108276,1.0796717405319214,0.5726600289344788
9.811952392578124,-7.376902979210018,0.2561182028383016,3.172643947443366,1.830585195854306,-9.634056468066571,-0.0655686927432427,0.8341671824455261,-0.1845860034227371,-0.0337105765938758
9.8220126953125,-5.648254893785714,0.7273831311792135,1.748859098803997,1.805411591631174,-9.638153381991383,-0.1299298271944746,0.755074679851532,-0.9613839983940125,-0.4368395209312439
9.83207275390625,-5.612484492224454,0.7329150463432074,1.814140257009864,1.7696408978089688,-9.64368471263349,-0.1952111497971229,0.9221252202987672,-0.4979458153247833,-0.2725698947906494
9.84213232421875,0.3024789719969034,0.7142839956313372,0.5230051985807717,1.7602753958314656,-9.642710899165271,-0.2998954765760339,1.301427721977234,0.1451657563447952,0.0882791727781295
9.8521923828125,0.589798953306675,1.2511983309686183,-1.2137846922449766,1.783902355134487,-9.63269979276061,-0.4462948108006268,1.625046730041504,0.1853198260068893,0.3917538225650787
9.86225244140625,-1.6320460524119436,2.1045278091967106,-1.8081870476938784,1.828520226148516,-9.615287470188736,-0.6108544546864927,1.7123947143554688,-0.0731157287955284,0.513475775718689
9.872312255859375,-2.778050170850753,2.782221903577447,-1.027029583163932,1.8821699832715093,-9.593725042200088,-0.766975648311898,1.5963038206100464,-0.3864883184432983,0.5705739855766296
9.882372314453123,-2.853660123108327,3.3099873022973534,0.1346823189511895,1.9468565365850925,-9.569179799008367,-0.9005276480589062,1.382775068283081,-0.7200760841369629,0.6783666610717773
9.892432373046876,-2.486863577240705,3.4459026701748368,0.6997075540725142,2.0250819320380686,-9.542587560158967,-1.0042200777236372,1.173288345336914,-1.1423556804656982,0.7477649450302124
9.902492431640624,-2.729238501408696,3.2095880689591167,0.8813577412299811,2.1118338944263755,-9.51576560420692,-1.0773830752205102,0.9933996796607972,-1.8029364347457888,0.7371857166290283
9.912551025390623,-3.746973528939485,3.3870471611022945,0.8604350724495947,2.202863241872936,-9.490166468048097,-1.1200563880380243,0.8642118573188782,-2.32745361328125,0.6664282083511353
9.922611328125,-3.8234231468915936,3.434620228660106,1.289090985380858,2.2869442314863204,-9.467110586631298,-1.146336857524514,0.820397675037384,-2.384836435317993,0.5300179123878479
9.93267138671875,-2.967387332314253,3.097208474969864,1.9780583150565625,2.360008152522892,-9.44648105557859,-1.168219311247766,0.7978715896606445,-2.3612449169158936,0.4364568293094635
9.942731201171876,-2.803257385082542,2.864205774781108,2.7727517721816897,2.427367870568484,-9.427461882331968,-1.1837504962481558,0.7160635590553284,-2.3405466079711914,0.400494784116745
9.952791259765624,-2.8139634880140423,2.758470441111922,3.718529232482612,2.4913445220470427,-9.410010396793483,-1.1896535828121009,0.5986674427986145,-2.216177225112915,0.3737917840480804
9.962851318359377,-2.586227914573252,2.92442321985662,4.310782008682192,2.550015322202444,-9.394453931221364,-1.1882938387662172,0.4665587544441223,-1.8806931972503664,0.3557658195495605
9.972911376953125,-2.1181389859199524,3.366244611570239,4.467637873257696,2.602515617029369,-9.380778457090258,-1.1824940664462744,0.3300858736038208,-1.4550230503082275,0.3323798179626465
9.982971435546874,-1.95423700222522,3.914272461596131,4.254467708525062,2.646609610299766,-9.369460359740255,-1.1743269074078648,0.2156235426664352,-1.132495641708374,0.2735346555709839
9.99303125,-2.1476336682125923,4.380852446991205,3.810719148141145,2.6782483188837767,-9.361838778820632,-1.163330589358136,0.108664870262146,-0.825875461101532,0.1398365199565887
10.00309130859375,-1.9683157964602112,4.7829076455056665,3.680032036305964,2.689120718292892,-9.360172891435026,-1.1516054455772042,0.0393028892576694,-0.5597474575042725,-0.077155016362667
10.013151123046876,-1.7494564801752566,4.892312023076415,3.368991279929876,2.6779578115046023,-9.36483036185205,-1.1396905513778328,0.0011789370328187,-0.4715981781482696,-0.2838954329490661
10.023211181640624,-1.1331959286615252,4.0134646572321655,2.5216478903740644,2.647228618980944,-9.375129637548326,-1.1267259289298206,-0.0152338817715644,-0.4428868591785431,-0.4764172732830047
10.033271484375,-1.0826581660792232,4.029133935528994,2.508688455557823,2.5966911486595867,-9.390798915845156,-1.1137668594397605,-0.0219511743634939,-0.4031229615211487,-0.6942340135574341
10.043330322265623,-0.3050789253622293,2.9759032317250966,1.439711901089549,2.526299807833135,-9.411367656621335,-1.1019796102080492,-0.0250702686607837,-0.3415549397468567,-0.8676276803016663
10.053390380859376,0.3980295962601899,2.4006986209601164,1.0337769385322928,2.4437381367415187,-9.43456382329166,-1.089741402338445,-0.0509362183511257,-0.3889786303043365,-0.9491102695465088
10.0634501953125,1.2656962273985146,1.7526964850097897,0.754900741245225,2.35747907243669,-9.45858416582644,-1.0713844193276016,-0.1214852854609489,-0.4560516476631164,-0.953061044216156
