seconds_elapsed,acc_z,acc_y,acc_x,grav_z,grav_y,grav_x,gyro_z,gyro_y,gyro_x
6.049473388671875,-5.6737219279974695,-4.444522662869096,3.1186426004037258,1.09750487594679,-9.684858434543012,1.0813856619253754,0.4688135087490082,-0.4003298282623291,1.8144006729125977
6.059533935546875,-5.840655534473061,-4.796116671168804,3.3086484549090263,1.268478697723895,-9.66830243653953,1.0417656722638755,0.3221531510353088,0.805568277835846,1.6591275930404663
6.06959423828125,-5.472040833267569,-4.868762220662832,3.504351644273102,1.43676357267797,-9.650424834543466,0.9876195099260656,0.4461027979850769,1.812068223953247,1.5201457738876345
6.079654296875,-4.228748745378852,-4.439902017331123,3.989161406102777,1.591086996166408,-9.63486135470867,0.8990501959174871,0.7008640766143799,2.4860916137695312,1.202897310256958
6.08971533203125,-3.02990662459135,-3.249937615004182,5.584373665505647,1.707559266296774,-9.62592927571237,0.7720820315402,1.0445791482925415,2.658780813217163,0.7344294786453247
6.099775146484375,-1.7468834148168564,-1.8181781342238184,6.104514560696482,1.7729203578710555,-9.625956163719296,0.6067321505920961,1.4969817399978638,2.038126230239868,0.2826231122016907
6.109835205078125,-1.4980628216408192,-0.9023544981598852,4.110360850885511,1.7918015839517116,-9.632433250778911,0.4196184007991105,1.757735252380371,1.0964897871017456,-0.0501252897083759
6.119895263671875,-1.072726408521086,-0.4806225392729044,1.982277247925848,1.7785666931949555,-9.641163669723271,0.2346038152424618,1.772306203842163,0.3308749794960022,-0.2534620463848114
6.129956298828125,-1.0520037923574448,-0.3113414928883314,0.7088045413069427,1.7509611856497824,-9.648836688569189,0.0669167554844869,1.610969066619873,0.0794342011213302,-0.305643230676651
6.14001611328125,-0.8430379474468529,0.2104886705636978,0.6528451190020889,1.7264982139140366,-9.653069796094298,-0.0884119862887077,1.5455671548843384,0.3082484006881714,-0.1711800843477249
6.150076171875,-1.5495283665925264,0.0797013132244348,-1.6265701052188872,1.7210130605012175,-9.651270637717843,-0.2479401570796966,1.6166421175003052,0.3837522268295288,0.0697494372725486
6.160136474609375,-3.96619612557888,0.7505366277515888,-2.035388368127495,1.7349499620474873,-9.64305050638318,-0.4146281547637656,1.740822672843933,-0.0119562223553657,0.2101008892059326
6.170197265625,-5.277217349347472,1.635395801231265,-1.228420535840839,1.757591417444497,-9.630531801071765,-0.5780043975513428,1.719150185585022,-0.6729072332382202,0.2110220789909362
6.18025732421875,-4.859409285905957,2.436507016444206,-0.210570211367309,1.783608486754447,-9.61626771339774,-0.718679161850363,1.5425901412963867,-1.2667057514190674,0.2023974806070327
6.190317138671875,-4.650207148021459,2.9780554413229225,-0.1133665591999888,1.814723902116716,-9.601165421333908,-0.833540197391808,1.400662541389465,-1.7601617574691772,0.1880550235509872
6.200377197265625,-5.011504219689965,3.674033380413056,0.1612677627336233,1.850409986395389,-9.586065467357637,-0.9239706290971488,1.2488713264465332,-2.2698371410369877,0.1832003891468048
6.210438232421875,-5.0546325827986,3.6586037560909994,0.2311956507667899,1.893538495634496,-9.570636427557467,-0.9938985901955516,1.1727489233016968,-2.603970527648926,0.2337288111448288
6.220498046875,-4.75544856069386,3.652161155822873,0.576249078316614,1.9480976226873692,-9.55297042248547,-1.0564361487817018,1.1552640199661257,-2.535308122634888,0.341039091348648
6.23055810546875,-3.710691962985694,3.690115915685892,2.188113562639057,2.011107913351804,-9.53361281106472,-1.111770205729827,1.030731439590454,-2.509000539779663,0.4016342759132385
6.2406181640625,-3.2860487928271294,3.739130414223671,3.019893180099129,2.081615720164776,-9.513795765438676,-1.1510691467434166,0.8443942666053772,-2.484135389328003,0.4746440351009369
6.25067919921875,-3.3040047207564114,3.549606205755472,3.475567448337376,2.1586786477096376,-9.49440951244533,-1.169053497049585,0.6638801693916321,-2.6158134937286377,0.5080997347831726
6.2607392578125,-3.071554978275299,3.2478859431713816,3.936359205719828,2.23313533827886,-9.477000112482903,-1.1704577378243208,0.5646186470985413,-2.556696891784668,0.3918657302856445
6.27079931640625,-3.3709909293144937,3.3809675489276647,4.529442003002763,2.293151269432902,-9.463735557240248,-1.1616979466550053,0.4597098231315613,-2.506864070892334,0.2443689405918121
6.280859375,-3.2092440778270364,3.4904806475698944,5.052765619882941,2.3373056145884097,-9.455184001994132,-1.1431835811253637,0.3204306960105896,-2.267589807510376,0.098569855093956
6.29092041015625,-3.282309898559749,3.5577941883862017,5.0332987028688185,2.363236028528213,-9.45187093192339,-1.116983556463942,0.1853634119033813,-1.952503561973572,-0.0606022179126739
6.300980224609375,-3.230948252373933,3.73452438173294,4.909794488275051,2.3694844213984907,-9.453973457160592,-1.0855063220519572,0.049222145229578,-1.6645053625106812,-0.2276114970445633
6.311040283203125,-2.6964170127809046,3.8025107072442768,4.553029799339175,2.357637331738323,-9.461356553149225,-1.0462727744247764,-0.0755067393183708,-1.5215367078781128,-0.378583163022995
6.321100341796875,-1.865352557852864,3.635760056120157,4.0094516221985215,2.3322220277138053,-9.472674065977335,-0.99979042471312,-0.1425427347421646,-1.5095329284667969,-0.4902970492839813
6.331161376953125,-0.531892123261094,3.3356478132545946,3.787964003236592,2.2952217920966445,-9.48665173792541,-0.9517330077044666,-0.1465068459510803,-1.3946422338485718,-0.5799366235733032
6.341220947265625,0.5271826303958892,2.7888381068468093,3.5389839817151425,2.24889404842481,-9.502029339799284,-0.9079059948071836,-0.1401878297328949,-1.2534666061401367,-0.6525616645812988
6.35128125,0.5820610525310039,2.805394104850292,3.4989480316638946,2.194015772420168,-9.518585922324656,-0.867870190886408,-0.1510953307151794,-1.0994940996170044,-0.7047401666641235
6.36134130859375,1.6737274315826594,2.211249815815687,3.1288498139023777,2.135896176406741,-9.535261162793637,-0.8289199171800166,-0.1735784113407135,-1.0868332386016846,-0.6917107105255127
6.37140234375,2.727521176096797,1.4422194999963045,2.3170099916651843,2.081681917268783,-9.550781388008597,-0.7871151308253407,-0.2151255905628204,-1.0933151245117188,-0.6078320741653442
6.381462158203125,3.998903632438183,0.3460527407854795,1.7881325400501489,2.040619546779245,-9.563279635053872,-0.7415669201586395,-0.2495531290769577,-1.1209977865219116,-0.4148770272731781
6.391522216796875,5.539604549452662,-1.0110632946819067,1.1493286597516388,2.0184414711102843,-9.571457096290588,-0.6953279507488012,-0.2440079003572464,-1.0175738334655762,-0.2117753326892852
6.401582275390625,6.677142598971724,-2.1472686342924834,0.3232861977040767,2.012911894033849,-9.575341244247555,-0.6568284164845943,-0.1614892333745956,-0.801427960395813,-0.0304977595806121
6.41164208984375,7.389184368634224,-2.859458287993073,-0.8499113403476775,2.0219738830201326,-9.57482920307219,-0.6361399217862636,0.0237093791365623,-0.5209470391273499,0.1294548958539962
6.421703125,7.937831227341293,-3.395248003214597,-2.29169566379711,2.043296364773065,-9.569953121468425,-0.6413510074980556,0.2479767352342605,-0.2462144047021865,0.2552675902843475
6.43176318359375,7.891557551944255,-3.896577814951539,-3.429460653939843,2.071763165322691,-9.561528991994262,-0.6747994689177721,0.531329870223999,-0.1325687915086746,0.3003852665424347
6.441823486328125,6.491334196156263,-4.529504546844959,-4.839008595173061,2.098911576750129,-9.550945054137706,-0.7378354054801166,0.8491237163543701,-0.2078400999307632,0.2181759625673294
6.45188330078125,3.9284593923807134,-4.82603776217997,-6.165120712828636,2.111662629512697,-9.540967850002646,-0.8253495113473385,1.1127029657363892,-0.527863621711731,-0.0245597213506698
6.4619443359375,0.5457543521359562,-4.600108361378312,-6.614111850041151,2.105674056622386,-9.5337612796247,-0.9186453424211593,1.1029049158096311,-0.8741607666015625,-0.2050526440143585
6.47200439453125,-0.7238701546221971,-3.2916806612342597,-4.814251170535385,2.096944952852279,-9.52777285286486,-0.997374157351628,0.9362727999687196,-0.8562917709350586,-0.1285900920629501
6.482064208984375,0.5509332160785794,-1.4373855039685963,-2.6826459693208333,2.100346139597893,-9.51938028757274,-1.0678711505096403,0.8506656289100647,-0.565169632434845,0.0333109945058822
6.4921240234375,0.9856738557510076,0.2053168208837509,-1.9101207971230147,2.1113756292648613,-9.509184472250938,-1.1348548748496918,0.7046633958816528,-0.2587646842002868,0.0823182240128517
6.50218505859375,0.4078343664377927,2.043253548544645,-1.0555926106296478,2.119245631987601,-9.500593169516325,-1.1907670970119535,0.5079575777053833,-0.0131732113659381,0.0320702604949474
6.5122451171875,-0.0963444049894809,3.749678111723065,-0.4729134262003004,2.114656112240255,-9.496659921720624,-1.2296633755087851,0.2634146511554718,0.142389491200447,-0.1302739083766937
6.52230517578125,-1.050071070729196,5.369079055964947,0.275896816150099,2.088556040821969,-9.500424827212097,-1.2450997218325734,-0.0498815849423408,0.2783164083957672,-0.3646917045116424
6.532365234375,-1.8181228969052432,6.732196377673745,1.3327740597628055,2.038987853924185,-9.51321007450521,-1.2295238209076225,-0.4472987353801727,0.4744289219379425,-0.5730035901069641
6.54242529296875,0.2398503741264343,6.150094408610463,3.5361283000230785,1.9708957299508156,-9.53444867736697,-1.1748471318896858,-0.9831769466400146,0.8218556642532349,-0.6640441417694092
6.552486328125,2.081881969885528,3.338798386240005,4.680812714165449,1.897281335424632,-9.561628945237398,-1.0705065405145286,-1.602080225944519,1.2008583545684814,-0.6118642687797546
6.56254638671875,4.657358773341775,-2.3552649035185573,5.539840696296095,1.8373622887738048,-9.589706454208493,-0.9121484546825288,-2.163424253463745,1.2784751653671265,-0.3197867572307586
6.572606201171875,3.5122710390955207,-10.99766011198759,6.985992859566212,1.8181199742957947,-9.6110274746567,-0.702111327278614,-2.5415048599243164,0.646564781665802,0.0487174950540065
6.582666259765625,-4.817846272417903,-18.38286037942171,7.868799776691198,1.819856734960526,-9.625407882186767,-0.458296981424652,-2.378042936325073,-0.7452046275138855,-0.0532297901809215
6.592727294921875,-6.561045445764065,-18.50950756821632,7.305980600246786,1.811997107501328,-9.634632222127914,-0.2468264419504441,-1.4905916452407837,-1.4647421836853027,-0.1753176152706146
6.602787353515625,-4.554789210227131,-10.527202992898223,6.2815481209039685,1.79621983878538,-9.639906363138556,-0.1272527900049462,-0.523682177066803,-1.1299372911453247,-0.1928544789552688
6.612846923828125,-4.00659243337512,-1.1095604937911032,6.048959846735,1.7775909800305962,-9.643846625196932,-0.0823099339534062,-0.1718085259199142,-0.5647678375244141,-0.2073724418878555
6.6229072265625,-3.420730234995484,3.550893907478452,5.900067508384585,1.7582563110940157,-9.647578212940692,-0.0561202891221037,-0.2575260400772095,-0.2164717614650726,-0.2010888904333114
6.63296728515625,-3.295442644116282,5.820708724987506,5.210606988364458,1.7318794685609638,-9.652478844463824,-0.0252147468009847,-0.4114482402801513,0.4055225551128387,-0.3743908703327179
6.6430283203125,-3.52801338262856,6.497609623163938,5.00535914106369,1.6832811496086415,-9.661097619727254,0.0118401929868559,-0.6017891764640808,0.9966559410095216,-0.6155595779418945
6.653088134765625,-3.8349575173407793,6.343326239424943,4.344800013618171,1.61568250824064,-9.67246306335032,0.0584361694156192,-0.7491879463195801,1.289512276649475,-0.7768909335136414
6.663148193359375,-4.591174528816342,5.958042727491259,3.6574747520610686,1.5349762557573616,-9.685065939813851,0.1171338210453279,-0.8684638738632202,1.2755513191223145,-0.901154637336731
6.673208251953125,-4.75796609647274,4.956147658649087,2.8264316321820018,1.4439423782661556,-9.6980136841923,0.1842770650623366,-0.8637292981147766,1.16146981716156,-0.999786138534546
6.683269287109375,-4.660111871442198,4.96880489564836,2.7631132984817026,1.3460880071051418,-9.710670921191571,0.2475952343658544,-0.7393700480461121,1.0522284507751465,-1.0379351377487185
6.6933291015625,-4.388481042173504,2.621930219334364,1.774437776696682,1.2511793340072035,-9.721935242527724,0.2981927460450679,-0.5538989901542664,0.8693217635154724,-0.9485026597976683
6.70338916015625,-4.422967249143124,1.7055372589498756,1.5284611747749148,1.1683494404334571,-9.731050861397383,0.3346764835074544,-0.3786999583244324,0.5943226218223572,-0.7847889065742493
6.713449462890625,-4.149175442448258,0.6955828022927045,1.5547161444939672,1.1034515824567526,-9.73773428468406,0.3595977569373324,-0.2515305578708648,0.3289836645126343,-0.5684656500816345
6.72350927734375,-3.870855929195881,-0.3498831127285957,2.044768044760823,1.0612599887415766,-9.741527247226236,0.3831020397087559,-0.2968202829360962,0.1052222102880477,-0.3063797354698181
6.7335703125,-3.853594413271546,-0.3495885136961936,2.006733205398917,1.0439989112086594,-9.74182301530242,0.4211367329401895,-0.4988495409488678,-0.0811500623822212,-0.0473495051264762
6.74363037109375,-3.7672441635519274,-1.1432172641992568,2.302246576166898,1.0483288301717488,-9.738280228129028,0.4871478859210386,-0.8297597169876099,-0.2149883657693863,0.1347681283950805
6.753690185546875,-3.840394739958644,-1.780772824937105,2.1426292840540406,1.061774441069737,-9.731147307509184,0.5897533605992794,-1.2154150009155271,-0.2767148315906524,0.0973381921648979
6.76375,-4.1884307635158295,-2.551152217277884,1.3028382095739244,1.0373618112817409,-9.724369776198268,0.7286418260034173,-1.5405133962631226,-0.2592182755470276,-0.6132891178131104
6.77381005859375,-4.987024442949891,-3.718566349622607,-0.2535270903665572,0.9301992212884128,-9.72218249528706,0.8855962555825709,-1.558383226394653,-0.3565008640289306,-1.5216749906539917
6.78387109375,-4.968482239565253,-4.270653119650483,-2.3461036919414995,0.7379279791343957,-9.724652684792876,1.0280957510907205,-1.2593649625778198,-0.4617717266082763,-2.3039071559906006
6.79393115234375,-4.047597812980413,-3.673095222780108,-4.079434674485028,0.4799380276074633,-9.728896313712,1.1351649637121706,-0.8627065420150757,-0.5186557769775391,-2.816896677017212
6.8039912109375,-2.8766344637215138,-2.6485195355743167,-5.100252762722969,0.1868983534766361,-9.730998254427313,1.2012952860932795,-0.4593929648399353,-0.4279182851314544,-3.012070417404175
6.81405126953125,-1.3914204561293124,-1.6181570816606283,-5.465597648477554,-0.1091458362324163,-9.72856313623488,1.2302552039220929,-0.1452976167201995,-0.160011738538742,-2.933720827102661
6.824111328125,0.0282277676293626,-0.4556944342434406,-5.2205672413647175,-0.3827189586753025,-9.72100819081068,1.2352689404308794,0.0387247242033481,0.3999303579330444,-2.6553151607513428
6.83417236328125,1.969214498865604,0.8133505190610885,-4.369763482221961,-0.6100558881873265,-9.710054250597953,1.2300671340040863,0.1486198008060455,1.182548761367798,-2.178367853164673
6.844232177734375,3.350498176383972,1.6798194648474454,-3.356728010684252,-0.7770307399887592,-9.699197925540805,1.2215488965056835,0.2514135837554931,2.0134997367858887,-1.6479339599609375
6.854292236328125,3.246572522485256,2.1656442489385603,-2.82365632224977,-0.8875357722777872,-9.690471598249673,1.2155009946435689,0.2721121907234192,2.744184732437134,-1.237994909286499
6.864352294921875,2.10821716523394,2.654008196118474,-2.220691013377905,-0.9561572538875044,-9.683235801777244,1.221112039458379,0.188322514295578,3.365183591842652,-0.94834166765213
6.874411865234375,1.770705896691978,2.628776139706373,-1.5651694417081772,-0.9961822441533208,-9.676260117545723,1.2441969277739524,0.0514245890080928,3.64296555519104,-0.8003194332122803
6.88447314453125,1.390734081300348,2.164456500458717,-1.2802613438457249,-1.0329506437759846,-9.667736034828424,1.2799620686382054,-0.0214954428374767,3.5280957221984863,-0.930678129196167
6.89453271484375,0.4754721707724034,1.1753572003036736,-1.5780325765430927,-1.0946729404564943,-9.65577028722465,1.3184113340198993,-0.0324045531451702,3.077868700027466,-1.242011785507202
6.9045927734375,0.0637280835449695,-0.1949427263855934,-1.6888436060413716,-1.1930426407285033,-9.639539867913722,1.3514108095631003,-0.0025869482196867,2.3353030681610107,-1.5203471183776855
6.91465283203125,0.3133974025048315,-1.2149404381513595,-1.5934684844754636,-1.320159054470062,-9.61971873063445,1.374249102706462,0.0235788747668266,1.5012173652648926,-1.6179953813552856
6.924712646484375,1.919470663139969,-1.5637503686904906,-0.5623632493704557,-1.4560431504264473,-9.598016017392276,1.3886619512014091,-0.0071840966120362,0.7687721848487854,-1.4894802570343018
6.934773681640625,2.6872224834561345,-1.2084089905560016,-0.0263610604420304,-1.580054291629046,-9.576422025221586,1.4021291894093155,-0.1279504597187042,0.2781486809253692,-1.2132465839385986
6.944833740234375,3.414062593799829,-0.556708000087738,0.4736613219581544,-1.676021972260624,-9.556249590286612,1.4280828380942343,-0.3633606433868408,0.1156962364912033,-0.8237872123718262
6.95489404296875,3.559402792626619,-0.1158423016637563,0.5898746488913893,-1.7336749736756083,-9.538176757979391,1.479164206033945,-0.6503024101257324,0.1641753613948822,-0.4200040400028229
6.964953857421875,3.04768076621294,-0.1451923147886991,-0.2876119499936699,-1.7539134595841168,-9.5224431822747,1.5547431786313652,-0.8287549614906311,0.2731005549430847,-0.0853538140654563
6.975013916015625,2.0028443812668324,-0.181431502905488,-1.2153108788989484,-1.7469639327071609,-9.508949494451285,1.6426760213673113,-0.8889554142951965,0.294820487499237,0.1129185259342193
6.985073974609375,1.985345987846702,-0.1941319945245981,-1.3048507184401157,-1.7294652470260858,-9.496250756397842,1.732215714778006,-0.8831425309181213,0.2335571497678756,0.1364971697330474
6.995135009765625,-0.1351170571066439,0.2596171508699655,-2.552087452301383,-1.7185932860083877,-9.4817838396281,1.8200605869695543,-0.90004563331604,0.0980123803019523,0.0135818980634212
7.005194580078125,-0.7448154736258089,0.2896341034710407,-3.248456436535716,-1.726299768732488,-9.46331820861101,1.9068059734866023,-0.9078177809715272,-0.0553023815155029,-0.1894353777170181
7.015254638671875,-0.7156827565133571,0.2674246097505092,-3.3302009460255504,-1.755432924236357,-9.4411075458467,1.9885500445850195,-0.8387947678565979,-0.1306895464658737,-0.3778004944324493
7.025314697265625,-0.4929366619229316,-0.7101882507503032,-4.359282127957046,-1.8005585986420511,-9.417434409314394,2.0592025205656883,-0.7104387879371643,-0.1885448992252349,-0.4961904287338257
7.035374755859375,-0.3389933237932622,-1.3247329382568598,-4.3339980490967625,-1.855292936131358,-9.39410730974078,2.116368761377037,-0.5907139778137207,-0.2777919471263885,-0.5490445494651794
7.045435791015625,0.2906102550268173,-2.120177798271179,-4.179281826898455,-1.9129807165987789,-9.37228886116445,2.161269102594256,-0.4783824682235718,-0.3040150701999664,-0.5287453532218933
7.055495849609375,0.9533186694607138,-2.9289205312758684,-4.136077768205106,-1.965617351156473,-9.353334569847584,2.1958768901169297,-0.368785411119461,-0.2091410160064697,-0.4656755626201629
7.065555908203125,1.109825866729021,-3.4447570072710514,-4.199724895468354,-2.010194890160113,-9.337436743491889,2.2230122959323224,-0.2677226364612579,-0.0499515607953071,-0.421671986579895
7.07561572265625,1.354611651431024,-3.5942356210768223,-4.130198939299583,-2.0472848498873413,-9.324128933629392,2.2449152079217134,-0.1913554370403289,0.1416604816913604,-0.3864237070083618
7.08567578125,1.6605439787521958,-3.425090768292546,-4.013245461523533,-2.075638837712258,-9.312659445109963,2.2663759291015566,-0.1692104041576385,0.3051384091377258,-0.3266367316246032
7.09573681640625,1.8685554455474016,-3.118530079939961,-4.245095484545827,-2.09465801095888,-9.303186098843812,2.287685405242443,-0.1251281648874282,0.3886508643627167,-0.2484407424926757
7.105796875,2.304334926748276,-2.9546120218932628,-4.354327135898172,-2.104717924941331,-9.296667510730028,2.304890660934895,-0.0531108789145946,0.4989179968833923,-0.1842105388641357
7.11585693359375,2.3045383403658866,-2.958379265472293,-4.369287096881866,-2.1049222153417766,-9.292900267150998,2.319850329657644,0.0039377612993121,0.7258952260017395,-0.1185766607522964
7.125916748046875,3.0930069316267965,-2.792642759826779,-4.123906853418052,-2.090883460856229,-9.292239757415652,2.335138938073814,0.0474086627364158,0.9739317297935486,0.0019802842289209
7.135976806640625,4.121826247751713,-2.683131414750218,-3.855903274735808,-2.054582167288661,-9.29580650998652,2.35309267404601,0.0424807481467723,1.1926443576812744,0.2475237399339676
7.146036865234375,5.477805972665548,-2.9328987872570758,-3.3180703632488844,-1.9854136462554333,-9.305360520273446,2.3746049792826174,0.0600758232176303,1.3149471282958984,0.5907924175262451
7.15609765625,6.27852263560295,-3.713940443387628,-3.170020028680563,-1.881271426996589,-9.322935339930654,2.3904084053531287,0.1267648488283157,1.1447354555130005,1.0002381801605225
7.16615771484375,6.130010821002721,-4.585383670455217,-3.839774269972741,-1.7438333795964718,-9.349320073509215,2.391581686916202,0.2247960120439529,0.7738815546035767,1.425950050354004
7.1762177734375,5.554451989972591,-4.313775053018332,-4.3633731966629625,-1.576785791352391,-9.383152200484275,2.3749885717727244,0.3196293115615845,0.3452409505844116,1.836758255958557
7.18627783203125,4.5806431979298585,-3.008635873025656,-4.610051078721881,-1.380343912450224,-9.422058561983704,2.343041235630959,0.4025181531906128,-0.0060082152485847,2.225446939468384
7.196337890625,3.626417058235407,-1.7856699493288992,-4.65240611937046,-1.1558998548354953,-9.46348655091524,2.297110090061277,0.5120060443878174,-0.3628845810890198,2.578207731246948
7.20639794921875,2.373707299790531,-1.0014981784790753,-4.921779525101185,-0.9104005150366574,-9.5053044159472,2.2339888863682744,0.6886800527572632,-0.832039475440979,2.827188491821289
7.216458984375,0.9500490732055156,-0.7840478522092104,-5.517548784989118,-0.65825618426539,-9.546484567597508,2.14516669357717,0.9909882545471193,-1.3660565614700315,2.9153716564178467
7.22651904296875,-0.3082522947013378,-1.0654875433087347,-6.178557702028751,-0.4138981965214013,-9.5867645555377,2.0231215917505323,1.352198362350464,-1.9320530891418457,2.8660314083099365
7.236578857421875,-1.4009972627699374,-1.5113719466775657,-6.0795320951312775,-0.1842634018631652,-9.62495780033171,1.8699268800310789,1.660853624343872,-2.47944974899292,2.777329444885254
7.246638671875,-2.2516057916015386,-2.056534470400214,-4.640076799151301,0.0305347225476172,-9.658892803159356,1.6956575238399207,1.866605758666992,-2.975111246109009,2.6464638710021973
7.25669873046875,-3.4108301877498626,-3.384111107650399,-2.6550106511592864,0.2290858372722752,-9.686434305557608,1.5135750096797942,1.916303277015686,-3.2407798767089844,2.472971200942993
7.2667587890625,-4.631194989037513,-4.674126952791214,-0.7567690924003719,0.4197941226921975,-9.704550392484665,1.3475380597829818,1.6377394199371338,-3.0006043910980225,2.363903522491455
7.276819580078125,-4.894090138664842,-4.417731102055311,1.44418583163321,0.6120606156058609,-9.710901807338,1.222356194300577,1.190102458000183,-2.2789974212646484,2.2748911380767822
7.2868798828125,-5.042413737216592,-4.362569186803698,3.181608759665489,0.8082680281650274,-9.706507956293224,1.1405236412011086,0.7589495778083801,-1.2560712099075315,2.1723625659942627
7.29693994140625,-5.275237573707104,-5.344930703136325,4.041918598300218,1.0060767384409903,-9.69409621848762,1.087508747915551,0.4782625138759613,-0.1056011021137237,2.039522647857666
7.306999755859375,-4.513904826653003,-5.975252220967412,5.114430341157317,1.2012273354236036,-9.67714099203348,1.039416040397808,0.4384320080280304,0.8755040168762207,1.8676649332046509
7.317059814453125,-2.9864088436484337,-4.678121575385332,6.622522535511851,1.3815455433249473,-9.65985434166789,0.97412969456017,0.6114629507064819,1.3642539978027344,1.5928751230239868
7.327119873046875,-0.4655139635987579,-1.998530025199056,9.395904130029678,1.5349737715393303,-9.645070029512048,0.8870426549986005,0.7498695850372314,1.3636919260025024,1.301201105117798
7.337180908203125,0.3149620214730501,-0.0116314010828733,10.318350983625647,1.657111958476901,-9.633559039938447,0.7867043580673635,0.9294214844703674,1.0668877363204956,0.9886757731437684
7.34724072265625,0.2342607374258339,-0.0171159699738025,10.433818606758116,1.737813096393645,-9.628076224613189,0.6712365157391875,1.1416832208633425,0.585860013961792,0.5590589046478271
7.357301025390625,0.0326866102017462,0.4601245256453752,5.211977692195773,1.7807719481542703,-9.627823126634954,0.5516136360907927,1.087833046913147,0.6665546298027039,0.270946204662323
7.36736083984375,-0.0876489112280309,0.607742021754384,2.942427663102746,1.803543167410791,-9.629543959078193,0.4353420761642977,1.0002776384353638,1.0821759700775146,0.1256227791309356
7.377420654296875,-1.7997224400788543,1.1202210040152072,0.3482637678984552,1.8173798234529792,-9.631607321348786,0.3156783895814791,1.036257028579712,1.2801657915115356,0.0742205679416656
7.387480712890625,-2.685069689336419,1.1158154625326395,-2.429680239164084,1.8297412923760712,-9.63273895572722,0.1810758396019227,1.2928119897842407,1.2290654182434082,0.1300501078367233
7.397540771484375,-2.0284376722067594,0.8542220431536436,-3.101782651017606,1.8520146451130508,-9.630168228456377,0.0173027338507119,1.5933440923690796,1.2920345067977903,0.3123160600662231
7.407601806640625,-2.84834886495769,1.5417635778099297,-2.299505606895685,1.8893216085918247,-9.621445408296584,-0.1692155068676918,1.74743914604187,1.195516586303711,0.4685794115066528
7.41766162109375,-4.330019500854611,2.206803942322731,-1.9084972875744104,1.934620739868283,-9.60728010482192,-0.3574649826923385,1.747074842453003,0.6740991473197937,0.5009432435035706
7.427721923828125,-4.854451955759525,2.691794029155373,-1.2985026645876467,1.979314890988916,-9.590386837688088,-0.5264775873990729,1.616062879562378,-0.0970659032464027,0.4496923983097076
7.437781982421875,-4.593607016660273,3.118972563010454,-0.4509326997343451,2.0250771097324787,-9.572392915835977,-0.6623709261078388,1.3999117612838743,-0.8596551418304443,0.4473890364170074
7.447841796875,-4.144892066040635,3.1405759075313804,0.0247607856385409,2.07824697438404,-9.553444469738006,-0.7635214162047952,1.213254451751709,-1.4250229597091677,0.4841561615467071
7.45790185546875,-3.717747434455156,3.0186154152482745,0.3117113491140306,2.139369989997149,-9.5333871856153,-0.8414283202931284,1.1383732557296753,-1.7971813678741455,0.516485869884491
7.467962890625,-3.0484564267605543,2.918000493332744,1.246185178981721,2.2076425851039585,-9.511631865403055,-0.9086028179649264,1.1165282726287842,-1.9293850660324097,0.5721702575683594
7.47802294921875,-2.577488143278658,2.869700865066051,2.4751196556940678,2.2849467740587888,-9.487275422781703,-0.9700649293392896,1.0774040222167969,-1.9384562969207764,0.6594130396842957
7.48808251953125,-2.5287536307260394,3.098565734797716,3.795595228767395,2.3719329835943874,-9.46055751172602,-1.0208649961195886,0.9383484721183776,-2.00260329246521,0.7626190185546875
7.498142578125,-2.889998387685418,3.110950584596395,4.431587485711276,2.4701155637964605,-9.431941658094525,-1.052321480004489,0.7688723802566528,-2.1027088165283203,0.8437449932098389
7.508202880859375,-2.990727291369438,3.0823481749683617,4.446204040084779,2.5708438829585907,-9.40333924846649,-1.0669378882475196,0.6403908133506775,-1.945248246192932,0.8065392971038818
7.518262939453125,-3.218886058658361,3.0194232244998216,4.581318320712447,2.657745336820185,-9.3781235586673,-1.0759076689057052,0.5368244647979736,-1.6199878454208374,0.6062517762184143
7.52832275390625,-3.7432653220713137,2.999868044680357,4.576857541911304,2.716451792810857,-9.360662720778585,-1.0813231180831788,0.4140618145465851,-1.3321024179458618,0.2958187162876129
7.5383837890625,-4.4083620929464695,3.3371512035548685,4.526205797560513,2.7424460657671093,-9.353330478194357,-1.079153957350552,0.2686460316181183,-1.1998218297958374,-0.02832767739892
7.54844384765625,-4.475406461432576,3.822637549471855,4.202918138551712,2.739011415143311,-9.355787223696709,-1.066513817616552,0.1695478558540344,-1.1748238801956177,-0.3107566237449646
7.55850390625,-3.957675257731974,3.9641087979108094,3.3812241540372368,2.709547420249879,-9.36617534672022,-1.0504687648098916,0.1608031094074249,-1.114681363105774,-0.5803857445716858
7.568563720703125,-3.11416837759912,4.0257939774513245,2.4892139397591357,2.653883108434081,-9.383418742465972,-1.0386270089119671,0.2024586200714111,-1.0382155179977417,-0.8309550881385803
7.5786240234375,-2.192280911451578,4.119268964484334,1.759652149366587,2.5768495531141755,-9.405516592505574,-1.0327125972364095,0.2339957654476165,-0.9664918780326844,-1.0138622522354126
7.58868408203125,-1.1902496490091086,3.702673199442029,1.3754384586215018,2.482818978025019,-9.430801255887744,-1.0324689977388828,0.220957264304161,-0.7845767736434937,-1.152334451675415
7.59874365234375,-0.0169417824506759,3.480597551459074,1.1838106289375572,2.3785222988568244,-9.457571773913502,-1.0331254888862371,0.162137359380722,-0.676047146320343,-1.192108154296875
7.6088046875,1.1881500463813544,3.143296856927872,0.8935636542651801,2.2740150456778703,-9.48374140343666,-1.0285367728564887,0.0466978698968887,-0.6095908880233765,-1.1242698431015017
7.61886474609375,2.672083951035142,2.5080945813179016,0.7786934125039726,2.179466584194452,-9.507693356910348,-1.0119785828959196,-0.1014039739966392,-0.6393868923187256,-0.9829066395759584
7.6289248046875,3.843314134536684,1.5491238774448632,0.5148997796669602,2.1017872783169147,-9.528249238204957,-0.9825172183509916,-0.2105723619461059,-0.6838114261627197,-0.7661195397377014
7.638984619140625,5.399930705824494,0.0908271028727293,-0.1909464963562786,2.0514234109967946,-9.542835981962083,-0.9467482050292192,-0.2220063805580139,-0.6786755323410034,-0.4012981355190277
7.649044921875,7.747873888152838,-1.858102148333192,-1.3667936721339822,2.0420167002260685,-9.547873391607403,-0.9157781894870102,-0.1255603283643722,-0.6554902195930481,0.0812317356467247
7.65910498046875,9.612007133343814,-4.168286385631561,-2.8663515546381477,2.0755873997859657,-9.542259058856963,-0.8986802666265516,0.0367476195096969,-0.5435426831245422,0.4734048545360565
7.669164794921875,9.714636902213096,-6.61953972030878,-3.9663668059706687,2.130526319936662,-9.529650337174534,-0.9038882105331868,0.3314440250396728,-0.5874751806259155,0.5141826868057251
7.679224853515625,6.585303104186058,-8.635044845706224,-5.719654242610931,2.1717890353038904,-9.517043953579664,-0.9378722401343286,0.7025619745254517,-0.8843467831611633,0.1766680479049682
7.689285888671875,2.025382960811257,-8.767164328432083,-7.087398639598488,2.181229209952801,-9.50972223238945,-0.9888421105235814,0.809788703918457,-1.2975658178329468,-0.1645676791667938
7.699345947265625,0.7787485767573118,-2.168570950040221,-1.9956458480648696,2.178988153027743,-9.506154895296692,-1.027333169220388,0.6242555975914001,-1.4635452032089231,-0.1467868238687515
7.709405517578125,0.7731120321750641,-2.172351637622714,-1.97288675763756,2.1846246976099906,-9.5023742077142,-1.0500921135172248,0.5077618360519409,-1.3025472164154053,-0.0447355844080448
7.7194658203125,0.5393278262197971,2.2168594723910093,-0.2331483192045241,2.1944014107368885,-9.497776358529924,-1.0710931812960651,0.4292792975902557,-0.9634783267974854,-0.0221791435033082
7.72952587890625,-0.047523967719078,4.055079693168402,1.0339393625523894,2.199163072180748,-9.49470644956529,-1.0884075964514166,0.2845960259437561,-0.6463093161582947,-0.0678249895572662
7.739585693359375,-0.5355272648930549,5.507309715047478,2.244711355912685,2.193361984686553,-9.495301492848991,-1.0948960086226462,0.0758169740438461,-0.3450677096843719,-0.1796964108943939
7.749645751953125,-0.7048727548159659,6.166854404753447,3.435042545725405,2.169675258020312,-9.501827095225453,-1.0854325992286205,-0.2049415856599807,-0.0297885946929454,-0.3659034371376037
7.759705810546875,-0.6190310391403734,6.39370676561892,4.282852968271077,2.1195967835128307,-9.516792609167098,-1.0527755073823035,-0.5550878643989563,0.3443202674388885,-0.6600109338760376
7.769766845703125,-0.5546425919905305,5.618526110476255,4.843742637957632,2.0360550153426824,-9.54172597489357,-0.990125647528097,-0.9720745086669922,0.6280908584594727,-0.972565531730652
7.77982666015625,-0.251313140644133,3.7135879766881454,4.943004683959484,1.923064595978707,-9.574745031920076,-0.8924644608516246,-1.3519307374954224,0.8193672895431519,-1.2171210050582886
7.78988671875,1.1142249784708025,0.2575999658286571,4.978332602450251,1.795777647975832,-9.610548751229048,-0.763490144283697,-1.6560887098312378,0.9699093103408812,-1.2184022665023804
7.799947021484375,4.954583478072285,-6.494531530892848,4.684564760175347,1.6930670689553022,-9.63984323477447,-0.6142720811102539,-1.79228413105011,1.252815008163452,-0.6659891605377197
7.810007080078125,2.01927938323915,-15.5293835039258,4.096498329749704,1.6534259634405373,-9.654774261924624,-0.4710783197276293,-1.4943087100982666,1.0086065530776978,-0.0943992882966995
7.820066650390625,-4.448508517634869,-18.913206442284583,4.654049502663314,1.644150477834046,-9.66069313057959,-0.3717205947989597,-0.7646361589431763,0.4297975301742553,-0.0802203491330146
7.830126708984375,-5.028844061547518,-13.50463708745241,6.007492694836855,1.6298257460139691,-9.664651512816548,-0.3294937836399301,-0.2653359770774841,0.0807307958602905,-0.1854645758867263
7.840186767578125,-4.522957317158579,-3.916291984724998,5.73453850800991,1.6129551291033624,-9.668258597397804,-0.3058360090735368,-0.2203522473573684,-0.28168386220932,-0.1465664505958557
7.850246826171875,-3.3509394904106853,1.9864894587934017,4.712416643697023,1.6058657553642988,-9.670380411857366,-0.2744645183246582,-0.3079425692558288,-0.3749763965606689,-0.0215703882277011
7.8603076171875,-2.140520475206524,4.878319738081097,4.279389091552794,1.607511038353294,-9.67106196438074,-0.2384254924224689,-0.3736355602741241,0.0810904800891876,0.027865070849657
7.8703681640625,-2.3759425114966928,6.3586617557227605,4.293306850007176,1.605907110287994,-9.672087215775251,-0.2053571894267573,-0.4455649256706238,0.7419990301132202,-0.0539968311786651
7.88042822265625,-3.704710842749477,6.520566135859489,4.569907284381985,1.5907804144352673,-9.67522492927909,-0.1726565506996586,-0.5580568313598633,1.1813092231750488,-0.234353020787239
7.89048828125,-4.766184474241733,5.958351939570903,4.549056511794031,1.55541026423797,-9.6816342117995,-0.1305575854376889,-0.7119498252868652,1.2844994068145752,-0.4502380788326263
7.90054833984375,-4.710867076167464,5.967669218492508,4.493047332063317,1.5000928661637007,-9.690951490721108,-0.0745480358142172,-0.7980293035507202,1.0361112356185913,-0.6557355523109436
7.9106083984375,-5.511839759692549,4.925200147199631,3.644838557849824,1.4292768701843916,-9.701931734418867,-0.00864485270289,-0.8011460304260254,0.702324628829956,-0.7699994444847107
7.920668212890625,-5.4459495296776295,3.7817391373723743,2.989289367520809,1.3545583138085902,-9.712475924786924,0.0580802092845318,-0.7154399156570435,0.404798150062561,-0.7448200583457947
7.930728271484375,-4.971557993748784,2.7160218769609927,2.48818839610368,1.2877793182604014,-9.7210070217669,0.118498487861501,-0.5849477648735046,0.0972306951880455,-0.6152204871177673
7.940788330078125,-4.782151274180412,1.76269180932343,2.054802678171545,1.2367875283002854,-9.726853409707546,0.1704582004051655,-0.4665590822696686,-0.2199387401342392,-0.4178448021411896
7.95084912109375,-4.44395450759232,0.9963111312299966,1.7872087032034991,1.2060962566342204,-9.729760237064957,0.2179352785089053,-0.4324970245361328,-0.4548890292644501,-0.1956582963466644
7.9609091796875,-3.93368910972774,0.2347562658578157,1.862582654748112,1.1968171908311545,-9.729562084144352,0.2713991394046693,-0.5378807187080383,-0.6438166499137878,0.0275681186467409
7.97096923828125,-3.8589913038790224,-0.6146990012854338,2.150569575534016,1.2038217358309775,-9.726457103866338,0.3423928665710612,-0.7439008951187134,-0.7941580414772034,0.1331614702939987
7.981029296875,-4.194880378046632,-1.8545359802842136,1.885754125368595,1.1967413491159675,-9.72337433542013,0.4406617733497172,-1.0769553184509275,-0.7976678609848022,-0.2940503060817718
7.991089111328125,-4.829404023742676,-3.5774218489199874,0.883013253352046,1.1200371718809008,-9.725810038134457,0.5696686770129948,-1.3537534475326538,-0.7207218408584595,-1.236006736755371
8.001149169921876,-5.248959223112464,-4.964435594522953,-0.6061882895063608,0.9449329723007976,-9.734766667050122,0.715423813316226,-1.4512012004852295,-0.541657030582428,-2.241251230239868
8.01120947265625,-4.209247341573239,-5.304075545656681,-2.2419486132010817,0.6851320623617619,-9.745426008230448,0.8530125212334095,-1.2544835805892944,-0.3015317618846893,-2.937777042388916
8.021269287109375,-2.589714879906177,-4.417753313887119,-4.181849631559849,0.3818119998982175,-9.752178405100109,0.9589548487167804,-0.8780444264411926,0.0663831233978271,-3.166311502456665
8.0313291015625,-0.4670294827282428,-3.3213486542671915,-5.17311575435996,0.0799167643397115,-9.75263959287107,1.0247129767846317,-0.4766367673873901,0.5158873200416565,-3.005479574203491
8.041390380859376,1.4790531468749046,-1.8639917908936736,-5.3051405445396895,-0.1875310070906765,-9.747885676342248,1.0554323055014014,-0.147025853395462,1.1667799949645996,-2.600919246673584
8.0514501953125,3.445861753642559,-0.1338058283776044,-4.898075993430615,-0.4005868064623326,-9.74077789016366,1.0616668159767986,0.1113888546824455,1.8611730337142944,-2.058964729309082
