seconds_elapsed,acc_z,acc_y,acc_x,grav_z,grav_y,grav_x,gyro_z,gyro_y,gyro_x
14.09739599609375,-4.897138420319557,-3.869952258354425,-3.480339777305722,0.4814825901683419,-9.75619816213548,0.8690140271592884,-0.6391618847846985,-0.2229822278022766,-3.812370538711548
14.107455078125,-3.216144066473841,-2.6654677477657795,-3.894814604671299,0.0947038164419122,-9.763431620520352,0.9147816527303309,-0.2923889458179474,0.094544768333435,-3.974631071090698
14.117514892578123,-0.419083490204811,-1.4366893383979795,-3.984712025478482,-0.2803225601704791,-9.758298933807016,0.9313567938257008,-0.0544056929647922,0.7293395400047302,-3.680000066757202
14.127573974609374,2.2663211301743984,0.0905342574059963,-3.827698632253706,-0.5980108648022636,-9.743507022866606,0.936400852407515,0.0516223795711994,1.666233777999878,-2.9778316020965576
14.137634033203126,5.006715231847763,1.2746359051793812,-3.0976281616866586,-0.824494355822727,-9.726018712449074,0.9461385486982762,0.063042014837265,2.5829098224639893,-2.049747943878174
14.14769287109375,6.102004039180279,1.8700474376708267,-2.56775965320766,-0.9553688069235532,-9.712254975512623,0.9642432374484836,0.1083763837814331,3.1544461250305176,-1.2208478450775146
14.1577529296875,4.5902714424967765,1.827759032517672,-2.6886490091279147,-1.0130351792767642,-9.704382634702323,0.9844265591036528,0.1385084390640258,3.4098854064941406,-0.6580196619033813
14.16781201171875,2.924771010380983,2.113665639898181,-2.402779811148345,-1.0296103934373706,-9.699843822228909,1.0115987897980958,0.0165743790566921,3.503215789794922,-0.4408474564552307
14.1778720703125,1.564751070165634,2.5406781695365903,-1.575466379316896,-1.0411688754145056,-9.693654319939016,1.0580195455156267,-0.2274729162454605,3.4838461875915527,-0.5767112970352173
14.187930908203125,0.5324691924966871,2.425503391870856,-1.151643731760979,-1.07475601465255,-9.68217781715691,1.1272527292829009,-0.4379238486289978,3.255274772644043,-0.8854907155036926
14.197990966796874,0.4222739568091929,1.5391940195828675,-1.655419036953896,-1.1417313364904371,-9.66496364750564,1.2063564419403672,-0.4671022295951843,2.8238890171051025,-1.220855951309204
14.208050048828126,0.548160828755796,0.4926496616750955,-2.650249720367789,-1.2409830802939832,-9.64359002008736,1.2773249981328845,-0.3600713014602661,2.220785617828369,-1.453045129776001
14.21810986328125,0.8831330803394317,-0.3609638941913843,-3.0855659679710863,-1.359429719237238,-9.62061246460378,1.3289702835656705,-0.2056934535503387,1.5018409490585327,-1.46451997756958
14.228169189453125,1.55665997203812,-1.0144359859853982,-2.949424390122294,-1.475556098539382,-9.599210780134795,1.3595248501747843,-0.1049760729074478,0.768288254737854,-1.2267810106277466
14.238229248046874,2.19031925598979,-1.3988298556029797,-2.273241138695925,-1.5697722593285142,-9.581727145892382,1.3772110212519764,-0.1362911164760589,0.1728153079748153,-0.8441764116287231
14.248287841796875,2.526016022455692,-1.1872317624926567,-1.4029453280977904,-1.6314827194407582,-9.568419336029889,1.3978576495699584,-0.3174537420272827,-0.1751450449228286,-0.4321691393852234
14.258347900390625,2.6605589329361914,-0.6662590926527977,-0.6314988910473883,-1.6579872800067066,-9.557880990880728,1.438195359046757,-0.6116268038749695,-0.2803156971931457,-0.0541712418198585
14.268406982421874,2.596336343872547,-0.1905927144825458,-0.1365295542530715,-1.6527217606939375,-9.54827145101428,1.5064618166737258,-0.9009989500045776,-0.2886078357696533,0.2395277470350265
14.278467041015626,2.0500562142968177,0.1261626201480627,-0.3608313538528979,-1.6259833913721142,-9.537919568347933,1.5983343369461596,-1.096351146697998,-0.2918723225593567,0.3937431573867798
14.28852587890625,0.0800302529178559,0.8443611588746309,-1.894870621021092,-1.5933157781317828,-9.525438272437452,1.7022870249822737,-1.1605167388916016,-0.3336593806743622,0.3766984343528747
14.2985859375,-0.7736953850209712,0.6522042638152837,-2.674228561848402,-1.5709762282907962,-9.51000221837461,1.8061808224380016,-1.1079261302947998,-0.3453584015369415,0.2001668214797973
14.30864501953125,-1.4299416177034376,0.0980102923750877,-3.488163602799177,-1.5713402392975986,-9.491810143601894,1.8991618884742256,-0.9226489663124084,-0.2344743311405182,-0.0999136939644813
14.318704833984375,-1.5568040566839276,-0.5652578017681836,-3.5997067459642884,-1.5986046783201395,-9.471835277065637,1.9746426613941788,-0.7068071961402893,-0.0133890882134437,-0.4135707020759582
14.32876416015625,-1.188121550939232,-0.9574369184345006,-3.01628404969126,-1.647212203492224,-9.450458142516016,2.03615803732574,-0.57111656665802,0.1473197489976883,-0.6212425827980042
14.33882421875,-0.7336683489285409,-1.3161761223137378,-2.583122934295237,-1.706621400924772,-9.428252155926822,2.089468187230825,-0.50026935338974,0.1514500379562378,-0.6865227818489075
14.3488828125,-0.3813572784006595,-1.960524996453524,-2.5402380245536564,-1.7698333516411482,-9.406097607263922,2.1362166405327616,-0.4573314487934112,0.0049256873317062,-0.6787635087966919
14.358943115234377,0.315659648348391,-2.7286411200374365,-2.5776521016687157,-1.8334334248922763,-9.38452115074992,2.1770717980124057,-0.429070234298706,-0.1081273630261421,-0.6390941739082336
14.369001953125,0.9103966425791382,-3.5917192543417213,-2.8135446780800817,-1.895011783057451,-9.363604034927487,2.214096145157516,-0.4048521220684051,-0.1327235102653503,-0.6086491942405701
14.37906201171875,1.403889184819162,-4.233288142374158,-3.324005306255817,-1.9541067999742925,-9.343332815793156,2.248111519744992,-0.3648429214954376,-0.0748301073908805,-0.5947964787483215
14.389120849609377,2.2899428287804127,-4.319682231235504,-3.847865514230728,-2.007876237954199,-9.323975204372406,2.2808602353975176,-0.3315400779247284,0.1165040284395217,-0.5484066605567932
14.399180908203125,3.048708355695009,-3.836443956506252,-4.318770377087593,-2.0486806881599127,-9.306525472399592,2.315571629425138,-0.293654203414917,0.4149503707885742,-0.4440169036388397
14.409239990234376,3.004701456186176,-3.211805745008588,-4.929265496942401,-2.0723094010286034,-9.292359584403036,2.3511586372435094,-0.2170237451791763,0.675757110118866,-0.3475127816200256
14.4192998046875,3.367227192866802,-2.6766110730707644,-5.338633064296841,-2.083485897950828,-9.281976722076534,2.382093435341865,-0.0981346368789672,0.906402349472046,-0.2689873576164245
14.429359130859376,5.337793106341362,-2.5208342359036204,-5.144331558424234,-2.072251387231052,-9.277791545346378,2.408058628334105,0.0294577833265066,1.276108741760254,-0.0326843224465847
14.439419189453124,6.33516397575736,-2.707713482820988,-4.9259705470502375,-2.0230568559512494,-9.28319661926031,2.4289679992415008,0.1658502370119094,1.6160122156143188,0.3384455442428589
14.44947802734375,6.471807657909393,-3.29173560629189,-5.026628723585605,-1.9306055128775537,-9.299821006324889,2.4405923860616983,0.3095689415931701,1.735471487045288,0.7530286908149719
14.4595380859375,5.824800378215313,-3.815293031927943,-5.4633916628658765,-1.801643179008365,-9.32707901560664,2.435175329449028,0.4657849073410034,1.5320498943328855,1.1200050115585327
14.469596923828124,5.0153509582459925,-3.773468152633309,-5.726453985753655,-1.6477568317629396,-9.362767584103343,2.4070430215507743,0.6153377294540405,1.062447190284729,1.4829955101013184
14.479656982421876,4.837383916580677,-3.7306115922033785,-5.674050429299474,-1.4697890594452618,-9.405624729055166,2.354639465096593,0.7445529699325562,0.4478623270988464,1.9024134874343872
14.4897158203125,4.1944858257710935,-3.0588878044039007,-5.616269271460175,-1.266825815950334,-9.45336029369831,2.280248825500905,0.8627699017524719,-0.1824036836624145,2.3065826892852783
14.49977587890625,3.185575325208902,-2.185813176742196,-5.451347004806995,-1.0409693342544135,-9.503279047599436,2.185058120591193,1.0259593725204468,-0.7558371424674988,2.6416573524475098
14.5098349609375,2.348592586147785,-1.5881576647162436,-5.404058014887571,-0.7980481013152748,-9.553260345342755,2.06609198781848,1.2710230350494385,-1.1999738216400146,2.846529722213745
14.51989501953125,1.848051294440031,-1.4072370339423417,-5.355847818470001,-0.5472512396302074,-9.601153146374225,1.9206173489570617,1.550273299217224,-1.5792402029037476,2.9231650829315186
14.5299541015625,1.2346820804536345,-1.3799655806571245,-4.705629175513982,-0.2972024563660845,-9.644885320594906,1.7487901252210138,1.8313547372817995,-2.1413493156433105,2.9432647228240967
14.540013916015624,-0.1765945842683315,-2.113251213878393,-3.5003315949767826,-0.0527997435643803,-9.68238123077452,1.5553418751768766,2.037938117980957,-2.832214593887329,2.925576686859131
14.550072998046875,-2.1732301740229127,-4.0228368812114,-1.5214850521519778,0.1830497882897034,-9.71045172548294,1.3579307128511369,2.004929542541504,-3.247725248336792,2.8192362785339355
14.560133056640623,-4.33114002931714,-5.944385373538732,0.9070287735812366,0.4118320577718317,-9.725814129787684,1.187149417971447,1.6338257789611816,-3.1563992500305176,2.7066869735717773
14.57019189453125,-5.608045048472285,-5.70449408288002,2.853336005720496,0.6379818233259021,-9.7273321331352,1.0688149341657758,1.0760303735733032,-2.503523826599121,2.574082136154175
14.580252197265626,-5.968330312749743,-5.869343868818879,4.547973100471497,0.8604505622796714,-9.716908938798309,1.0058267822679132,0.5237982869148254,-1.3445112705230713,2.3779916763305664
14.590310791015623,-6.1021022388577455,-6.744417561343312,5.595901021692156,1.0751767973478883,-9.698210668069123,0.9793249251157043,0.1848064959049224,-0.0342539399862289,2.1529111862182617
14.600370849609376,-5.812034420144558,-7.144291908687353,5.935051143482327,1.2756205323025585,-9.67602163261473,0.9580049275808036,0.179871916770935,0.9477089643478394,1.8454155921936035
14.61043017578125,-5.366840921649336,-6.572489799842238,6.404017147231102,1.447532950104028,-9.656306878319382,0.9114663907025008,0.4591856300830841,1.3590877056121826,1.4764747619628906
14.620489990234375,-3.2406425479143857,-4.6229017924666405,7.572356577727198,1.5904387613907456,-9.641153148329256,0.8300940755259245,0.7894296050071716,1.269709825515747,1.2503045797348022
14.630548828125,0.6170102008372544,-1.6264169604837893,10.165388619357348,1.714792432420701,-9.62872504391074,0.719400754123181,1.0427255630493164,1.341591238975525,1.0905168056488037
14.640609130859374,3.0728298205167053,0.4617839832901954,10.684315462583305,1.8135859841279685,-9.619455695784092,0.5893812028186396,1.0673174858093262,1.5792224407196045,0.744937002658844
14.65066796875,1.6555488008134067,0.6372422570049763,7.461777895680069,1.8805374136336144,-9.613552609220148,0.4621314815536141,0.8927438259124756,1.9033746719360352,0.4547339677810669
14.66072802734375,0.950151729862392,0.7278513332128524,4.300659550857544,1.9192989598348733,-9.61093628924191,0.3413983025757596,0.8348773121833801,2.0676498413085938,0.1880079954862594
14.670787109375,-2.383223754546046,1.0367430948615073,-1.0261020930554716,1.9358074654348196,-9.611277065503597,0.2153654828198254,0.968756914138794,2.033176183700561,0.0535873919725418
14.680846923828126,-3.626903380447626,0.8861901298224926,-3.550762390053272,1.9443780176423489,-9.611708442658186,0.0695931350868893,1.3394598960876465,1.5431751012802124,0.0803724005818367
14.69090576171875,-3.641244040489197,0.8829425262033939,-3.374933237199485,1.9587191160753368,-9.608460254517198,-0.1062359766677022,1.7576017379760742,1.0279966592788696,0.2365803867578506
14.7009658203125,-3.485335101374984,2.264493914747238,-3.237070242385566,1.989707105665654,-9.597933599805833,-0.3018590134676546,1.911066174507141,0.614425539970398,0.4480055570602417
14.711025146484374,-3.5391017628759145,2.2455291020363566,-3.051125353708863,2.043473767166585,-9.57896878709495,-0.4878040848074481,1.7894610166549685,-0.0272255204617977,0.6848831176757812
14.721083740234375,-5.786756771025061,3.936988735795021,-2.179983886066824,2.1201865660995245,-9.553336917710304,-0.6394879901051521,1.5704200267791748,-0.9825541377067566,0.8362742066383362
14.73114404296875,-6.513901417273282,4.081818062490225,-2.264143493874371,2.2148130612552164,-9.52413654218912,-0.7455177036110311,1.3422170877456665,-2.0708372592926025,0.9043845534324646
14.741202880859374,-4.692472172299027,3.9958717173963785,-1.4859130957722664,2.3210151356533166,-9.493406472882628,-0.8114728155557066,1.1553620100021362,-2.4499919414520264,0.9293195009231568
14.751262939453126,-3.317670842537284,3.736225340431929,-0.830156619368121,2.4276262292437254,-9.46225788590312,-0.8617957663435488,1.0858134031295776,-2.2000153064727783,0.8923968076705933
14.761322265625,-3.549508590599894,3.625411096063256,0.1847092824671417,2.5304765089958905,-9.430601933923365,-0.9114991969935596,1.0615894794464111,-2.047996282577514,0.8886060118675232
14.7713818359375,-3.8515827811881898,3.086984018075466,1.5168874952286482,2.637722247228026,-9.396452411562205,-0.9588889438737184,1.0740948915481567,-2.056267499923706,0.970938205718994
14.78144091796875,-4.234093321277201,2.2979344120562075,2.999179770155251,2.7499872749269008,-9.359780677247048,-1.001218411689624,1.0196771621704102,-2.20991587638855,0.9569307565689088
14.7915009765625,-4.1708784479513765,1.8735189131736756,4.000454369011521,2.859753471547365,-9.324123672932386,-1.0261074998829514,0.8713889718055725,-2.3499298095703125,0.8852466344833374
14.80156005859375,-4.016288190220296,1.5494985559761525,4.236215427997708,2.9598464154154063,-9.291896643066403,-1.0345687464971094,0.757785975933075,-2.2496657371521,0.7399658560752869
14.8116201171875,-4.297174339090288,1.35267016197443,4.407764419314265,3.0406670880585907,-9.265506064268946,-1.036878192483261,0.6618552207946777,-1.974559307098389,0.512127697467804
14.821678955078124,-4.428277922771871,1.6836299630463123,4.752372514249384,3.093211806549132,-9.247662364542483,-1.0407615367226302,0.5837044715881348,-1.537132740020752,0.2249646633863449
14.831739013671877,-4.457361686176061,2.543739310672879,4.930166829696297,3.1146637599006293,-9.239423528507352,-1.04991441886276,0.4933786690235138,-1.1220685243606567,-0.0616074725985527
14.8417978515625,-4.575943641936779,3.495037580221892,4.475143718843162,3.1076994738459587,-9.240672651785612,-1.0595157023575157,0.4012463390827179,-0.9501827359199524,-0.3117677569389343
14.851857177734376,-3.980433617506921,4.030367276716232,3.698566348645091,3.078269088961184,-9.249877702504396,-1.0650945254031567,0.3445888459682464,-0.9158145189285278,-0.5338771343231201
14.861917236328123,-3.1108588146597147,4.423856306937337,3.0350735058352347,3.030054508629441,-9.265680251792071,-1.0659922779604791,0.2942005097866058,-0.9651535749435424,-0.7151725888252258
14.871975830078124,-3.04621683114022,4.445217659395933,3.030950580686331,2.965412817370892,-9.287042773294448,-1.0618694989420472,0.2287801057100296,-0.9242096543312072,-0.875112771987915
14.882036376953126,-1.653410181349516,4.481640971907973,2.479257778412104,2.8864237440690395,-9.312691593813897,-1.0548573551576583,0.1892614513635635,-0.839278519153595,-1.0271376371383667
14.892095458984375,-0.4034826009690761,4.003742304641008,1.9277160750463604,2.790800639091432,-9.342363093978166,-1.0497923268530518,0.1729401051998138,-0.7400530576705933,-1.1821030378341677
14.902155517578125,0.3536415884792804,3.5491339120686054,1.7154688703775405,2.6814582208409905,-9.37527401445508,-1.041351319309324,0.0727868750691413,-0.7694488167762756,-1.296830654144287
14.91221435546875,1.015732455536723,3.254228005674481,1.978330994518101,2.565843298192322,-9.41001974914372,-1.0190042437490074,-0.0798990726470947,-0.9173904657363892,-1.324519395828247
14.9222744140625,2.025288268265128,2.807684261614084,2.0128090181812643,2.4517191986233,-9.444711123296615,-0.9782146257862449,-0.2592286169528961,-1.0329493284225464,-1.2815091609954834
14.93233349609375,3.3216663419142365,1.9747452449858187,2.204815691114962,2.34481058339104,-9.477575866544246,-0.9207757785785944,-0.3988423645496368,-1.102542519569397,-1.1647372245788574
14.942393310546874,4.827357612606883,0.5216021999150514,1.8907126245588064,2.254840389608592,-9.50584334512949,-0.8514793203167617,-0.5028979182243347,-1.1438987255096436,-0.906554400920868
14.95245263671875,7.274264442512393,-1.4241694640427829,1.060760660917312,2.197646384007484,-9.525861466285583,-0.7737556638408452,-0.584683895111084,-1.118861436843872,-0.4649736583232879
14.96251123046875,10.28187097249031,-3.7044635899901386,-0.2759302069630474,2.1853360607497394,-9.534724571698904,-0.6955171897105872,-0.5191629528999329,-1.0440689325332642,0.0316688641905784
14.9725712890625,11.807590008950232,-6.163114049181342,-2.855396445381641,2.211657519833744,-9.532823121991752,-0.6357984879374504,-0.2398844957351684,-0.9565722346305848,0.3377602696418762
14.982630615234376,10.261667557895183,-8.018372498521208,-5.8039206717938185,2.247886624947935,-9.52588776977062,-0.6122404656847938,0.2153778374195099,-1.0144022703170776,0.240738645195961
14.9926904296875,5.794384781685471,-8.350262858441472,-7.703906736132502,2.2616548919290302,-9.521853399688004,-0.6241741741824894,0.4897403419017792,-1.0963711738586426,-0.0917896032333374
15.00274951171875,2.0533385969683526,-6.470665502136946,-5.85050472831428,2.2514359879925845,-9.522899693870544,-0.6448146650206297,0.4275174438953399,-1.0178617238998413,-0.2244786769151687
15.012809326171874,1.6168816548973322,-2.89047944920063,-2.2961159644573925,2.237334105142951,-9.525102172350882,-0.6611719255816191,0.3358057737350464,-0.8210077881813049,-0.1869515031576156
15.022868408203124,1.2967045291244983,0.3229156108260154,-1.3598977751404049,2.225315750569105,-9.52727425569296,-0.6703851596068591,0.1737782657146453,-0.5606462359428406,-0.1731975972652435
15.032928466796877,0.1891881083816289,2.793321389740705,-0.4328387515738606,2.208305579057336,-9.531353049439192,-0.6686435766365378,-0.0289513655006885,-0.217556819319725,-0.2478595972061157
15.042987548828124,-0.6021459553129971,4.429940010765194,0.9463177777227014,2.176632822073251,-9.539614681828022,-0.654524304260686,-0.2686627507209778,0.157275915145874,-0.4260471761226654
15.05304638671875,-1.212032587880641,5.498852852347492,2.460038114157319,2.122427330763638,-9.554330604922772,-0.6168020379792899,-0.6629292368888855,0.3920433819293976,-0.6793743371963501
15.063106201171877,-2.2139107055880127,4.526816330674291,5.45898553686142,2.040630214303732,-9.57678559783697,-0.5397989873955026,-1.135301113128662,0.5370676517486572,-0.9628145694732666
15.07316552734375,-2.839858684509992,2.813836354503036,5.706736308848858,1.9293138656318187,-9.605736967033147,-0.4218354192614555,-1.5479134321212769,0.6574646830558777,-1.2887386083602903
15.0832255859375,-3.5657033540755507,-0.2157949602782726,5.815743796056509,1.7898045649155974,-9.638140522509811,-0.2706229126014746,-1.822888731956482,0.667904794216156,-1.52101469039917
15.093284423828123,-3.450546696588397,-5.678823050528765,5.661509512156248,1.6427748055666684,-9.667560093739628,-0.0997789277491159,-1.8371033668518064,0.4518805146217346,-1.413743019104004
15.103344482421877,0.0730615829490125,-13.000875080132484,4.266444269783794,1.5367396121680736,-9.685381581634282,0.0467099159564124,-1.227514386177063,0.4116111099720001,-0.7056941390037537
15.1134033203125,0.6026204409569501,-16.20986985937357,4.3330397254586215,1.5017334729775786,-9.690303840467331,0.1149381741645745,-0.3587073981761932,0.6301443576812744,-0.1132325530052185
15.12346337890625,-3.3819191505640744,-10.39207556052804,5.458609104764461,1.4902008560940625,-9.691983171856403,0.1230232352769468,-0.0897065475583076,0.5969520211219788,-0.1807788461446762
15.1335224609375,-2.498680271762609,-2.289800205439329,4.0947424259930845,1.4663301511630416,-9.69557213625908,0.1269834258785005,-0.1772032976150512,0.5813127160072327,-0.3128811120986938
15.143581298828124,-1.84703203439489,1.949541245624423,2.848761245150864,1.4314885548844931,-9.700618898254632,0.1386039037085603,-0.2332183718681335,0.6473852396011353,-0.4175603687763214
15.153641357421876,-1.7612334272086618,4.141483718901872,2.635743640631437,1.3875883306205272,-9.706805477935076,0.1514064035305753,-0.2474545091390609,0.8480125665664673,-0.4992070198059082
15.163700439453123,-1.5582326281823218,5.028740016651153,2.9287580341905355,1.3364695532798767,-9.713743168243765,0.1655979191587306,-0.3391343653202057,1.217204213142395,-0.5754054188728333
15.173760498046876,-2.520174895212054,4.803949264490604,3.01040902017802,1.2802777104586365,-9.720890117388963,0.1885437643297947,-0.4831644296646118,1.3440076112747192,-0.6111714243888855
15.1838193359375,-3.830635562488436,4.222057723307609,2.8254662942811843,1.2236494489815086,-9.727374218711256,0.2263925248013809,-0.5988519191741943,1.0957552194595337,-0.5858101844787598
15.19387939453125,-4.129114066672325,3.505840129265189,2.375716009264439,1.1722750163793565,-9.732409874790909,0.2763113517677411,-0.6300109624862671,0.7272619009017944,-0.4949832558631897
15.2039384765625,-3.3975381599783896,2.6712825715243813,2.091610459956527,1.1347185351189226,-9.735225516733529,0.3289273819288238,-0.5761016607284546,0.4926725625991821,-0.2934147417545318
15.21399755859375,-2.810965182980895,2.1235808847129345,1.7705762789629398,1.121406852798909,-9.735047237557172,0.3764241328474134,-0.4898683726787567,0.3527083694934845,-0.0031679249368608
15.2240576171875,-2.6799580454111096,1.871657210955024,1.468866537772864,1.137194496778399,-9.731521986040471,0.4179140810992569,-0.4337787330150604,0.248810738325119,0.3005203306674957
15.2341162109375,-2.757834481295943,1.527051746368408,1.3718804738789796,1.1808036291413009,-9.724498371014,0.4584867318430915,-0.4505862593650818,0.1696445643901825,0.5639058947563171
15.244176513671874,-3.171617234744132,0.8242471761286259,1.086842612157017,1.2463796786405146,-9.714066408848762,0.5038049696788192,-0.5103691816329956,0.0746195241808891,0.7561440467834473
15.2542353515625,-3.2469279117941854,0.8112713746994733,1.0317715169940145,1.3216902095600962,-9.70109177646339,0.5588760648418217,-0.604783833026886,-0.277171790599823,0.7618554830551147
15.26429541015625,-5.016957808920741,-0.4780658405274152,0.3028148528877645,1.383756935764104,-9.68786404609978,0.6331684316948056,-0.7819982767105103,-0.7429999709129333,0.5519797801971436
15.274354736328124,-6.24745354360044,-1.6589835975676774,-0.1887988898683339,1.4003925748750568,-9.678608141976596,0.7306366530824452,-0.914933145046234,-1.1992734670639038,-0.1721942126750946
15.284413330078126,-7.661646388030052,-3.071939009156823,-1.4998204789631069,1.3129716271840035,-9.68242331635058,0.8349805323932319,-0.7911608815193176,-1.6337791681289673,-1.4206959009170532
15.294473388671875,-8.807916025537251,-4.147432398173213,-3.213001092272997,1.0982876238223165,-9.701377607667446,0.9205530757386235,-0.5287389755249023,-1.8268883228302,-2.626441478729248
15.304532470703125,-7.310137719926238,-3.206069831705093,-3.846925603032112,0.7826463148482143,-9.726209851107,0.9791210731066764,-0.3376976549625397,-1.6356499195098877,-3.424739360809326
15.314592529296876,-4.836107320773602,-1.5720850663155317,-3.934588981176912,0.4170094238771125,-9.745156543639302,1.0141117955323309,-0.1999837607145309,-1.1813483238220217,-3.681741952896118
15.3246513671875,-2.193431250530481,-0.7160434065192938,-3.772348500953615,0.0543616362859727,-9.752454299432038,1.0281447047989816,-0.0369285345077514,-0.5409387946128845,-3.475890636444092
15.33471044921875,0.3493009289264678,0.0750952807337045,-3.474372977855801,-0.2629599584918469,-9.74961469209194,1.0228598231986163,0.1482236683368683,0.376358151435852,-2.9409141540527344
15.3447705078125,3.013618337613344,0.8622206406921148,-3.1796699005573985,-0.5103303163269535,-9.742014153960346,1.0015446479693055,0.3651972711086273,1.3662960529327393,-2.2856216430664062
15.354829345703124,4.329976830756664,1.709119209089875,-2.8109508621945976,-0.6876476984445006,-9.734632811537384,0.9666673958554864,0.5777084827423096,2.40291428565979,-1.7337294816970823
15.3648896484375,4.259829527819156,2.1110814686238766,-2.1405209135979413,-0.8112810193106531,-9.729131291511656,0.9253139334648848,0.7117334008216858,3.490781784057617,-1.3923414945602417
15.3749482421875,4.065809176975488,1.8221826936900611,-1.2902303646743296,-0.9038170449931174,-9.724246442079544,0.8902491959549486,0.6923297643661499,4.504884243011475,-1.2693378925323486
15.385007568359375,3.969150299209356,1.1114198579221963,-0.442757065128535,-0.9876214826874434,-9.717377140831946,0.87610749255158,0.543861985206604,5.248763561248779,-1.3547649383544922
15.395067626953123,3.597186579836905,0.3269453047335147,0.1445893804594874,-1.081927952108532,-9.706228554829954,0.8882092876251786,0.3612103760242462,5.541257381439209,-1.561793565750122
15.405126220703124,3.1766005761146543,-0.5103881474614143,0.2330021156668663,-1.1955489244610071,-9.689660281866788,0.9227987357735632,0.2082565128803253,5.156234264373779,-1.7646963596343994
15.415186279296876,2.2873124802768228,-1.2088713473707438,0.2442311464939266,-1.3249927582368255,-9.6687349827379,0.9645413436122238,0.1535077840089798,4.074833393096924,-1.7609091997146606
15.425245361328123,1.8503963962614536,-1.6432015065461396,-0.1182685058973729,-1.4516126206330957,-9.647105334731936,0.9982871805433184,0.1015511006116867,2.552912712097168,-1.4875458478927612
15.435305419921876,1.9976583569310604,-1.5630734923422336,-0.1001202702663838,-1.5559282967627048,-9.628324061894416,1.022187330764532,-0.066028282046318,0.9984760880470276,-1.0156567096710205
15.445364501953126,2.4245615809760985,0.2854331446498632,0.7123341036725789,-1.6247485888801514,-9.613992169681191,1.0496486805986611,-0.3990488648414612,-0.2209536433219909,-0.4836999177932739
15.45542333984375,2.271927864140272,0.9764373869806529,0.4652735059063881,-1.6551218075729903,-9.60364379414618,1.095895760249719,-0.7692338824272156,-0.9996656775474548,-0.0150908473879098
15.4654833984375,2.087313493414968,1.3931921419769524,-0.1678068091135472,-1.6527655998356638,-9.595877836319804,1.1652912219066172,-1.0722737312316897,-1.3618632555007937,0.3330921828746795
15.47554248046875,1.3214016018770631,1.6383242558985949,-0.8052858705490827,-1.6275601391695438,-9.58872095030248,1.256144116807729,-1.2995961904525757,-1.547194480895996,0.5360893607139587
15.4856025390625,-0.0024969313822686,1.5540999122917651,-1.680638964536786,-1.5959316597186028,-9.579612930217383,1.3617609386637806,-1.4151934385299685,-1.6800384521484375,0.5351873636245728
15.49566162109375,-1.0848888477407397,1.07413145301342,-2.626551449394226,-1.577613474348187,-9.566664016795158,1.4698526262007652,-1.3885194063186646,-1.780239224433899,0.3435845375061035
15.505720458984374,-1.4506233173348009,0.5204273109167814,-3.092388507467508,-1.585822792027891,-9.549261631095408,1.5707237148344515,-1.2750924825668335,-1.6564711332321167,0.023248603567481
15.515780517578126,-1.5369617304861545,-0.197934893938899,-3.4310628284394737,-1.625928884705901,-9.527162612012027,1.6612991810336708,-1.0871320962905884,-1.1674944162368774,-0.3780016899108886
15.52583935546875,-1.463679052132368,-0.9266104030162096,-3.929582843452692,-1.6950212717629969,-9.501184705668686,1.7391877457477152,-0.8271549344062805,-0.5372607111930847,-0.7506604790687561
15.535899658203125,-1.0450234319508076,-1.503591960325837,-3.966038889190554,-1.7834262620553374,-9.473373738679287,1.80138102094084,-0.576960563659668,0.0265495311468839,-0.9925456643104552
15.545958251953126,-0.5145315308764576,-1.9192548284322024,-3.718827338646352,-1.8796702754102643,-9.444974158146977,1.8519487402699888,-0.4180388450622558,0.3431421220302582,-1.0868343114852903
15.556017333984377,0.8489394265756011,-2.4408166963368654,-3.518993040826917,-1.9724187017343937,-9.41751565785706,1.8948270741403104,-0.3210008144378662,0.4835766553878784,-1.0182780027389526
15.56607763671875,1.965482472730428,-2.9421166974574327,-3.2449662563323973,-2.051075912733376,-9.392812593755126,1.933542443112284,-0.2675530314445495,0.5972787141799927,-0.8563218116760254
15.576136474609376,2.4211878667593,-3.319334391835332,-3.1594594716995954,-2.109193755181133,-9.372029333445427,1.9714866815812884,-0.2553000748157501,0.6890904903411865,-0.6347666382789612
15.586196533203124,2.059922943794727,-3.625378947359323,-3.4673002629905936,-2.145964273695648,-9.355683178800344,2.0090818143516778,-0.2299899160861969,0.6557019352912903,-0.4490572512149811
15.59625537109375,1.992983643118292,-3.690822018128633,-3.887482654348016,-2.170453256655484,-9.34306159763634,2.041253753029555,-0.1582638323307037,0.619600772857666,-0.3542163670063019
15.606314453125,2.457734513390064,-3.2564714006870985,-4.1071193847462535,-2.1882373351491986,-9.3335876668483,2.0654637729175387,-0.0430578738451004,0.7320032119750977,-0.3239809870719909
15.61637451171875,2.8445933118164537,-2.681310044541955,-4.071359212318063,-2.2011519079104063,-9.326957435053586,2.081628141254932,0.0805894285440445,0.9069423079490662,-0.3085627853870392
15.62643359375,2.84828369076699,-2.6846242836564778,-4.0822716514766215,-2.2048418484695254,-9.323644949504732,2.0925405804134902,0.1640659421682357,1.1459370851516724,-0.2186552733182907
15.636492431640624,3.8107515891060233,-2.144431949561834,-3.5837229948908087,-2.188979531818628,-9.32454335964918,2.1051541244015097,0.1592102795839309,1.3974064588546753,-0.0022010370157659
15.646552490234376,4.919530284869671,-2.118678499624133,-2.7283850994497536,-2.143453459918499,-9.330840998488664,2.1239988178640603,0.1185304895043373,1.5017366409301758,0.3197247982025146
15.656611572265623,5.331256398048996,-2.8734529110759497,-2.1136331989333037,-2.064219179683924,-9.343711585977672,2.14580572213307,0.0727873593568801,1.3649195432662964,0.7090638279914856
15.66667138671875,5.39568649238348,-3.84717051770389,-1.9574090563900768,-1.953871383783221,-9.363135832893848,2.164357570128888,0.0657417029142379,1.075873851776123,1.06693434715271
15.67673046875,5.021840320265293,-4.313784405368566,-2.623377495533228,-1.817949147773534,-9.388378995221853,2.173416928766668,0.1197861358523368,0.7700654864311218,1.3908857107162476
15.686789306640623,4.4773862370729445,-4.006124231341481,-3.7571009552001953,-1.6567169678099452,-9.419362747028469,2.168249024609476,0.2134716063737869,0.4320288002490997,1.7427759170532229
15.696849365234376,3.754572313505411,-3.3663924956083298,-4.638321772177517,-1.468558786997944,-9.455304998025298,2.1473044362582265,0.3047749400138855,0.0449801124632358,2.111238956451416
15.70690869140625,2.8558184701859948,-2.7121242850005625,-5.2918192906737325,-1.254247343275696,-9.494262797451018,2.110972163030505,0.4057335257530212,-0.4120681285858154,2.461507797241211
15.716968505859375,1.929323364112526,-2.2048533927768466,-5.705228826895356,-1.0192274580456315,-9.534215453132989,2.056764479763806,0.5724645256996155,-0.90993732213974,2.7206127643585205
15.72702734375,0.9566134001571684,-1.847840866559744,-6.067150167942047,-0.7748037115890533,-9.573546762046217,1.979200032437593,0.8332822322845459,-1.3396804332733154,2.822539091110229
15.73708642578125,0.3528151841251179,-1.6646902847766876,-6.383471202808618,-0.5296865760408341,-9.611548283660412,1.872944474286586,1.159012794494629,-1.6190067529678345,2.8553268909454346
15.747146484375,0.5369862315297127,-1.7232476876854896,-6.067337799468636,-0.2830517111397348,-9.6477138220191,1.7354791004881265,1.516892671585083,-1.9082279205322263,2.8887078762054443
15.757205322265625,0.1518155323207378,-2.319654076433181,-4.943258950981497,-0.0370436706167995,-9.680383334955572,1.5681826520495117,1.8238604068756104,-2.325989961624145,2.889331579208374
15.767264404296874,-1.3215882104903458,-3.3301036231309173,-3.023365824645757,0.2058903647216968,-9.706174778816104,1.3849835549496117,1.9311423301696775,-2.673645496368408,2.850275993347168
15.777324462890626,-2.693100435578823,-4.0209868694305415,-0.4287114425107836,0.4449452228225767,-9.721131524929405,1.213261472088471,1.709765911102295,-2.752753257751465,2.771263837814331
15.787383544921877,-4.115297722765803,-3.9481607026726007,1.9945301419079304,0.6799178348448127,-9.722730192297696,1.084712322130054,1.1956485509872437,-2.391159772872925,2.636791944503784
15.797443603515624,-5.138135626393557,-4.035933678671717,4.135079112556577,0.9045885408222676,-9.712321611008049,1.01140684742257,0.6356314420700073,-1.5192067623138428,2.3662688732147217
15.807502197265626,-5.918491638347506,-4.887531803062558,5.209886857396364,1.111832530376315,-9.694204355037211,0.9780773362074048,0.2792139053344726,-0.3758368492126465,2.0921549797058105
15.8175615234375,-5.881915181100368,-5.947063068315386,5.135618090614676,1.308391167525947,-9.672260234254598,0.9517890487406402,0.2320360839366912,0.884992241859436,1.8949205875396729
15.82762158203125,-3.183738172909617,-4.91673334762752,6.115977034953236,1.4977711452178657,-9.649739190366864,0.8997820173233747,0.4399735629558563,1.900851130485535,1.733631610870361
15.837680419921876,-0.6697784989506006,-2.616478383669257,8.25507580679357,1.676989209857583,-9.628516369596124,0.8060800166014581,0.7672698497772217,2.4520819187164307,1.566854476928711
15.847739501953123,-1.222673662751913,0.3069739453285932,9.248664819583295,1.8316984177932143,-9.61039326840639,0.6750016404263675,1.0635792016983032,2.224018812179565,1.2031612396240234
15.85779931640625,-2.1477673775948585,1.7949083177953955,7.369911512887477,1.9361796597480772,-9.598957682156565,0.5306545442901551,1.1437898874282837,1.4856622219085691,0.7501227259635925
15.8678583984375,-0.0781467772588133,1.0873743809461591,5.277962030234932,2.001139623175561,-9.5918767839849,0.4021320996755734,0.9961004853248596,1.095871090888977,0.5062969923019409
15.877918701171875,-1.006183705946803,0.659717708185315,2.306559909321368,2.0473622990377245,-9.586049685266614,0.2938423870821483,0.8551177978515625,0.7888523936271667,0.3691389858722687
15.887977783203125,-2.895201801547408,0.6360346347808837,-0.9029084787808358,2.0778813559420404,-9.581969137954712,0.1966191168989054,0.9203321933746338,0.5009644031524658,0.2357636094093322
15.898036376953126,-2.97212897388339,0.1170142680525779,-4.194342033386231,2.098993555945158,-9.579048282071948,0.0802056003516074,1.3463969230651855,0.384901762008667,0.2120090425014495
15.9080966796875,-2.697885331767797,0.0265589211016893,-5.774941830068826,2.127017727293819,-9.572840075081588,-0.0832211122478824,1.904207468032837,0.2099760323762893,0.3935652673244476
15.918155517578125,-2.8527348249569533,0.9939169295698403,-3.658281684529781,2.1766718389093875,-9.557825461301206,-0.2836218757105059,2.1310269832611084,0.0587947256863117,0.6245710253715515
15.928214599609374,-5.35905801268816,2.204187622344494,-1.6588297221802175,2.240460712730884,-9.535382743346691,-0.4766484480101615,1.9651597738265991,-0.5752951502799988,0.6619570255279541
15.938274658203126,-5.549654234302044,2.997264584183693,-1.0022927629228682,2.3076059112429617,-9.51053997851312,-0.6284577697858214,1.648949384689331,-1.2835503816604614,0.6330261826515198
15.94833349609375,-3.783383689709008,3.3982413398116824,-0.4020727341711521,2.3784359357476235,-9.48534825411141,-0.7359210232261568,1.3247745037078855,-1.5276930332183838,0.6457891464233398
15.958392822265624,-3.249796160706877,3.268894828930497,-0.3670456252578645,2.4523776625320317,-9.460001631408929,-0.8152411551132798,1.12859046459198,-1.4996966123580933,0.6530495882034302
15.96845263671875,-3.651683601438999,3.3703409409731626,0.0829226864237338,2.523117086143792,-9.435601934167742,-0.8795933619059622,0.9958674311637878,-1.433587908744812,0.5644637942314148
15.978511474609377,-4.312858230434358,3.459732458084821,1.2353835067212582,2.5860405753076074,-9.413813880729675,-0.9289258403517304,0.8443536162376404,-1.5701943635940552,0.4857247173786163
15.988571533203125,-4.536558849270642,3.501647353750467,2.2577238360904155,2.6467855513885614,-9.394228305771946,-0.9557273380376398,0.6731134057044983,-1.8552124500274656,0.4647552669048309
15.998630615234376,-4.428641787648201,3.5584529445558784,3.4237978058725598,2.709904270863533,-9.375914065924286,-0.9586677754037082,0.499625563621521,-2.019275426864624,0.4788804054260254
16.008689453125,-4.688289625917375,3.759021109607816,4.387531778624654,2.773077350874245,-9.359058208191394,-0.9425748648673296,0.3419038355350494,-2.031587600708008,0.4530019164085388
16.01874951171875,-4.6110047261849045,3.9998604947716,5.15840158483088,2.829868036371469,-9.345064754152297,-0.912135010679066,0.1889063864946365,-1.8774166107177732,0.3573046624660492
16.02880859375,-4.651845270617306,3.99103772136867,5.120332843199372,2.870708580803871,-9.336241980749367,-0.8740666343737393,0.0644006729125976,-1.5708974599838257,0.1748765558004379
16.03886767578125,-4.516676629453897,4.114556549009681,5.69613717342317,2.889966238981485,-9.333916168150305,-0.8345612840678542,-0.0077388444915413,-1.3278021812438965,-0.0351035706698894
16.048927734375,-4.644640746065974,4.199660013538598,5.78420357941091,2.8834064420744774,-9.338963514667748,-0.8000742003154009,0.008767694234848,-1.0350390672683716,-0.3126592636108398
16.058986328125,-4.346624890957773,4.4443496443897486,5.540374949303269,2.84830356451124,-9.3518656663388,-0.7747166178274899,0.0200337413698434,-0.8613842129707336,-0.5820193886756897
16.069045654296875,-3.835499953654408,4.60986461623907,5.242945077389479,2.79058027433902,-9.371183530271052,-0.7509739962555467,0.0012406124733388,-0.91994309425354,-0.778791606426239
16.079105712890627,-3.0896608360692857,4.503801365789771,4.466545986367762,2.715566534408927,-9.39530441057086,-0.7241095163360237,-0.0089384783059358,-0.9474028944969176,-0.9584925770759584
16.08916455078125,-1.7970707565262911,4.124093608161807,3.4898134158328173,2.6245664130568502,-9.422910210376978,-0.7005682625550776,0.0321780666708946,-0.863834798336029,-1.0951508283615112
16.0992236328125,-0.1329869132101535,3.218078833928704,2.6713366397991773,2.521651982027292,-9.4521310441643,-0.6847478122845292,0.0705884993076324,-0.7561986446380615,-1.1859067678451538
