seconds_elapsed,acc_z,acc_y,acc_x,grav_z,grav_y,grav_x,gyro_z,gyro_y,gyro_x
20.13295483398437,-5.529070880478621,6.930874783456325,4.08564112790972,2.0320399344824254,-9.593078560990094,0.1185768959931097,-0.2109206765890121,0.4046167135238647,-0.2307357937097549
20.14301416015625,-3.9886850207626816,7.8653247940570115,3.939781581383943,2.0035924231551587,-9.598876433613896,0.13260566794076,-0.3563720881938934,0.8650513887405396,-0.3701122105121612
20.15307275390625,-3.9035982151076194,8.28808434242606,3.7075937047094105,1.9617516156390309,-9.607140988612176,0.1573959262689575,-0.5725477933883667,1.1426544189453125,-0.525146484375
20.163132080078125,-4.373938137558103,7.534526905548572,2.8373969705715774,1.906563981424272,-9.61748234988451,0.1986002625124528,-0.722184419631958,1.1046279668807983,-0.6470808982849121
20.17319091796875,-4.308607879513501,7.545961907276511,2.782622885593772,1.8412334311187264,-9.628917351612449,0.253374530153349,-0.7794034481048584,0.8545849323272705,-0.750419557094574
20.18325,-5.3398693280935285,5.268052630639076,1.175145968705788,1.766224075102806,-9.641211015996335,0.3128504361465573,-0.6930128931999207,0.5443320274353027,-0.8296186327934265
20.193308837890623,-5.243262472775578,4.25170993424952,0.612719810166955,1.6863766314059494,-9.65362684545517,0.3660596098951995,-0.5359881520271301,0.188401848077774,-0.8314144015312195
20.2033681640625,-5.166672569569945,4.262973086541891,0.5678519099146128,1.6097867282003164,-9.66489175131321,0.4109275101475417,-0.4093033075332641,-0.1068486869335174,-0.7352713346481323
20.213427001953125,-4.363775639984011,2.165274246582389,0.6575146451830863,1.5449024603575467,-9.67363912139237,0.4520481501629576,-0.3770556449890136,-0.3297478258609772,-0.5717297792434692
20.22348583984375,-4.223945144489408,0.7578735465109347,0.8475453418686986,1.4969493074409663,-9.678967622938751,0.4970979828534647,-0.4143091738224029,-0.5541855096817017,-0.3642353117465973
20.233544921875,-4.321232967808842,-0.5926426523000001,0.7639229096777737,1.4683921982593833,-9.680427758619189,0.5509426780266687,-0.4906955659389496,-0.7876920104026794,-0.1572195440530777
20.24360400390625,-4.305863549241424,-0.594261777934432,0.6986050727233291,1.4530229258224368,-9.678807463940975,0.6162606976442039,-0.5893403887748718,-0.9546234011650084,-0.0748563036322593
20.253662841796874,-4.617607777711749,-1.9128572363495824,0.4569388813465833,1.4370603636674582,-9.675828740391134,0.6954201590768992,-0.7292671203613281,-1.1314053535461426,-0.1171156093478202
20.263721923828125,-5.502660427936911,-4.05638726863563,-0.3069009531576186,1.4103713864453136,-9.672413963511586,0.7909785282552242,-0.8625576496124268,-1.3598129749298096,-0.2635480761528015
20.273781005859377,-5.904283664774894,-5.92865004426837,-1.4899403054617344,1.339289433006197,-9.673314127221705,0.8964774958852678,-0.8693234324455261,-1.4601964950561523,-1.024602293968201
20.28383984375,-4.768277062606812,-6.868507466870546,-2.616269417093694,1.1747301544465123,-9.685600777342914,0.9897088103555144,-0.6553360819816589,-1.4153231382369995,-2.073002815246582
20.29389892578125,-4.508588015544414,-6.847270617574453,-2.680308174023032,0.9150407420579344,-9.706838211160898,1.0537473480891435,-0.400762677192688,-0.8894606232643127,-2.9498603343963623
20.3039580078125,-1.6077940930783747,-4.624409274420142,-3.1817741793602705,0.5978897957058623,-9.727931852594017,1.0863988869775083,-0.20184226334095,0.0056203659623861,-3.377347469329834
20.31401684570313,1.4208908807635303,-2.186915585026145,-3.101884357826412,0.2733061055371538,-9.74129811464548,1.0967406135760247,-0.046712078154087,0.9662760496139526,-3.290682077407837
20.324075927734373,3.643843993854522,-1.1551572928398848,-2.970383006998897,-0.0098943173328007,-9.74579367249906,1.0907851392377168,0.1388940513134002,1.815987229347229,-2.762639284133911
20.334135009765625,5.013385795652866,-0.3900315832436084,-2.9062098100349307,-0.2228876402192749,-9.745372232216596,1.071652787940204,0.2975966334342956,2.433410167694092,-2.044985294342041
20.34419409179688,5.5911798383891576,0.2735708574205637,-2.5645406911611555,-0.3617947189923375,-9.744134799376129,1.04467147670798,0.409695416688919,2.724374294281006,-1.3677273988723757
20.3542529296875,5.1198494435966015,1.000322120437026,-2.225392030675709,-0.4423275876700878,-9.744247027578949,1.0121304124567656,0.4749154150485992,2.6985790729522705,-0.8778063654899597
20.36431201171875,4.010561337006092,1.7293711390018462,-1.89826420898214,-0.4880921445012092,-9.745608379060029,0.977394395444542,0.470123142004013,2.3745968341827397,-0.5977699160575867
20.37437084960937,2.655774036747217,2.3161077821284533,-1.4640917245864866,-0.518499886518158,-9.747260237920283,0.944699455805868,0.4119663834571838,1.8618241548538208,-0.4568307101726532
20.384429931640625,1.4613409645736215,2.61238906852901,-1.013021881403774,-0.5470554247971624,-9.748307116624712,0.9174033064708114,0.3100441992282867,1.3184285163879397,-0.4463038742542267
20.39448876953125,0.0880862797319889,2.6358482700496912,-0.4135769286777824,-0.5853315986342728,-9.74767466394007,0.9003479806430638,0.1689570993185043,0.8724151253700256,-0.5386466383934021
20.404548095703124,-0.9997429323095828,2.069407980498672,0.2145307124961167,-0.6351971610434353,-9.745070034399628,0.8947329172402619,0.039173424243927,0.5799252390861511,-0.5963141918182373
20.414606689453127,-0.8602374309856444,0.8276929326683282,0.5879033488184213,-0.6889612652610987,-9.741157244870069,0.8975490706395357,-0.021691258996725,0.366093635559082,-0.5790398716926575
20.424666015625,-0.5976771393358707,-0.2693979556500911,0.4909725953083485,-0.7408314454909414,-9.736868607765436,0.902751899979636,-0.0382007732987403,0.2644985914230346,-0.5382372140884399
20.434724853515625,-0.4119266041874885,-0.4976368024379015,0.58176996062994,-0.7907104519035667,-9.732188340994716,0.910865136873722,-0.0962387770414352,0.2616213262081146,-0.5282631516456604
20.4447841796875,-0.362749681629613,-0.503333552774787,0.5650955969437956,-0.8398873013962059,-9.726492759701609,0.9275395005598664,-0.2056153267621994,0.2812320590019226,-0.5337180495262146
20.4548427734375,-0.1260720192551613,-0.2457072834610938,0.589583410859853,-0.8929601354140788,-9.71896002610922,0.956472165055573,-0.3200236558914184,0.3246876299381256,-0.6186478734016418
20.464902099609372,-0.2913105122506618,0.1045031615257263,0.551283490820974,-0.9565177577629684,-9.7092920340538,0.9925276671685278,-0.3488141894340515,0.258905678987503,-0.7407078742980957
20.474961181640627,-0.4164308568041771,0.391544910416007,0.2716901582404971,-1.0313126673106103,-9.698104869607093,1.0264159082449973,-0.3033830523490906,0.1026215329766273,-0.8221316337585449
20.48502001953125,0.3734194711387157,0.6830611743718386,-0.1677317711159587,-1.1136761854816228,-9.686157826703786,1.0528380512245,-0.2314178645610809,-0.0026851668953895,-0.8708693981170654
20.4950791015625,0.6996526820801198,0.7808335663378239,-0.1216200082823634,-1.199292567968741,-9.673647889220714,1.0736144434019923,-0.2203239351511001,-0.0857291892170906,-0.8717865943908691
20.505137939453125,1.0966868375621734,0.6920102045029402,0.074161799275875,-1.2834350054457784,-9.660091657555103,1.0980994077738373,-0.3203930854797363,-0.0848950892686843,-0.832414448261261
20.515197021484376,1.1748759926579893,0.6768862851291895,0.0360525795035064,-1.3616234298892318,-9.644968322703242,1.1362084814157336,-0.4799771606922149,0.0195650123059749,-0.7674024105072021
20.525255859375,1.3693442333996295,-0.0312999781489372,-0.3578452507141977,-1.4311447098828851,-9.628256257355211,1.1911769929870963,-0.6247356534004211,0.1313306838274002,-0.683558464050293
20.535315185546875,1.2863668211139738,-0.6479331623673439,-0.9191992499768732,-1.4913698998734355,-9.610621816465258,1.257829147285223,-0.6954510807991028,0.1566962301731109,-0.6028960943222046
20.545373779296877,1.1053019595637916,-0.881343858835101,-1.4006808902971446,-1.545834480510652,-9.592688684889673,1.3270590431168674,-0.6885301470756531,0.093010738492012,-0.5627857446670532
20.55543310546875,0.9976539241410792,-0.463345825779438,-1.598969419979304,-1.598747593922168,-9.57479237819314,1.3920204678490755,-0.639299750328064,0.0134754348546266,-0.5514678955078125
20.565491943359376,1.0503497415401042,-0.4811176293134689,-1.6583124203078448,-1.6514435574516653,-9.557021159180998,1.451363614308089,-0.604886531829834,-0.0475072339177131,-0.5362573266029358
20.57555126953125,0.786357298195362,0.3278647576659917,-1.7337676203951238,-1.7027381297506392,-9.539406007513405,1.5069170130953191,-0.584252119064331,-0.1432092487812042,-0.4980460405349731
20.58560986328125,0.487028460792452,-0.1140098255395889,-2.137104383152723,-1.750568386939913,-9.522501634463667,1.55815649420619,-0.5647568702697754,-0.2851978242397308,-0.42790687084198
20.59566918945313,0.5318517912507057,-0.1301291856914758,-2.183830332361907,-1.7953912790067492,-9.50638285883367,1.6048824434153734,-0.5604092478752136,-0.5149447321891785,-0.3833490014076233
20.60572802734375,-0.6385425259485841,-1.2668541652619838,-2.835896795141697,-1.8411027904763817,-9.490444700467586,1.6468763956665993,-0.5496298670768738,-0.6869145631790161,-0.3631205558776855
20.615787109375,-0.5923360705688595,-1.2826286574989556,-2.8739842414736745,-1.8873092458561065,-9.474670208230616,1.6849639881290497,-0.5153291821479797,-0.6598174571990967,-0.3683062791824341
20.625845947265624,-0.4318555857554078,-1.9428052153676747,-3.368819722755253,-1.9339147835560144,-9.458833172151444,1.7207111549451946,-0.4583843052387237,-0.4364911913871765,-0.4124588668346405
20.6359052734375,-0.1268200611434876,-2.220869877076149,-3.6493788316279647,-1.9811242784984409,-9.442782201060652,1.7548168381646274,-0.36306232213974,-0.0807677134871482,-0.484179139137268
20.6459638671875,-0.0795776868447661,-2.2367834855228663,-3.680689623431861,-2.02836650666669,-9.426868008092043,1.7861276299685238,-0.248463362455368,0.2902923822402954,-0.5525469183921814
20.65602294921875,0.741030255998671,-2.526010761758685,-3.70919938634038,-2.076395793559402,-9.411327909132838,1.8126922501586376,-0.1196073666214943,0.5913337469100952,-0.6299703121185303
20.66608203125,0.7899746119096874,-2.541273797342181,-3.731516432088613,-2.125340880122781,-9.396064873549342,1.835009149776399,-0.042946171015501,0.887100100517273,-0.6876190900802612
20.67614111328125,3.1656980738282203,-2.152513549208641,-2.3599498464643958,-2.1706084472171963,-9.382151499009131,1.8531274286605417,0.1331830471754074,1.2449501752853394,-0.6770889163017273
20.68619995117188,3.198711870157718,-2.1643968792259694,-2.3809933651454744,-2.203621805155277,-9.370268168991805,1.8741709473416208,0.0781837552785873,1.5763291120529177,-0.5721874833106995
20.696259033203123,4.443768337370455,-1.8040309509277344,-1.5137227475874124,-2.216712026744336,-9.361925872582196,1.9002363858379423,0.1431100219488144,1.7158652544021606,-0.3624848127365112
20.70631811523437,5.074959331512451,-1.6371411835938692,-0.950761386193335,-2.2058083554141223,-9.358231109717488,1.930887836950272,-0.0089299296960234,1.591030836105347,-0.0812150090932846
20.716376953125,5.189091906648874,-1.7836866665571929,-0.7073967203356325,-2.1720983935140072,-9.359526410225032,1.9625569406725465,-0.0186206400394439,1.144416093826294,0.2219608426094055
20.72643603515625,4.475825855888426,-2.197146471661329,-0.7378603937909006,-2.121577289805561,-9.364452176189422,1.9940679312236609,-0.2619189023971557,0.6077488660812378,0.4786915481090545
20.7364951171875,3.6039889533281326,-2.620596340382099,-0.6937737070441246,-2.057185627785325,-9.371510278007388,2.028092073639482,-0.242803007364273,0.2688651084899902,0.7075023055076599
20.746553955078124,3.342868119896948,-2.8764029930531976,-1.497925166735798,-1.9759289018124344,-9.382955216607453,2.055774007421732,-0.2616819739341736,0.1277026683092117,0.935730278491974
20.75661303710937,3.41914238128215,-2.868915852168202,-2.780800346341729,-1.874283321674913,-9.399870111051202,2.073612446451187,-0.0706984251737594,0.0217922125011682,1.1906349658966064
20.766672119140622,3.2885914630472657,-3.06068053303957,-3.6775650616705415,-1.749419216904789,-9.423285473430155,2.076442847571522,-0.0267011523246765,-0.1693676114082336,1.478768229484558
20.77673095703125,2.955114710718393,-3.4376901376247404,-4.469837721389532,-1.6023910649910569,-9.4523917409271,2.0627675195708868,0.2278632223606109,-0.4725187122821808,1.752387285232544
20.7867900390625,2.4945757590532303,-3.4569092173576355,-5.381601268407702,-1.437236304756254,-9.48719183615148,2.024331698192656,0.3520756661891937,-0.8302783966064453,1.9922138452529907
20.79684912109375,2.105887553242594,-3.2086376363664866,-5.994320494052768,-1.2550478460036218,-9.525371636942028,1.9653280128210784,0.6288436055183411,-1.054762601852417,2.225694417953491
20.80690795898437,2.2190765639185903,-2.601941324272752,-5.9313423520922655,-1.0484612243797629,-9.566588028949498,1.8845429960131643,0.7601010203361511,-1.0796575546264648,2.5211124420166016
20.816967041015623,2.708563377648592,-1.8977876775115727,-5.299557191449403,-0.80876450644508,-9.607847091054916,1.7904060379400848,0.9942461252212524,-1.053536057472229,2.8463926315307617
20.82702587890625,2.2146716069579124,-1.4959505056619644,-3.725977502661943,-0.541424213977158,-9.645765610560774,1.6841725454904135,0.9937975406646729,-1.2037813663482666,3.0533063411712646
20.837085205078125,0.1286533044526353,-1.6423346605837343,-1.6730701367177068,-0.2646735940093174,-9.67520564005673,1.578199749803543,1.0915040969848633,-1.546307921409607,3.0778043270111084
20.847143798828125,-2.271739648091793,-2.156030617418885,0.0731499918848276,0.0020368009166479,-9.695565706518291,1.47185812080428,0.9981344938278198,-1.9112837314605715,2.9215121269226074
20.857203125,-4.302652185979485,-2.457918053263425,1.5513582123681902,0.2465753715325147,-9.70567501260042,1.381838242661208,0.9127879738807678,-2.0237526893615723,2.6718380451202397
20.867261962890623,-5.022213245230913,-1.35032038397789,3.479302250951529,0.4715842599557712,-9.70715034584999,1.3111958496831355,0.6425225734710693,-1.7806909084320068,2.4829177856445312
20.877321044921874,-4.41722899775207,-1.3190262510478497,3.691767190024256,0.6905043299846351,-9.700136083173753,1.2652778558559714,0.5228859186172485,-1.2095835208892822,2.4149985313415527
20.88738061523437,-4.017432391819358,-1.8646914635956289,3.532781912204623,0.9133501586224884,-9.686881464803218,1.2249452609457074,0.425366073846817,-0.5517821311950684,2.383696317672729
20.897439697265625,-4.243066024544835,-1.8838024067789316,3.571434591203928,1.138983572152257,-9.667769937098026,1.18629302033782,0.4518173933029175,0.150870531797409,2.284135341644287
20.90749877929688,-3.4208073918849227,-2.6741303621709345,5.519494073837995,1.353264620736241,-9.646281743389368,1.1350394376363604,0.4534465670585632,0.7699023485183716,1.9841550588607788
20.9175576171875,-2.691272635629773,-2.5449083544522524,6.922063700491189,1.5324791782446203,-9.626913026052712,1.0697812219146638,0.6483713388442993,1.1034468412399292,1.4783023595809937
20.92761669921875,-0.3012760259479284,-1.6736825695276258,8.503898007404803,1.6635767705768345,-9.614978258109092,0.9772902044177056,0.826900064945221,1.2130573987960815,1.0093320608139038
20.93767578125,0.8115883316941559,-0.0080769234716892,8.671241948246955,1.7534993258252738,-9.609133623734117,0.8718960123363881,0.9035956859588624,1.371406316757202,0.6019023656845093
20.947734619140626,-0.1709866812586784,0.8059054637521504,6.678853494542837,1.8066753279566763,-9.608337504920362,0.7656175117012113,0.7486810088157654,1.256758213043213,0.3009229898452759
20.95779370117188,1.4175946156971155,-0.2427577860057354,4.935708681732416,1.8479468111522492,-9.607137481480835,0.6770481246273964,0.6223800778388977,1.459812879562378,0.3941394984722137
20.967851806640624,-0.8831935783550142,-0.2781996862649917,2.7412673773765563,1.9062661675214767,-9.601474633413552,0.5901144855292514,0.585250973701477,1.3358442783355713,0.6122341752052307
20.97791064453125,-5.208911290362477,0.2989683335274458,0.5667168414700776,1.973895934680104,-9.592062077423927,0.516210460406728,0.5990291237831116,0.5246233940124512,0.6609796285629272
20.9879697265625,-4.4913849518090485,0.3789320970803499,-0.5396285261994227,2.041817378261685,-9.581045593369009,0.452689114947617,0.588387668132782,-0.081076942384243,0.7461594939231873
20.99802880859375,-4.569602163955569,0.36410511482656,-0.4910346642265096,2.120034444277733,-9.566219195637109,0.4040951433768495,0.556260347366333,-0.308782011270523,0.9010981917381288
21.008087646484373,-2.3254778141506014,1.0934598383396863,-3.2919153467729685,2.2126512070462105,-9.547235678225755,0.3533321206713095,0.6102229952812195,-0.267275869846344,1.038892388343811
21.018146728515624,-2.078994285620004,1.2726871091991665,-3.769781573075056,2.316020103845,-9.524601821613311,0.2972912671606987,0.679668128490448,-0.0805278196930885,1.1246353387832642
21.02820581054688,-2.1876006446808574,1.2476210570037365,-3.696940793269873,2.424626462905854,-9.49953693846166,0.2244506334859877,0.7988128066062927,0.1031690463423729,1.130243897438049
21.0382646484375,-3.47501916680485,1.627753177523613,-2.5281428053513166,2.525718793074786,-9.4747502877295,0.1423208418724592,0.8943699598312378,0.1256503760814666,0.9626460671424866
21.04832373046875,-4.0676808160662645,2.012570825511217,-1.2691492904618382,2.604972947053611,-9.454197913566231,0.0513984162659384,0.9664838910102844,-0.0240307003259658,0.6999627351760864
21.0583828125,-4.044539886714518,2.595219322541356,0.0314560066775768,2.66069161940515,-9.438746661934257,-0.0344489688153262,0.9248133897781372,-0.3406283557415008,0.4838176071643829
21.06844189453125,-3.677985332909226,2.6138141328960653,0.8539756671771407,2.7008517803579566,-9.426814232078192,-0.1047402764835394,0.8572759032249451,-0.7128879427909851,0.3685478270053863
21.07850073242188,-3.712091016128659,2.6031764190256594,0.910515446653217,2.7349577558383342,-9.416176518207788,-0.1612800742259249,0.8326097130775452,-0.9427829384803772,0.3327637314796448
21.088559814453124,-3.0822680954694746,2.3826152672588825,1.3669108687728642,2.7687773155927657,-9.405258233830333,-0.2130553244476206,0.8075338006019592,-0.9291073679924012,0.3578837811946869
21.09861889648437,-2.5050159045249223,2.319796699774265,1.9630857868522404,2.806984588912129,-9.392717316687106,-0.2609580440849066,0.7620128989219666,-0.9645916223526,0.4196720421314239
21.10867749023437,-2.675162627828121,2.0469827982008457,2.2439868410304187,2.851435725057125,-9.378028866121172,-0.3037855976160615,0.7202043533325195,-0.8888582587242126,0.4742147624492645
21.11873681640625,-2.135107071855664,1.7725480174273252,2.5457974122464657,2.9027479791432618,-9.36081995716691,-0.3456755780361593,0.6838213205337524,-0.8055242300033569,0.5638834238052368
21.12879565429688,-1.4382801147207618,1.4473065940022467,2.64142636244297,2.9617402663379906,-9.340689023286105,-0.3872855724710971,0.6684046387672424,-0.6772551536560059,0.6281572580337524
21.138854736328124,-0.9891434315577148,1.0607102459043265,2.57387725930512,3.0222689693197604,-9.31935806596577,-0.43106688306313,0.663801908493042,-0.5655608773231506,0.5895805954933167
21.14891357421875,-1.1283707004621624,0.6736123780250549,2.112574337530136,3.072612670634687,-9.300669732108712,-0.4764367780208587,0.6660470962524414,-0.5573862195014954,0.4220639169216156
21.158972900390623,-1.9880118460550904,0.248146493306756,1.1882188738338648,3.105356125590205,-9.287456030270455,-0.5199375181058421,0.6896171569824219,-0.7153361439704895,0.211829200387001
21.169031494140626,-2.5511709219783545,-0.0616810878872871,0.1936269676119089,3.120841279491782,-9.2797456020236,-0.5630822843600064,0.7619993090629578,-0.8365904688835144,0.0342808365821838
21.1790908203125,-2.2578911554813383,0.0562947186738252,-0.487285248565115,3.121449474518001,-9.276515534061192,-0.6109052350256592,0.7990968823432922,-0.7768227458000183,-0.1234243735671043
21.189148681640624,-1.5540519814968108,0.2435895606547594,-0.2759963310018181,3.107739221334457,-9.27736133723557,-0.6655236179850995,0.8147560954093933,-0.5424715876579285,-0.2507225275039673
21.199207763671875,-0.5475158088505268,0.917888751900196,-0.0991451416239142,3.0835739173710346,-9.280984788429736,-0.7247595046773553,0.7511606216430664,-0.4214908182621002,-0.3307704925537109
21.2092666015625,-0.1390285314619541,1.38025374994874,0.1577382734332233,3.052323039060831,-9.287403423300384,-0.7731978107623756,0.5779848694801331,-0.4470899403095245,-0.4211286008358001
21.21932592773437,0.0020902502775192,1.6070687014132736,0.6332055488348007,3.0104134040921924,-9.298141090413928,-0.8076827756229787,0.4389294683933258,-0.3989554345607757,-0.5456148386001587
21.229384521484373,0.6108139765456319,1.7884300616919993,0.8230329780332744,2.9580425808638333,-9.312806744626164,-0.8318614505246281,0.3303762078285217,-0.3886662721633911,-0.6393672227859497
21.23944384765625,1.2198591898530722,2.000671128880977,1.2200428758569062,2.897568822939694,-9.330519511449335,-0.8460984309960157,0.219947949051857,-0.39352548122406,-0.7140454649925232
21.24950268554688,1.523136911012232,1.9401473943352696,1.5089067256078124,2.8337112677961587,-9.349901672789452,-0.8484061234164982,0.0987205952405929,-0.5173486471176147,-0.708977997303009
21.25956201171875,1.889560824175179,1.4741349796950816,0.6565970188815147,2.776887264551222,-9.368117128437756,-0.8352643177706748,-0.0110032390803098,-0.6728304028511047,-0.5980629324913025
21.26962060546875,2.437324178045988,0.8958797491878271,0.2286515923071652,2.7335531497374177,-9.382875721630452,-0.8122381008397788,-0.032080203294754,-0.8010458946228027,-0.4423231482505798
21.279679931640626,2.4632749041214583,0.9055401424586772,0.2035195622034371,2.707602423661947,-9.392537283945083,-0.7871062899317592,0.0012681647203862,-0.8960748910903931,-0.250621348619461
21.28973876953125,3.3980735820293426,-0.1888099227190017,-0.0486612281206995,2.7004069591999054,-9.396526061320303,-0.7638708872295915,0.0393862538039684,-0.9637522101402284,-0.0499087981879711
21.2997978515625,3.7118434711083768,-0.8686784385293722,-0.7520522199463099,2.715391177842021,-9.393918509170412,-0.7425283125367015,0.0782122164964675,-0.9838843941688538,0.2158019691705703
21.309856689453124,3.271141731074452,-1.4883219104796648,-2.063953222224116,2.7547642800703644,-9.383598190686106,-0.7278354780565947,0.1776818931102752,-0.9444150924682616,0.453466534614563
21.31991577148437,1.815965718871355,-1.764536560407281,-3.190930130240321,2.807536669836938,-9.367902024382351,-0.72837798743546,0.3799846470355987,-0.7839726805686951,0.4965690076351166
21.329974609375,0.2189206910833716,-1.729408548402786,-3.287951119317114,2.8519422132745382,-9.352153251108527,-0.757651135931909,0.6237298250198364,-0.5764797329902649,0.3265254497528076
21.34003369140625,-0.767379041481018,-0.6496481495916843,-1.9014339250594376,2.875922516059876,-9.340906465429066,-0.8043132261246443,0.6758636236190796,-0.5504989624023438,0.0962504297494888
21.3500927734375,-0.7727437833845615,-0.6547650542140007,-1.8621809420794249,2.881287257963419,-9.33578956080675,-0.8435662091046571,0.5382130742073059,-0.7201905846595764,-0.0866909250617027
21.360150634765624,-0.7200868366912007,2.291060434633493,0.406206619105488,2.873372539316118,-9.336448316976428,-0.8630503695145249,0.369676798582077,-0.8905239701271057,-0.221992015838623
21.370209716796875,-0.6740244659572839,3.131256290522217,0.8255101087365299,2.855741021035612,-9.34196561909318,-0.8618720464501529,0.1795887202024459,-0.9653515219688416,-0.3204734921455383
21.380268798828126,-0.6499193677484989,3.140070296096801,0.8093143223475664,2.831635338304937,-9.350779040145872,-0.8456763331264257,0.0820118263363838,-0.995292901992798,-0.3639538586139679
21.39032763671875,-0.7394067464500665,2.6263953820496795,1.2948501334294675,2.805153866353631,-9.3609847923398,-0.8206485671147704,-0.0101707801222801,-1.0337536334991455,-0.3771671056747436
21.40038671875,-0.5102434782937169,2.669571675953269,1.4494379069425165,2.777253175254166,-9.37243791424632,-0.7839992638271301,-0.1306985318660736,-1.1189662218093872,-0.4023883044719696
21.41044580078125,-0.0864852742761373,2.727755569374561,1.4222368885450063,2.745994698159397,-9.385731695583464,-0.7334551445692777,-0.2501510381698608,-1.2259067296981812,-0.4518705904483795
21.42050439453125,0.2385866378009319,2.8470354442715644,1.362023096731305,2.707927710093557,-9.401461764156815,-0.67084715109542,-0.3409469723701477,-1.2794140577316284,-0.5493497252464294
21.430563720703127,0.4484562996834516,2.834612600550056,1.4873682630166412,2.6574215116932987,-9.42061303935051,-0.6004661489998921,-0.4297665357589721,-1.24189031124115,-0.6914162039756775
21.44062255859375,0.5854986257642507,2.333883677315712,1.593918127939105,2.591457339659333,-9.443614560231566,-0.5223632474154234,-0.5531193614006042,-1.1541622877120972,-0.8424757719039917
21.450681884765626,1.1471139793768526,0.8951344837784767,1.5482311663888393,2.5106273146659133,-9.469816922980549,-0.4355259082986041,-0.6909659504890442,-0.9691780805587769,-0.9567055106163024
21.460740478515625,1.235993747574091,0.9220546394079924,1.4554675424955783,2.421747546468675,-9.49673824765384,-0.342762211340107,-0.8146953582763672,-0.7292059659957886,-0.9589776992797852
21.4707998046875,2.461276716041565,-1.330537825143337,1.7072852716609834,2.337451891191304,-9.520881924307346,-0.2439790348963811,-0.9386340975761414,-0.4682296812534332,-0.8230879306793213
21.480858642578124,3.837167302344739,-3.765803317093849,2.5412550926417112,2.269393669487536,-9.53937502785325,-0.1434623035251628,-0.9824971556663512,-0.2334179729223251,-0.6104201674461365
21.49091772460937,4.256702920231223,-6.378606227120756,2.897700924886763,2.219313441414386,-9.55211234435141,-0.0468052341236267,-0.9561221599578856,-0.0943269804120063,-0.4450241327285766
21.5009755859375,2.9678607950448987,-8.977607406288385,3.563003739728033,2.1820666836902496,-9.560696048301455,0.0455070795052917,-0.9388741850852966,-0.0542530678212642,-0.3367743492126465
21.511034912109373,1.2885203458860517,-11.358249327647686,4.484474441768229,2.153593891791254,-9.56632499409914,0.1336413219982758,-0.835910975933075,-0.0946324542164802,-0.249972864985466
21.521093505859376,-0.5034641934171319,-11.825102284765244,4.358884653072059,2.134963571731746,-9.569184475183487,0.2074563901957124,-0.636333167552948,-0.1555325537919998,-0.1283383071422577
21.53115283203125,-2.096769450154901,-8.49409265270531,3.522557455310225,2.1280437093406914,-9.569261047551036,0.2665657644314691,-0.4994172751903534,-0.3604564070701599,-0.0059053087607026
21.541211669921875,-3.7423680809706448,-3.449914243903756,2.616337221632897,2.1294244961746034,-9.567209960240126,0.3231439762217923,-0.4813431799411773,-0.5235792994499207,0.0584547705948352
21.55127075195313,-4.303360626509785,0.124735217693448,2.476221771717072,2.1355605147115884,-9.563426350048184,0.3881410567892715,-0.6610727310180664,-0.5862067937850952,0.1147300750017166
21.56132958984375,-4.143500903943181,2.9207892472684382,2.5007442185550928,2.14718577831462,-9.556468785995245,0.4836278220361098,-1.049675464630127,-0.6596096158027649,0.1783932000398636
21.571388916015625,-4.335007810661197,5.0278012744963165,1.949772424031794,2.159277198124677,-9.54610872002244,0.6162130591101944,-1.3509914875030518,-0.8405306935310364,0.140454962849617
21.581447509765624,-5.141301981469988,5.128340208566189,0.5494277068864554,2.158874754803628,-9.534718141958116,0.7738176962263882,-1.4499378204345703,-1.1898666620254517,-0.008513486944139
21.5915068359375,-5.730401262074708,3.98792280421853,-0.8039179431967437,2.1389488419756293,-9.524216037166118,0.9405370754294096,-1.3867709636688232,-1.5362272262573242,-0.1419117301702499
21.601565673828127,-5.064935950148105,2.6351561961323022,-1.5680363754466176,2.105553060591221,-9.514296116176247,1.1023643717419356,-1.235790133476257,-1.8023054599761963,-0.1860216557979583
21.611625,-3.978344244012237,1.506494111508131,-1.9224429569490251,2.063880887640268,-9.505372220486402,1.2484750434845686,-0.9744741320610046,-1.9746140241622925,-0.2107470482587814
21.62168359375,-3.421802540402114,0.4897457569271325,-2.581940738773346,2.0153592871859667,-9.49927682622075,1.3683797722816466,-0.6582812666893005,-2.073328256607056,-0.2502976655960083
21.631741943359376,-3.2293612754434347,-0.3586912730842828,-3.084672234001756,1.958937873392552,-9.49733913615644,1.4606553203970194,-0.4251511394977569,-2.0304083824157715,-0.314147412776947
21.641800537109376,-2.8319863436996937,-0.7910626994073391,-2.951697011229396,1.895554073240608,-9.499066982862352,1.531337022472173,-0.2635510563850403,-1.8768131732940676,-0.3972068727016449
21.65185986328125,-2.043514099176973,-1.844407384979725,-2.862397264054417,1.8259408771798011,-9.504408343890308,1.5819481425516306,-0.1270821988582611,-1.5225415229797363,-0.4946425557136535
21.661918701171874,-1.329946873512864,-1.672563210108876,-2.156181277935952,1.7543189716450869,-9.512548395726084,1.613744818176329,-0.0538617819547653,-1.102124810218811,-0.5538131594657898
21.67197802734375,-0.8030098884411155,-0.8798106579184531,-1.6328898097597062,1.686021534357965,-9.521498594900963,1.633638143908977,-0.0430164858698844,-0.6902287602424622,-0.560949981212616
21.68203662109375,-0.4765785245791077,-0.544423103532195,-1.3099733221508565,1.6257951753236353,-9.529777762946486,1.6463583631418643,-0.0508597642183303,-0.298633873462677,-0.5178307294845581
21.692095947265624,-0.1327086807906627,-0.3028092268645763,-0.85159447112903,1.578208371501416,-9.536461770755052,1.6539510102279484,-0.0798688679933548,0.1374799013137817,-0.4411849677562713
21.70215478515625,-0.0810322695672512,-0.05904606320858,-0.7958737529508769,1.545385713829845,-9.541403903332352,1.6564394660428166,-0.0772515088319778,0.5526800155639648,-0.3613561689853668
21.712213623046875,-0.0622159254163503,-0.0549859741628169,-0.789919666852057,1.5265693696789442,-9.545462823334336,1.650485233813524,-0.0407812483608722,0.96463805437088,-0.2963693141937256
21.72227270507813,0.2110788915418088,0.4735515779733658,-0.2595005387529731,1.520228037828207,-9.54922129908502,1.6345204797014594,0.000814929138869,1.3729002475738523,-0.2339525520801544
21.73233056640625,0.204746765910834,0.4770470188736915,-0.2329590071775019,1.5265600173287093,-9.552716739985346,1.6079788019955157,0.0608229897916317,1.7176861763000488,-0.1572975367307663
21.7423896484375,0.2453844812475144,-0.0385784447193145,0.8453948858365417,1.5457774896264076,-9.555884848627448,1.570354735391587,0.1237385720014572,1.9711503982543943,-0.0528867058455944
21.75244873046875,0.0243465057492256,0.0132996265560388,1.6517704513184726,1.5776735339723529,-9.55808381997645,1.5245869636900722,0.1505793631076812,2.119117021560669,0.0513027161359787
21.7625078125,-0.4318668378017842,-0.23739655123353,2.1870814431123438,1.618941948428005,-9.558779401025175,1.4761970267914235,0.1447164267301559,2.0775225162506104,0.1430515497922897
21.772566650390623,-1.0506609994463625,-0.1916512836247682,2.4511340922117237,1.6638758996538816,-9.55783832078278,1.4316623040162026,0.1034212857484817,1.81770133972168,0.1874114573001861
21.782625732421877,-1.7359136925131082,0.3714180681884289,2.4395548597075045,1.703442332497239,-9.555425414422151,1.40089424078688,-0.0377608686685562,1.3260467052459717,0.1571406424045562
21.792684814453125,-2.193042689604312,0.9213619809687136,2.0904192043453453,1.7279690171189606,-9.551410333561895,1.3982315974488853,-0.2648487687110901,0.6922000050544739,0.0483117699623107
21.80274365234375,-2.088316094586253,1.024759227079153,1.488949248597771,1.730682513861358,-9.546770398801565,1.426290547849983,-0.4571066200733185,0.1101876869797706,-0.1069899350404739
21.812802734375,-2.068788387295604,1.020387587866187,1.4370767302803695,1.711154660440236,-9.5423987595886,1.478162920036912,-0.5604401230812073,-0.3535495102405548,-0.2550512552261352
21.82286181640625,-1.7975732992209492,0.1158943241119384,-0.3056682695575058,1.6727752454243598,-9.539321836361289,1.5406274133868514,-0.5394179224967957,-0.6796024441719055,-0.3690324127674103
21.832920654296878,-1.7464689887970686,0.1149976675331592,-0.3647293842047452,1.6216710811309516,-9.538426348826288,1.5996886741645633,-0.4104177355766296,-0.8927146792411804,-0.4288534820079803
21.842978759765625,-1.6395388923853635,-0.5701251155436039,-1.0415202461354434,1.5638227032743393,-9.53999052940309,1.6472532661549746,-0.2581256628036499,-1.0484510660171509,-0.4360256493091583
21.85303784179688,-1.6439568549580872,-0.9678677115559576,-1.3570048301778732,1.5047935912005603,-9.54312590481937,1.6836634269244968,-0.1518185883760452,-1.1665072441101074,-0.4002793729305267
21.8630966796875,-1.6191227118223903,-1.0013567241817711,-1.37514327506721,1.448685335009545,-9.546448327240348,1.7137731723755598,-0.1185210868716239,-1.1726500988006592,-0.347920298576355
21.87315576171875,-1.4703129371888934,-0.7216045477777719,-1.21405401070565,1.3987861625917255,-9.5489220238775,1.741227288751304,-0.1276580691337585,-1.0326902866363523,-0.2857442200183868
21.88321484375,-1.2188861070372163,-0.5498381143182516,-1.080779074334353,1.3586470444269478,-9.54995136692524,1.7671664705194532,-0.1565163433551788,-0.7219042181968689,-0.2207353860139846
21.893272705078125,-0.8283733161479234,-0.4249205257952213,-0.8564109315000474,1.3314550861187278,-9.549921556308863,1.7879050149045883,-0.113177865743637,-0.2925871014595032,-0.1516366451978683
21.903331787109376,-0.547147121668607,-0.5327542930483817,-0.6662718060038983,1.319127519465238,-9.550275776574017,1.7951378887675702,-0.0187890417873859,0.155390664935112,-0.0790974572300911
21.91339111328125,-0.4299750327058136,-0.817812759166956,-0.2333161500521004,1.320618196414411,-9.551174186718464,1.7892478078156708,0.0432197339832782,0.5025123953819275,-0.0143565442413091
21.92344970703125,-0.4763891394868493,-0.762108407601714,0.3515576218120753,1.332764853543043,-9.55196095318198,1.775989828444272,0.0587294474244117,0.732373833656311,0.0344019420444965
21.9335078125,-0.4485064224354922,-0.7995476191580295,1.0358305100612342,1.3515693611256778,-9.552831306275724,1.7570058726415037,0.1068833172321319,0.8360738754272461,0.0625562220811843
21.94356689453125,-0.4086649720430373,-1.047270334094763,1.4746080040343106,1.3720318650484085,-9.553507013580203,1.7373633067995309,0.0591919608414173,0.7730613946914673,0.063181534409523
21.95362573242188,-0.5624227244727313,-0.5562655170172452,1.8894540027998388,1.387674255338311,-9.55310252443254,1.7271375347308813,-0.0409053415060043,0.5715497732162476,0.0128313740715384
21.963684814453124,-0.8091226722329854,-0.12624211512506,1.8352781759761272,1.391362442331761,-9.5526173712641,1.7268446892641485,-0.0798396915197372,0.3041255474090576,-0.0975835546851158
21.973743896484372,-1.0001416493035853,-0.1058060608178377,1.3463121712498367,1.3785748569510876,-9.553450314956905,1.732481526107341,-0.0730908066034317,0.0015108329243957,-0.2195596098899841
21.983802734375,-1.0800189036168155,-0.2315752977341413,1.024781438910961,1.3495159357272088,-9.556518470355869,1.738426259855926,-0.0062957978807389,-0.2626145780086517,-0.3282735645771026
21.99386181640625,-0.993389983086288,-0.666874009680748,0.9025522126890718,1.3077782963246107,-9.56205213908553,1.7398980859741568,0.0806954801082611,-0.4692160785198211,-0.3960416615009308
22.0039208984375,-0.8971678893022239,-0.9483435113966464,1.1791636068493128,1.2580940818317234,-9.569384966191649,1.7362256810717285,0.1291698217391967,-0.6179517507553101,-0.4284464716911316
22.013979736328125,-0.8016806856639683,-0.8754501246213913,1.673150216216594,1.2043554773814975,-9.57643605374694,1.7354446136966346,0.0460995361208915,-0.7069748640060425,-0.4351471066474914
22.024038818359376,-0.7411451145499944,-0.3202589588373899,2.123620193810016,1.1493563514761629,-9.58141091955006,1.7452601975291966,-0.0650395005941391,-0.740185558795929,-0.4334149956703186
22.034096923828123,-0.9776578686863184,0.3585498187869787,1.3389412040904165,1.093178317984566,-9.584755553802848,1.7628968303762376,-0.1173524558544159,-0.725922703742981,-0.4511110186576843
22.04415576171875,-1.2405226231753823,0.4881488431245088,0.6400975003056227,1.034471861993894,-9.587611527755856,1.782685088299215,-0.1284061670303344,-0.7118707895278931,-0.4942289292812347
22.05421484375,-1.5125987119935451,0.468442856657505,-0.0395499200999736,0.9709109517093748,-9.590651041582229,1.801981909443438,-0.1180832386016845,-0.7139912247657776,-0.5517414212226868
22.06427392578125,-1.4430214640289545,0.4723234974831342,-0.0549747221164405,0.901333703744784,-9.594531097885966,1.81740641919896,-0.0556518211960792,-0.7019849419593811,-0.6219434142112732
22.07433276367188,-1.2928379168242214,-0.4966553901851177,-1.0824627896375951,0.8259684469632804,-9.599991701379418,1.824365882948041,0.0363034233450889,-0.6349586844444275,-0.6630006432533264
22.084391845703124,-1.0040268932390957,-0.6813391728848218,-1.1635634482659398,0.7517377471696585,-9.606545360806583,1.821968612547964,0.1051450669765472,-0.5017231702804565,-0.6435720920562744
22.09445092773437,-0.913603037405014,-0.5856956096410751,-1.2369776440449058,0.6846572844568639,-9.61315513433516,1.813531623592228,0.1279712468385696,-0.3282727003097534,-0.5707652568817139
22.104510009765622,-0.7167243745207786,-0.4101081565886735,-1.314668640360236,0.6306828984893859,-9.618753684994578,1.803385200370103,0.1085304394364357,-0.0911088958382606,-0.4560511708259582
22.11456787109375,-0.6600012013018131,-0.3016431056946516,-1.4398632922589778,0.590419679020904,-9.623220601275564,1.793157528605312,0.1053272858262062,0.143233835697174,-0.3870366811752319
22.124626953125,-0.5038957897674292,-0.0960223334282636,-1.4775791287995874,0.5585135151397437,-9.627430327925085,1.7807447678864,0.1231438368558883,0.3006596863269806,-0.3502893149852752
22.134685791015624,-0.347213601258397,-0.0633855537176132,-1.637999992380291,0.5317169858898967,-9.63208370668888,1.763695433408022,0.1955086439847946,0.3896020352840423,-0.3257389068603515
