seconds_elapsed,acc_z,acc_y,acc_x,grav_z,grav_y,grav_x,gyro_z,gyro_y,gyro_x
0.0300,0.0607,0.0633,-0.0240,1.3794,-9.3541,2.6016,-0.0104,-0.0307,0.0606
0.0400,0.1268,0.0438,0.0169,1.3842,-9.3531,2.6027,-0.0045,-0.0164,0.0536
0.0500,0.1041,0.0242,0.0522,1.3887,-9.3524,2.6029,0.0004,0.0057,0.0448
0.0600,0.0252,0.0268,0.0948,1.3929,-9.3518,2.6025,0.0032,0.0260,0.0345
0.0700,-0.0799,0.0670,0.1436,1.3965,-9.3514,2.6021,-0.0030,0.0383,0.0240
0.0800,-0.1845,0.0970,0.1269,1.3992,-9.3509,2.6027,-0.0230,0.0356,0.0117
0.0900,-0.2894,0.0976,0.0116,1.4001,-9.3500,2.6051,-0.0341,0.0104,-0.0082
0.1000,-0.3595,0.0690,-0.0716,1.3978,-9.3495,2.6082,-0.0258,-0.0376,-0.0379
0.1100,-0.3031,0.0518,-0.0524,1.3912,-9.3497,2.6113,-0.0235,-0.0819,-0.0681
0.1200,-0.1151,0.0487,-0.0549,1.3814,-9.3501,2.6148,-0.0238,-0.0983,-0.0882
0.1300,0.1149,0.0275,-0.0712,1.3703,-9.3509,2.6180,-0.0161,-0.0893,-0.0953
0.1400,0.2665,0.0126,-0.0583,1.3591,-9.3519,2.6203,-0.0084,-0.0812,-0.0954
0.1500,0.3334,-0.0014,-0.0455,1.3481,-9.3530,2.6218,-0.0010,-0.0900,-0.0910
0.1600,0.3625,-0.0116,-0.0366,1.3374,-9.3543,2.6229,0.0041,-0.1028,-0.0825
0.1700,0.3938,-0.0254,0.0153,1.3271,-9.3554,2.6240,0.0036,-0.1141,-0.0759
0.1800,0.3864,-0.0687,0.0852,1.3168,-9.3565,2.6252,0.0051,-0.1207,-0.0768
0.1900,0.3181,-0.1113,0.0835,1.3061,-9.3578,2.6260,0.0130,-0.1177,-0.0863
0.2000,0.2429,-0.1941,0.1237,1.2940,-9.3595,2.6261,0.0183,-0.1138,-0.1084
0.2100,0.1492,-0.3107,0.2557,1.2792,-9.3616,2.6257,0.0203,-0.1134,-0.1440
0.2200,0.0757,-0.3089,0.3395,1.2606,-9.3643,2.6251,0.0231,-0.1123,-0.1882
0.2300,0.0608,-0.2184,0.3462,1.2378,-9.3676,2.6241,0.0255,-0.1140,-0.2312
0.2400,0.1059,-0.1812,0.3518,1.2109,-9.3713,2.6236,0.0129,-0.1339,-0.2725
0.2500,0.1477,-0.1771,0.4239,1.1795,-9.3747,2.6258,-0.0263,-0.1776,-0.3113
0.2600,0.1803,-0.2232,0.5742,1.1427,-9.3771,2.6333,-0.0812,-0.2476,-0.3566
0.2700,0.1998,-0.3152,0.7054,1.0983,-9.3787,2.6464,-0.1206,-0.3475,-0.4200
0.2800,0.2072,-0.3517,0.7391,1.0449,-9.3800,2.6633,-0.1443,-0.4596,-0.4824
0.2900,0.3149,-0.1920,0.7627,0.9836,-9.3806,2.6844,-0.1961,-0.5675,-0.5254
0.3000,0.5158,0.2819,0.7119,0.9160,-9.3795,2.7120,-0.2642,-0.6789,-0.5493
0.3100,0.6834,0.6240,0.4598,0.8439,-9.3765,2.7454,-0.2991,-0.7779,-0.5531
0.3200,0.8021,0.6459,0.0305,0.7698,-9.3728,2.7798,-0.2845,-0.8250,-0.5415
0.3300,0.9454,0.6553,-0.4877,0.6968,-9.3694,2.8103,-0.2298,-0.7949,-0.5218
0.3400,1.1053,0.6680,-0.9527,0.6279,-9.3674,2.8330,-0.1448,-0.6822,-0.4933
0.3500,1.2331,0.5995,-1.2599,0.5662,-9.3677,2.8453,-0.0381,-0.5213,-0.4493
0.3600,1.2804,0.4963,-1.1696,0.5146,-9.3701,2.8470,0.0473,-0.3475,-0.3793
0.3700,1.2957,0.4618,-0.9763,0.4755,-9.3737,2.8422,0.0793,-0.1967,-0.2875
0.3800,1.2055,0.4709,-0.8565,0.4488,-9.3771,2.8354,0.0813,-0.1029,-0.1953
0.3900,0.8798,0.4816,-0.7612,0.4318,-9.3801,2.8279,0.0835,-0.0510,-0.1257
0.4000,0.6638,0.4865,-0.7782,0.4220,-9.3831,2.8197,0.0921,-0.0008,-0.0656
0.4100,0.6983,0.4721,-0.7830,0.4204,-9.3860,2.8100,0.1106,0.0830,0.0110
0.4200,0.5067,0.4779,-0.8579,0.4276,-9.3894,2.7977,0.1406,0.1124,0.0702
0.4300,0.2801,0.5018,-0.9151,0.4367,-9.3936,2.7822,0.1824,-0.0070,0.0819
0.4400,0.3175,0.2934,-0.9358,0.4419,-9.3991,2.7627,0.2426,-0.1806,0.0858
0.4500,0.3575,0.0867,-0.9512,0.4445,-9.4063,2.7377,0.3132,-0.3202,0.1188
0.4600,0.5982,-0.1581,-0.7986,0.4484,-9.4151,2.7066,0.3818,-0.4276,0.1826
0.4700,0.8533,-0.3938,-0.5786,0.4568,-9.4253,2.6694,0.4480,-0.4983,0.2595
0.4800,0.8579,-0.3748,-0.4745,0.4713,-9.4365,2.6267,0.5013,-0.5430,0.3369
0.4900,0.7674,-0.3428,-0.2163,0.4923,-9.4483,2.5800,0.5367,-0.5892,0.4151
0.5000,0.6712,-0.3108,0.0442,0.5189,-9.4601,2.5311,0.5550,-0.6026,0.4628
0.5100,0.2361,-0.1967,0.4552,0.5482,-9.4716,2.4816,0.5459,-0.5438,0.4517
0.5200,-0.3483,-0.1052,1.0170,0.5769,-9.4822,2.4341,0.5055,-0.4376,0.4025
0.5300,-0.6861,-0.1211,1.2554,0.6032,-9.4916,2.3908,0.4457,-0.2718,0.3276
0.5400,-1.0315,-0.1154,1.3813,0.6261,-9.4997,2.3525,0.3717,-0.0307,0.2245
0.5500,-1.2104,-0.1075,1.4590,0.6441,-9.5065,2.3201,0.2920,0.2304,0.1007
0.5600,-1.3845,-0.0103,1.5578,0.6552,-9.5123,2.2930,0.2324,0.4407,-0.0335
0.5700,-1.6703,0.1907,1.6362,0.6572,-9.5180,2.2686,0.2127,0.5559,-0.1657
0.5800,-1.8213,0.3702,1.5540,0.6484,-9.5243,2.2443,0.2152,0.5683,-0.2866
0.5900,-1.8204,0.5205,1.4030,0.6279,-9.5312,2.2209,0.1980,0.5007,-0.3917
0.6000,-1.6888,0.6745,1.2298,0.5960,-9.5379,2.2007,0.1656,0.3824,-0.4787
0.6100,-1.4775,0.7745,0.9554,0.5536,-9.5443,2.1839,0.1486,0.2242,-0.5421
0.6200,-1.2429,0.7333,0.5873,0.5027,-9.5505,2.1692,0.1451,0.0355,-0.5749
0.6300,-0.9841,0.5734,0.2662,0.4455,-9.5563,2.1558,0.1385,-0.1589,-0.5855
0.6400,-0.7236,0.3729,0.0831,0.3836,-9.5617,2.1440,0.1283,-0.3197,-0.5953
0.6500,-0.5202,0.1770,-0.0393,0.3173,-9.5665,2.1331,0.1278,-0.4133,-0.6180
0.6600,-0.3620,0.0048,-0.1794,0.2473,-9.5712,2.1211,0.1507,-0.4407,-0.6440
0.6700,-0.1926,-0.1651,-0.3412,0.1755,-9.5763,2.1053,0.2011,-0.4299,-0.6512
0.6800,-0.0160,-0.3433,-0.4826,0.1048,-9.5821,2.0834,0.2655,-0.3917,-0.6332
0.6900,0.1626,-0.4574,-0.5629,0.0378,-9.5888,2.0551,0.3290,-0.3063,-0.6009
0.7000,0.3446,-0.4691,-0.6122,-0.0233,-9.5961,2.0210,0.3772,-0.1680,-0.5645
0.7100,0.5026,-0.4036,-0.6173,-0.0778,-9.6037,1.9831,0.4044,0.0125,-0.5306
0.7200,0.5804,-0.3187,-0.5660,-0.1253,-9.6113,1.9432,0.4230,0.2148,-0.5000
0.7300,0.5361,-0.2918,-0.5052,-0.1660,-9.6190,1.9020,0.4378,0.4044,-0.4639
0.7400,0.3088,-0.3048,-0.3943,-0.1997,-9.6265,1.8603,0.4433,0.5561,-0.4215
0.7500,0.0514,-0.2850,-0.2550,-0.2271,-9.6338,1.8187,0.4438,0.6632,-0.3757
0.7600,-0.1055,-0.2114,-0.1872,-0.2487,-9.6411,1.7771,0.4509,0.7311,-0.3340
0.7700,-0.2475,-0.0725,-0.1454,-0.2666,-9.6483,1.7347,0.4654,0.7725,-0.3126
0.7800,-0.3492,0.1107,-0.0671,-0.2834,-9.6555,1.6911,0.4749,0.8014,-0.3141
0.7900,-0.3871,0.1824,0.0268,-0.3010,-9.6625,1.6477,0.4659,0.8281,-0.3332
0.8000,-0.3902,0.0759,0.0958,-0.3210,-9.6688,1.6064,0.4386,0.8500,-0.3593
0.8100,-0.3949,-0.0668,0.0905,-0.3432,-9.6743,1.5684,0.4006,0.8521,-0.3748
0.8200,-0.3929,-0.1167,0.0345,-0.3664,-9.6789,1.5345,0.3559,0.8344,-0.3703
0.8300,-0.4172,0.0514,-0.0765,-0.3895,-9.6826,1.5049,0.3167,0.8187,-0.3642
0.8400,-0.4786,0.2251,-0.1694,-0.4129,-9.6858,1.4784,0.2921,0.8115,-0.3704
0.8500,-0.5029,0.2159,-0.2087,-0.4377,-9.6884,1.4537,0.2866,0.8191,-0.3875
0.8600,-0.5329,0.1772,-0.2505,-0.4651,-9.6908,1.4289,0.3031,0.8465,-0.4272
0.8700,-0.5317,0.0638,-0.1953,-0.4972,-9.6931,1.4024,0.3251,0.8763,-0.4819
0.8800,-0.4171,-0.0786,-0.0739,-0.5341,-9.6950,1.3750,0.3276,0.9035,-0.5295
0.8900,-0.2595,-0.2050,-0.0374,-0.5746,-9.6964,1.3489,0.3093,0.9100,-0.5525
0.9000,-0.0969,-0.3223,-0.0404,-0.6159,-9.6971,1.3257,0.2734,0.8878,-0.5388
0.9100,0.0690,-0.3504,-0.0248,-0.6549,-9.6970,1.3075,0.2124,0.8501,-0.4924
0.9200,0.2098,-0.3422,-0.0149,-0.6890,-9.6962,1.2960,0.1362,0.8038,-0.4296
0.9300,0.3126,-0.3584,-0.0849,-0.7175,-9.6948,1.2906,0.0918,0.7628,-0.3638
0.9400,0.3669,-0.3716,-0.1646,-0.7405,-9.6936,1.2869,0.0963,0.7082,-0.3083
0.9500,0.3298,-0.3690,-0.1803,-0.7600,-9.6927,1.2820,0.1059,0.6422,-0.2742
0.9600,0.2324,-0.3405,-0.1004,-0.7778,-9.6920,1.2766,0.1007,0.5713,-0.2519
0.9700,0.1595,-0.2787,0.0677,-0.7944,-9.6914,1.2715,0.0885,0.4799,-0.2275
0.9800,0.1112,-0.1884,0.1918,-0.8099,-9.6907,1.2670,0.0748,0.3803,-0.2029
0.9900,0.0769,-0.0633,0.2876,-0.8244,-9.6900,1.2630,0.0630,0.2881,-0.1848
1.0000,0.0737,0.0933,0.4074,-0.8389,-9.6892,1.2596,0.0511,0.2168,-0.1792
1.0100,0.1065,0.2388,0.5775,-0.8540,-9.6882,1.2573,0.0295,0.1785,-0.1827
1.0200,0.1495,0.3346,0.7557,-0.8698,-9.6867,1.2572,0.0003,0.1725,-0.1877
1.0300,0.1838,0.3683,0.8300,-0.8860,-9.6849,1.2600,-0.0254,0.1870,-0.1901
1.0400,0.1976,0.3042,0.7171,-0.9020,-9.6828,1.2652,-0.0460,0.2098,-0.1909
1.0500,0.1673,0.2275,0.4774,-0.9179,-9.6803,1.2725,-0.0607,0.2273,-0.1948
1.0600,0.0873,0.1427,0.2278,-0.9342,-9.6776,1.2810,-0.0699,0.2166,-0.2029
1.0700,-0.0424,0.0323,0.0181,-0.9521,-9.6747,1.2900,-0.0795,0.1604,-0.2172
1.0800,-0.1723,-0.0402,-0.1834,-0.9726,-9.6714,1.2992,-0.0866,0.0700,-0.2354
1.0900,-0.2253,-0.1566,-0.3967,-0.9959,-9.6679,1.3079,-0.0856,-0.0182,-0.2491
1.1000,-0.1101,-0.3028,-0.6234,-1.0209,-9.6642,1.3155,-0.0794,-0.0623,-0.2516
1.1100,0.1625,-0.3884,-0.8213,-1.0454,-9.6607,1.3222,-0.0710,-0.0572,-0.2331
1.1200,0.5580,-0.4110,-0.9890,-1.0664,-9.6576,1.3284,-0.0650,-0.0165,-0.1874
1.1300,0.7984,-0.4109,-1.0771,-1.0795,-9.6554,1.3336,-0.0626,0.0290,-0.1367
1.1400,0.8023,-0.4116,-1.0792,-1.0834,-9.6547,1.3357,-0.0612,0.0462,-0.1157
1.1500,0.7377,-0.4566,-1.0983,-1.0900,-9.6532,1.3409,-0.0538,0.0761,-0.0677
1.1600,0.6162,-0.4964,-1.0974,-1.0930,-9.6521,1.3463,-0.0379,0.0829,-0.0189
1.1700,0.5197,-0.4571,-1.0566,-1.0918,-9.6518,1.3497,-0.0155,0.0595,0.0206
1.1800,0.4705,-0.3746,-0.9576,-1.0878,-9.6521,1.3503,0.0118,0.0255,0.0502
1.1900,0.4668,-0.2994,-0.7608,-1.0816,-9.6532,1.3477,0.0440,0.0050,0.0737
1.2000,0.4444,-0.2083,-0.5080,-1.0733,-9.6549,1.3420,0.0724,0.0043,0.0947
1.2100,0.4144,-0.1435,-0.3719,-1.0631,-9.6571,1.3342,0.0893,0.0158,0.1102
1.2200,0.2895,-0.0370,-0.1491,-1.0516,-9.6596,1.3253,0.0980,0.0286,0.1177
1.2300,0.0989,0.1379,0.1237,-1.0397,-9.6622,1.3158,0.1019,0.0307,0.1151
1.2400,-0.0380,0.3125,0.2093,-1.0289,-9.6647,1.3060,0.1035,0.0187,0.0968
1.2500,-0.1235,0.4416,0.2513,-1.0209,-9.6669,1.2959,0.1073,0.0001,0.0619
1.2600,-0.1186,0.4559,0.2616,-1.0171,-9.6687,1.2851,0.1144,-0.0156,0.0176
1.2700,-0.0300,0.3859,0.2540,-1.0179,-9.6702,1.2733,0.1232,-0.0203,-0.0301
1.2800,0.1192,0.2344,0.2179,-1.0231,-9.6713,1.2605,0.1369,-0.0063,-0.0723
1.2900,0.2092,0.1438,0.1964,-1.0315,-9.6723,1.2464,0.1544,0.0317,-0.1011
1.3000,0.3295,-0.0029,0.1661,-1.0410,-9.6732,1.2314,0.1666,0.0889,-0.1090
1.3100,0.4350,-0.1570,0.1203,-1.0495,-9.6742,1.2163,0.1670,0.1452,-0.0933
1.3200,0.3819,-0.1269,0.1041,-1.0550,-9.6753,1.2022,0.1560,0.1766,-0.0604
1.3300,0.3388,-0.0891,0.1016,-1.0569,-9.6767,1.1897,0.1389,0.1797,-0.0229
1.3400,0.2866,-0.0528,0.1162,-1.0556,-9.6781,1.1791,0.1173,0.1716,0.0039
1.3500,0.1570,0.0469,0.1826,-1.0526,-9.6794,1.1708,0.0878,0.1570,0.0157
1.3600,0.0043,0.1601,0.3117,-1.0493,-9.6805,1.1653,0.0575,0.1404,0.0150
1.3700,-0.1051,0.2242,0.4381,-1.0466,-9.6811,1.1621,0.0393,0.1297,0.0077
1.3800,-0.1827,0.2482,0.5146,-1.0447,-9.6816,1.1603,0.0248,0.1228,0.0002
1.3900,-0.2826,0.3094,0.5361,-1.0435,-9.6817,1.1604,-0.0042,0.1260,-0.0065
1.4000,-0.3802,0.3880,0.5229,-1.0430,-9.6813,1.1644,-0.0517,0.1366,-0.0156
1.4100,-0.4514,0.4055,0.4527,-1.0431,-9.6801,1.1738,-0.1085,0.1601,-0.0222
1.4200,-0.4378,0.3398,0.3212,-1.0434,-9.6783,1.1884,-0.1512,0.1938,-0.0282
1.4300,-0.4003,0.1429,0.1211,-1.0445,-9.6760,1.2061,-0.1658,0.2145,-0.0473
1.4400,-0.4285,-0.1158,-0.1655,-1.0478,-9.6733,1.2246,-0.1647,0.2404,-0.0804
1.4500,-0.3332,-0.3124,-0.4132,-1.0543,-9.6702,1.2432,-0.1607,0.2824,-0.1248
1.4600,-0.1706,-0.4395,-0.6120,-1.0650,-9.6667,1.2616,-0.1508,0.3334,-0.1743
1.4700,-0.0395,-0.5415,-0.8702,-1.0794,-9.6628,1.2791,-0.1254,0.3928,-0.2161
1.4800,0.1321,-0.6666,-1.1985,-1.0966,-9.6589,1.2938,-0.0789,0.4627,-0.2505
1.4900,0.2928,-0.7586,-1.5484,-1.1156,-9.6553,1.3043,-0.0205,0.5565,-0.2797
1.5000,0.4921,-0.7308,-1.8323,-1.1360,-9.6521,1.3101,0.0411,0.6571,-0.3066
1.5100,0.6580,-0.6163,-2.0111,-1.1580,-9.6494,1.3111,0.1005,0.7167,-0.3333
1.5200,0.6823,-0.2816,-2.0102,-1.1819,-9.6470,1.3075,0.1479,0.7224,-0.3556
1.5300,0.7399,0.0916,-1.8359,-1.2077,-9.6447,1.3002,0.1762,0.7038,-0.3690
1.5400,0.8818,0.2187,-1.6202,-1.2343,-9.6427,1.2906,0.1954,0.6754,-0.3628
1.5500,1.0334,0.2601,-1.3514,-1.2591,-9.6410,1.2791,0.2088,0.6390,-0.3216
1.5600,1.1825,0.2992,-0.9980,-1.2791,-9.6399,1.2673,0.1947,0.6127,-0.2550
1.5700,1.1586,0.3277,-0.7675,-1.2930,-9.6393,1.2578,0.1598,0.5817,-0.1919
1.5800,0.8904,0.3149,-0.6996,-1.3024,-9.6389,1.2511,0.1217,0.5093,-0.1471
1.5900,0.5723,0.2905,-0.6672,-1.3093,-9.6385,1.2472,0.0767,0.3897,-0.1148
1.6000,0.4149,0.2805,-0.7026,-1.3146,-9.6379,1.2466,0.0178,0.2342,-0.0720
1.6100,0.4513,0.2886,-0.7540,-1.3164,-9.6371,1.2504,-0.0578,0.0686,-0.0022
1.6200,0.5435,0.2543,-0.8389,-1.3125,-9.6364,1.2599,-0.1415,-0.0747,0.0855
1.6300,0.5957,0.1191,-1.0206,-1.3019,-9.6357,1.2758,-0.2193,-0.1719,0.1624
1.6400,0.5606,-0.0872,-1.3021,-1.2868,-9.6350,1.2967,-0.2626,-0.2328,0.1962
1.6500,0.4121,-0.2634,-1.6538,-1.2722,-9.6340,1.3185,-0.2486,-0.2876,0.1660
1.6600,0.2161,-0.3073,-1.9037,-1.2647,-9.6326,1.3359,-0.1876,-0.3338,0.0691
1.6700,0.0690,-0.2866,-1.9403,-1.2693,-9.6306,1.3457,-0.1042,-0.3617,-0.0691
1.6800,0.0419,-0.2337,-1.7944,-1.2878,-9.6280,1.3469,-0.0219,-0.3740,-0.2062
1.6900,0.1662,-0.1537,-1.4808,-1.3180,-9.6247,1.3412,0.0383,-0.3453,-0.3116
1.7000,0.3835,-0.1111,-1.0958,-1.3553,-9.6208,1.3318,0.0662,-0.2567,-0.3680
1.7100,0.6385,-0.0679,-0.7800,-1.3940,-9.6165,1.3226,0.0691,-0.1101,-0.3776
1.7200,0.7952,-0.0329,-0.6437,-1.4303,-9.6121,1.3160,0.0589,0.0700,-0.3678
1.7300,0.7759,0.0618,-0.5452,-1.4639,-9.6074,1.3130,0.0478,0.2288,-0.3735
1.7400,0.5928,0.1977,-0.4088,-1.4978,-9.6022,1.3128,0.0431,0.3181,-0.4081
1.7500,0.3361,0.2850,-0.3981,-1.5357,-9.5961,1.3138,0.0377,0.3196,-0.4691
1.7600,0.1342,0.4125,-0.4695,-1.5809,-9.5886,1.3149,0.0340,0.2657,-0.5477
1.7700,0.1133,0.4768,-0.6180,-1.6341,-9.5796,1.3157,0.0293,0.2130,-0.6196
1.7800,0.3671,0.4778,-0.7770,-1.6935,-9.5690,1.3171,0.0067,0.1920,-0.6650
1.7900,0.7246,0.5272,-0.8910,-1.7555,-9.5572,1.3219,-0.0400,0.2091,-0.6734
1.8000,1.0474,0.5926,-1.0326,-1.8160,-9.5445,1.3321,-0.0852,0.2518,-0.6469
1.8100,1.2573,0.5308,-1.2563,-1.8715,-9.5317,1.3468,-0.1148,0.2877,-0.5852
1.8200,1.3243,0.3049,-1.5483,-1.9193,-9.5196,1.3649,-0.1421,0.3080,-0.4952
1.8300,1.3437,0.0568,-1.8455,-1.9577,-9.5088,1.3854,-0.1539,0.3201,-0.4006
1.8400,1.3008,-0.1962,-2.2125,-1.9876,-9.4996,1.4061,-0.1357,0.3393,-0.3259
1.8500,1.1161,-0.4559,-2.5961,-2.0120,-9.4918,1.4239,-0.0809,0.3622,-0.2986
1.8600,0.7490,-0.7185,-2.9681,-2.0366,-9.4850,1.4347,0.0153,0.3818,-0.3357
1.8700,0.2873,-0.9246,-3.3129,-2.0666,-9.4781,1.4369,0.1011,0.4101,-0.4181
1.8800,-0.0684,-0.9483,-3.3637,-2.1048,-9.4700,1.4345,0.1331,0.4592,-0.5180
1.8900,-0.2169,-0.8727,-3.1245,-2.1516,-9.4598,1.4324,0.1267,0.5210,-0.6072
1.9000,0.0777,-0.8234,-2.4176,-2.2040,-9.4476,1.4335,0.0941,0.5671,-0.6523
1.9100,0.5620,-0.7347,-1.4690,-2.2571,-9.4340,1.4406,0.0217,0.5918,-0.6372
1.9200,0.7837,-0.6403,-0.8734,-2.3064,-9.4196,1.4565,-0.0656,0.5995,-0.5862
1.9300,1.0328,-0.6067,-0.4075,-2.3500,-9.4051,1.4800,-0.1350,0.5975,-0.5193
1.9400,1.5417,-0.7036,0.0773,-2.3854,-9.3915,1.5097,-0.1999,0.5691,-0.4111
1.9500,2.1109,-0.9810,0.5239,-2.4093,-9.3795,1.5459,-0.2923,0.5320,-0.2730
1.9600,2.7408,-1.4689,0.7789,-2.4198,-9.3690,1.5928,-0.4313,0.5330,-0.1240
1.9700,3.3805,-2.1360,0.3547,-2.4145,-9.3598,1.6533,-0.5686,0.5533,0.0486
1.9800,3.5619,-2.5982,-0.8801,-2.3926,-9.3526,1.7245,-0.6489,0.5588,0.2108
1.9900,3.2245,-2.6133,-2.3528,-2.3580,-9.3472,1.7996,-0.6633,0.5364,0.3073
2.0000,2.7237,-2.3511,-3.3903,-2.3180,-9.3427,1.8735,-0.6551,0.4768,0.3351
2.0100,2.2990,-2.2178,-3.9157,-2.2787,-9.3378,1.9449,-0.6544,0.3976,0.3236
2.0200,1.9669,-2.5571,-4.3032,-2.2411,-9.3321,2.0144,-0.6648,0.2554,0.3447
2.0300,1.6253,-3.3123,-4.8411,-2.2018,-9.3273,2.0792,-0.6323,0.0490,0.4305
2.0400,1.1338,-4.1144,-5.5359,-2.1574,-9.3259,2.1315,-0.5040,-0.1786,0.5451
2.0500,0.5243,-4.5700,-6.1455,-2.1076,-9.3299,2.1636,-0.3222,-0.4428,0.6538
2.0600,0.3091,-4.5093,-6.4233,-2.0539,-9.3397,2.1727,-0.1438,-0.6909,0.7444
2.0700,0.8099,-4.0071,-6.1963,-1.9955,-9.3549,2.1617,0.0076,-0.8859,0.8589
2.0800,1.7967,-3.2501,-5.3168,-1.9262,-9.3755,2.1352,0.1291,-1.0509,1.0578
2.0900,2.6968,-2.4711,-3.9486,-1.8369,-9.4019,2.0969,0.2211,-1.1750,1.3374
2.1000,2.9633,-2.0899,-3.1748,-1.7210,-9.4339,2.0508,0.2908,-1.2314,1.6371
2.1100,2.9153,-1.8130,-2.4265,-1.5768,-9.4699,1.9996,0.3502,-1.2160,1.9173
2.1200,2.8077,-1.3494,-1.1123,-1.4053,-9.5079,1.9458,0.4007,-1.1090,2.1493
2.1300,2.4142,-1.0768,-0.0182,-1.2109,-9.5453,1.8919,0.4370,-0.9040,2.3014
2.1400,1.6701,-1.1092,0.8660,-1.0006,-9.5798,1.8396,0.4603,-0.6347,2.3571
2.1500,0.5735,-1.3329,1.5927,-0.7831,-9.6094,1.7900,0.4640,-0.3342,2.3207
2.1600,-0.6029,-1.5458,2.2773,-0.5665,-9.6329,1.7446,0.4374,-0.0135,2.2086
2.1700,-1.5449,-1.7079,2.9454,-0.3572,-9.6503,1.7042,0.4057,0.3147,2.0478
2.1800,-2.1026,-1.7654,3.3953,-0.1591,-9.6624,1.6655,0.4130,0.5750,1.8717
2.1900,-2.3351,-1.6675,3.6052,0.0252,-9.6710,1.6229,0.4711,0.6596,1.7057
2.2000,-2.3321,-1.3385,3.7816,0.1945,-9.6775,1.5722,0.5559,0.5668,1.5688
2.2100,-1.9955,-0.6789,3.9596,0.3497,-9.6825,1.5136,0.6103,0.4249,1.4641
2.2200,-1.3337,0.2284,4.0830,0.4929,-9.6855,1.4539,0.5702,0.3687,1.3547
2.2300,-0.8004,1.1720,3.9785,0.6259,-9.6856,1.4014,0.4516,0.4925,1.2539
2.2400,-0.2129,1.6433,3.4500,0.7539,-9.6825,1.3590,0.3306,0.7310,1.2056
2.2500,0.2465,1.3655,2.6429,0.8811,-9.6767,1.3232,0.2735,0.8936,1.1725
2.2600,-0.2988,0.7266,1.6659,1.0024,-9.6698,1.2869,0.3172,0.8073,1.0742
2.2700,-1.8136,0.2352,0.4331,1.1085,-9.6640,1.2435,0.4312,0.5301,0.9309
2.2800,-2.4254,-0.1917,-0.7042,1.1991,-9.6598,1.1910,0.5433,0.3214,0.8382
2.2900,-1.8099,-0.4817,-1.5297,1.2830,-9.6564,1.1297,0.6424,0.3126,0.8204
2.3000,-1.5209,-0.5036,-2.4350,1.3677,-9.6531,1.0555,0.7872,0.4457,0.8414
2.3100,-1.3681,-0.4306,-3.0065,1.4569,-9.6496,0.9635,0.9459,0.6232,0.8861
2.3200,-1.5888,-0.3000,-3.0671,1.5516,-9.6450,0.8548,1.0762,0.7327,0.9307
2.3300,-2.4382,-0.2523,-3.0503,1.6471,-9.6392,0.7321,1.2160,0.6575,0.9121
2.3400,-2.9722,-0.2575,-2.9301,1.7358,-9.6328,0.5997,1.3186,0.4168,0.8369
2.3500,-2.7622,0.1707,-1.8634,1.8145,-9.6258,0.4651,1.3467,0.1655,0.7540
2.3600,-2.2336,0.6299,-0.3956,1.8846,-9.6178,0.3324,1.3483,0.0321,0.6864
2.3700,-2.1968,0.7916,0.3315,1.9483,-9.6088,0.2039,1.3191,-0.1296,0.6308
2.3800,-2.5822,0.8960,0.7352,2.0067,-9.5986,0.0841,1.2795,-0.4455,0.5852
2.3900,-2.4824,0.8592,1.2801,2.0626,-9.5871,-0.0244,1.2289,-0.7579,0.5780
2.4000,-2.2678,0.8447,1.7244,2.1208,-9.5737,-0.1207,1.1495,-0.9702,0.6187
2.4100,-2.2047,0.7925,1.7672,2.1845,-9.5579,-0.2069,1.1079,-1.1065,0.6621
2.4200,-2.0551,0.9112,1.6240,2.2516,-9.5402,-0.2880,1.1127,-1.1850,0.6652
2.4300,-1.8525,1.0971,1.4081,2.3176,-9.5216,-0.3688,1.1445,-1.1830,0.6198
2.4400,-1.6895,1.1178,1.3506,2.3775,-9.5031,-0.4542,1.2026,-1.1169,0.5216
2.4500,-1.6968,1.3807,1.3655,2.4258,-9.4861,-0.5446,1.2310,-1.0956,0.3620
2.4600,-1.4614,1.9441,1.3093,2.4575,-9.4724,-0.6348,1.2058,-1.0883,0.1623
2.4700,-1.0523,2.3527,1.2884,2.4714,-9.4626,-0.7212,1.1429,-1.0351,-0.0216
2.4800,-0.8980,2.4601,1.3603,2.4698,-9.4565,-0.8020,1.0670,-0.9279,-0.1753
2.4900,-0.7588,2.4832,1.4462,2.4547,-9.4537,-0.8776,0.9708,-0.8007,-0.2933
2.5000,-0.5334,2.7642,1.6815,2.4312,-9.4533,-0.9455,0.8371,-0.7193,-0.3351
2.5100,-0.4552,3.2561,1.8662,2.4070,-9.4537,-1.0021,0.7091,-0.6770,-0.3156
2.5200,-0.4459,3.5062,1.7259,2.3840,-9.4545,-1.0484,0.5924,-0.6153,-0.3105
2.5300,-0.3485,3.5054,1.5228,2.3597,-9.4564,-1.0857,0.4884,-0.5791,-0.3341
2.5400,-0.2764,3.4711,1.3649,2.3336,-9.4595,-1.1142,0.4047,-0.6070,-0.3482
2.5500,-0.1116,3.3167,1.2450,2.3073,-9.4635,-1.1354,0.3520,-0.6382,-0.3542
2.5600,0.1937,2.8568,1.0934,2.2813,-9.4678,-1.1515,0.3134,-0.7214,-0.3531
2.5700,0.4083,2.3231,0.8555,2.2585,-9.4721,-1.1616,0.2786,-0.8474,-0.3144
2.5800,0.8134,1.8065,0.4981,2.2426,-9.4752,-1.1665,0.2583,-0.9672,-0.2432
2.5900,1.3709,1.2209,-0.0382,2.2343,-9.4771,-1.1672,0.2425,-1.0677,-0.1889
2.6000,1.8519,0.5990,-0.6627,2.2296,-9.4784,-1.1661,0.2636,-1.1352,-0.1925
2.6100,2.2275,-0.0594,-1.4429,2.2225,-9.4799,-1.1674,0.3093,-1.1900,-0.2493
2.6200,2.4616,-0.5557,-2.1685,2.2096,-9.4824,-1.1717,0.3427,-1.2320,-0.3211
2.6300,2.6438,-1.0216,-2.7547,2.1907,-9.4861,-1.1770,0.3353,-1.2517,-0.3777
2.6400,2.7215,-1.4675,-3.2017,2.1687,-9.4908,-1.1793,0.2736,-1.1966,-0.3809
2.6500,2.9712,-1.7712,-3.3259,2.1478,-9.4958,-1.1776,0.2009,-1.0400,-0.3329
2.6600,3.2721,-1.9539,-3.1561,2.1302,-9.5004,-1.1728,0.1299,-0.8909,-0.2721
2.6700,3.1120,-1.7217,-2.5681,2.1170,-9.5045,-1.1634,0.0557,-0.8323,-0.2190
2.6800,2.5109,-0.4409,-1.2173,2.1075,-9.5085,-1.1473,-0.0222,-0.8509,-0.1888
2.6900,1.9338,1.1243,-0.0068,2.0996,-9.5132,-1.1227,-0.1102,-0.8906,-0.1931
2.7000,1.7492,1.6860,0.2650,2.0880,-9.5197,-1.0890,-0.2047,-0.8796,-0.2673
2.7100,0.7348,2.9371,0.9362,2.0639,-9.5296,-1.0468,-0.3167,-0.7871,-0.4363
2.7200,-0.7205,4.5009,2.1706,2.0177,-9.5451,-0.9945,-0.4782,-0.6211,-0.6913
2.7300,-1.3459,4.6157,3.0251,1.9411,-9.5675,-0.9279,-0.6977,-0.4343,-1.0125
2.7400,-1.6051,3.7483,3.5136,1.8306,-9.5972,-0.8407,-0.9697,-0.3118,-1.3467
2.7500,-1.5867,2.1112,3.7817,1.6878,-9.6323,-0.7281,-1.2526,-0.2461,-1.6439
2.7600,-1.0325,0.0029,3.9404,1.5198,-9.6693,-0.5927,-1.4506,-0.1611,-1.8192
2.7700,1.1944,-3.2630,4.2148,1.3484,-9.7026,-0.4458,-1.5234,0.0370,-1.6483
2.7800,4.4796,-8.9708,4.4959,1.2169,-9.7258,-0.3034,-1.4246,0.4474,-0.9780
2.7900,4.9598,-15.2968,4.9594,1.1620,-9.7356,-0.1874,-1.0839,0.9906,-0.1246
2.8000,3.2320,-18.0817,5.6870,1.1716,-9.7356,-0.1264,-0.6744,1.3534,0.3976
2.8100,2.5510,-18.1192,6.0267,1.1873,-9.7338,-0.1134,-0.4996,1.4386,0.5266
2.8200,0.3375,-14.3746,6.6050,1.2350,-9.7280,-0.0985,-0.2497,1.4120,0.6463
2.8300,-2.9876,-6.2820,6.6410,1.2922,-9.7207,-0.0932,-0.2062,1.0134,0.5217
2.8400,-4.4726,0.4176,6.1838,1.3319,-9.7154,-0.0806,-0.2713,0.6504,0.3069
2.8500,-3.5283,4.0839,5.6895,1.3530,-9.7127,-0.0607,-0.3143,0.7205,0.1406
2.8600,-3.0564,6.1011,5.2220,1.3590,-9.7119,-0.0412,-0.3336,1.0712,-0.0181
2.8700,-3.8903,7.2628,4.7298,1.3460,-9.7138,-0.0243,-0.3614,1.3792,-0.2540
2.8800,-4.5319,7.6885,4.4552,1.3063,-9.7192,-0.0061,-0.4040,1.4705,-0.5597
2.8900,-4.9323,7.5348,4.1355,1.2375,-9.7281,0.0180,-0.4700,1.3943,-0.8432
2.9000,-5.3125,7.0990,3.5601,1.1464,-9.7391,0.0529,-0.5768,1.2849,-1.0169
2.9100,-4.8494,6.5059,3.1956,1.0444,-9.7502,0.1021,-0.7084,1.2109,-1.0721
2.9200,-4.1679,5.8213,2.9032,0.9422,-9.7597,0.1658,-0.8280,1.1442,-1.0330
2.9300,-3.6781,4.9924,2.5322,0.8494,-9.7666,0.2416,-0.9121,1.0416,-0.8900
2.9400,-3.2154,3.9433,2.1602,0.7770,-9.7703,0.3248,-0.9331,0.9012,-0.6233
2.9500,-2.7885,2.4216,1.7614,0.7368,-9.7703,0.4080,-0.8756,0.7017,-0.2415
2.9600,-2.6422,0.5059,1.4335,0.7369,-9.7668,0.4859,-0.7951,0.3744,0.1967
2.9700,-3.1069,-1.2561,1.3658,0.7776,-9.7594,0.5627,-0.8064,-0.1304,0.6077
2.9800,-4.1838,-2.7233,1.4409,0.8479,-9.7480,0.6514,-0.9407,-0.7610,0.8502
2.9900,-5.6707,-4.1411,0.9800,0.9197,-9.7334,0.7621,-1.1173,-1.3838,0.6918
3.0000,-7.3565,-5.4635,-0.5245,0.9286,-9.7215,0.8919,-1.2205,-1.5852,-0.3490
3.0100,-8.5180,-5.6427,-3.1434,0.7998,-9.7197,1.0216,-1.1497,-1.2088,-2.0137
3.0200,-7.7794,-4.3263,-5.6579,0.5251,-9.7256,1.1298,-0.9021,-0.6894,-3.3151
3.0300,-5.1726,-3.0150,-6.4967,0.1630,-9.7294,1.2022,-0.5128,-0.3018,-3.8748
3.0400,-2.2119,-2.5215,-6.3005,-0.2162,-9.7250,1.2301,-0.0520,-0.0530,-3.7592
3.0500,0.3748,-2.1197,-5.9131,-0.5574,-9.7137,1.2163,0.3256,0.2581,-3.2085
3.0600,3.2535,-0.3859,-4.6142,-0.8309,-9.6993,1.1783,0.5121,0.8619,-2.5208
3.0700,5.4990,1.4243,-3.3030,-1.0300,-9.6851,1.1404,0.5150,1.8500,-1.8947
3.0800,6.0978,1.8461,-2.9405,-1.1624,-9.6725,1.1222,0.4285,3.1208,-1.4226
3.0900,5.6581,1.6289,-2.8892,-1.2424,-9.6619,1.1284,0.3940,4.3138,-1.1117
3.1000,4.4607,1.0090,-2.7946,-1.2881,-9.6538,1.1464,0.4970,5.0993,-0.9668
3.1100,3.1398,0.2825,-2.4429,-1.3216,-9.6480,1.1572,0.7051,5.3417,-0.9999
3.1200,2.0370,-0.2857,-1.6791,-1.3658,-9.6427,1.1498,0.8873,5.0375,-1.1762
3.1300,1.2576,-0.6924,-0.6100,-1.4363,-9.6352,1.1263,0.9334,4.2535,-1.3781
3.1400,0.9476,-1.0345,0.3863,-1.5334,-9.6238,1.0951,0.8280,3.1219,-1.4587
3.1500,1.2178,-1.0476,1.1885,-1.6434,-9.6090,1.0647,0.6003,1.8922,-1.3520
3.1600,1.8541,-0.5645,1.7410,-1.7472,-9.5930,1.0438,0.2838,0.8027,-1.0729
3.1700,2.2303,-0.2280,1.9472,-1.8286,-9.5782,1.0413,-0.1027,-0.0210,-0.6885
3.1800,2.7708,0.4048,1.9457,-1.8787,-9.5658,1.0657,-0.5177,-0.5148,-0.2937
3.1900,3.2075,0.8795,1.3753,-1.8970,-9.5559,1.1204,-0.8538,-0.7202,0.0475
3.2000,2.6890,0.6739,0.1581,-1.8885,-9.5482,1.1971,-1.0218,-0.7868,0.3005
3.2100,2.2256,0.6306,-0.5281,-1.8630,-9.5423,1.2814,-1.0419,-0.8499,0.4241
3.2200,1.0393,0.7372,-1.3398,-1.8343,-9.5367,1.3624,-0.9828,-0.9005,0.3983
3.2300,-0.4414,0.7796,-2.4224,-1.8148,-9.5296,1.4362,-0.8990,-0.8689,0.2553
3.2400,-1.0222,0.5498,-3.0877,-1.8119,-9.5199,1.5025,-0.7942,-0.7525,0.0505
3.2500,-1.4907,0.1196,-3.5903,-1.8281,-9.5074,1.5612,-0.6812,-0.5378,-0.1808
3.2600,-1.6671,-0.1562,-3.7666,-1.8623,-9.4918,1.6143,-0.5853,-0.2631,-0.3965
3.2700,-1.7564,-0.5507,-3.9703,-1.9102,-9.4739,1.6630,-0.4956,-0.0410,-0.5473
3.2800,-1.7591,-1.3249,-4.3650,-1.9656,-9.4547,1.7074,-0.4235,0.1297,-0.6244
3.2900,-1.2675,-1.9459,-4.6247,-2.0230,-9.4349,1.7491,-0.3574,0.3180,-0.6669
3.3000,-0.4650,-2.3574,-4.6911,-2.0808,-9.4152,1.7870,-0.2510,0.5342,-0.7125
3.3100,0.3614,-2.7306,-4.6455,-2.1383,-9.3964,1.8180,-0.1054,0.7910,-0.7545
3.3200,1.3610,-2.9952,-4.2918,-2.1932,-9.3792,1.8411,0.0496,1.0949,-0.7715
3.3300,2.5066,-3.0223,-3.6266,-2.2416,-9.3645,1.8580,0.1766,1.3968,-0.7368
3.3400,3.6749,-2.9019,-2.7400,-2.2758,-9.3531,1.8737,0.2151,1.6616,-0.5839
3.3500,5.0893,-2.7145,-1.5632,-2.2839,-9.3467,1.8956,0.1663,1.8195,-0.2830
3.3600,6.1744,-2.6660,-0.6589,-2.2587,-9.3469,1.9242,0.0941,1.7152,0.0958
3.3700,6.0876,-2.9881,-0.5949,-2.2016,-9.3546,1.9527,0.0357,1.3185,0.4805
3.3800,5.2367,-3.6491,-1.1001,-2.1186,-9.3690,1.9753,-0.0255,0.8053,0.8277
3.3900,4.4705,-4.3061,-1.9759,-2.0139,-9.3881,1.9938,-0.1029,0.4281,1.1345
3.4000,4.4031,-4.4343,-3.0473,-1.8854,-9.4106,2.0126,-0.1414,0.2944,1.4304
3.4100,4.6353,-4.0142,-4.1236,-1.7298,-9.4369,2.0287,-0.0865,0.2571,1.7289
3.4200,4.2994,-3.4755,-5.2340,-1.5462,-9.4675,2.0339,0.0478,0.1495,2.0369
3.4300,3.5640,-2.9813,-6.1039,-1.3354,-9.5021,2.0209,0.2316,-0.0364,2.3389
3.4400,2.9948,-2.2832,-6.8060,-1.0998,-9.5398,1.9840,0.4787,-0.2350,2.6080
3.4500,2.6806,-1.8126,-7.1639,-0.8439,-9.5789,1.9193,0.7841,-0.4398,2.8222
3.4600,1.5927,-1.5217,-6.6797,-0.5751,-9.6175,1.8224,1.1129,-0.8229,2.9514
3.4700,-0.5854,-1.6049,-5.4317,-0.3068,-9.6535,1.6922,1.4335,-1.5488,2.9605
3.4800,-2.6008,-2.5317,-3.4812,-0.0546,-9.6844,1.5357,1.6870,-2.4492,2.8579
3.4900,-4.0481,-3.6032,-0.8529,0.1760,-9.7082,1.3678,1.7537,-3.1425,2.6946
3.5000,-5.0863,-4.1407,1.8877,0.3884,-9.7225,1.2158,1.4977,-3.2526,2.5041
3.5100,-5.4631,-4.2957,3.8580,0.5885,-9.7256,1.1074,0.9860,-2.6006,2.3004
3.5200,-5.4269,-4.7231,4.6592,0.7825,-9.7184,1.0495,0.4751,-1.3972,2.1244
3.5300,-5.2225,-4.9522,4.7064,0.9761,-9.7034,1.0255,0.1562,-0.0285,2.0022
3.5400,-4.7531,-4.5193,4.7090,1.1723,-9.6835,1.0076,0.1006,1.1508,1.9019
3.5500,-4.0128,-3.5004,5.0916,1.3649,-9.6620,0.9709,0.2690,1.8308,1.7331
3.5600,-2.9538,-1.5826,6.3552,1.5361,-9.6429,0.9038,0.5278,2.0094,1.3884
3.5700,-1.8249,0.3708,7.1648,1.6633,-9.6304,0.8080,0.8009,1.8414,0.8730
3.5800,-0.0702,0.7894,5.7543,1.7381,-9.6265,0.6894,1.0510,1.4719,0.4291
3.5900,1.3538,0.3973,3.5797,1.7757,-9.6282,0.5576,1.1734,1.1698,0.1972
3.6000,0.2875,0.2771,1.6937,1.7929,-9.6318,0.4241,1.1851,0.9611,0.0495
3.6100,-1.5229,0.2479,-0.4942,1.7945,-9.6365,0.2901,1.2654,0.8320,-0.0778
3.6200,-1.8572,0.1733,-2.6495,1.7859,-9.6413,0.1408,1.5209,0.8857,-0.1243
3.6300,-1.9142,0.2954,-3.4741,1.7760,-9.6439,-0.0396,1.8427,0.9733,-0.0791
3.6400,-2.1944,0.4734,-3.2209,1.7707,-9.6418,-0.2443,2.0147,0.7943,-0.0053
3.6500,-2.9271,0.9294,-2.4901,1.7719,-9.6343,-0.4483,1.9811,0.1883,0.0598
3.6600,-4.2668,1.8121,-1.6468,1.7823,-9.6224,-0.6292,1.8178,-0.5962,0.1228
3.6700,-4.7532,2.5270,-1.2663,1.8051,-9.6074,-0.7780,1.6026,-1.2403,0.2061
3.6800,-4.3501,2.8652,-1.0543,1.8421,-9.5902,-0.8957,1.3994,-1.6997,0.2990
3.6900,-3.9993,2.8079,-0.9056,1.8934,-9.5712,-0.9876,1.2384,-2.0124,0.3987
3.7000,-3.8281,2.5179,-0.5016,1.9594,-9.5504,-1.0581,1.0943,-2.2662,0.5127
3.7100,-3.7999,2.2942,0.2538,2.0403,-9.5277,-1.1083,0.9487,-2.4671,0.6297
3.7200,-3.7430,2.1685,1.2269,2.1341,-9.5034,-1.1400,0.8100,-2.5337,0.7343
3.7300,-3.4123,2.0826,2.3594,2.2364,-9.4779,-1.1558,0.6826,-2.5219,0.7911
3.7400,-3.3157,2.1025,3.3658,2.3412,-9.4522,-1.1586,0.5900,-2.4912,0.7857
3.7500,-3.4248,2.1489,3.9926,2.4428,-9.4270,-1.1538,0.5155,-2.3233,0.7444
3.7600,-3.1923,2.2208,4.6746,2.5339,-9.4042,-1.1438,0.4020,-2.0359,0.6295
3.7700,-2.9282,2.5660,5.2863,2.6067,-9.3865,-1.1259,0.2583,-1.7973,0.4404
3.7800,-2.8315,3.2305,5.1786,2.6575,-9.3754,-1.0993,0.1381,-1.6273,0.2282
3.7900,-2.5905,3.8082,4.5975,2.6865,-9.3710,-1.0663,0.0519,-1.4940,0.0324
3.8000,-2.0474,4.1280,4.0528,2.6979,-9.3718,-1.0295,-0.0073,-1.3670,-0.1077
3.8100,-1.0894,4.2784,3.6234,2.6961,-9.3765,-0.9915,-0.0579,-1.1986,-0.2050
3.8200,0.0250,4.2825,3.3278,2.6832,-9.3840,-0.9545,-0.0928,-1.0161,-0.2949
3.8300,0.9456,3.9682,2.8768,2.6594,-9.3942,-0.9202,-0.0953,-0.8709,-0.3953
3.8400,1.5627,3.4866,2.4066,2.6246,-9.4068,-0.8902,-0.0779,-0.7692,-0.4962
3.8500,2.1842,2.8353,2.1150,2.5808,-9.4214,-0.8638,-0.0691,-0.7270,-0.5627
3.8600,3.1315,1.7129,1.3591,2.5335,-9.4365,-0.8387,-0.0566,-0.7526,-0.5561
3.8700,4.5303,0.2997,0.2433,2.4911,-9.4498,-0.8160,-0.0092,-0.7718,-0.4596
3.8800,6.0177,-0.9465,-0.6627,2.4609,-9.4591,-0.7994,0.0456,-0.7109,-0.2985
3.8900,6.8509,-1.8375,-1.5370,2.4452,-9.4640,-0.7895,0.0912,-0.6265,-0.1495
3.9000,7.1254,-2.6193,-2.7388,2.4402,-9.4655,-0.7872,0.1724,-0.5608,-0.0594
3.9100,6.8820,-3.5624,-3.9781,2.4410,-9.4645,-0.7973,0.3241,-0.5174,-0.0222
3.9200,5.4699,-4.6543,-4.6354,2.4407,-9.4622,-0.8248,0.5108,-0.4886,-0.0859
3.9300,3.0911,-5.2690,-4.6812,2.4286,-9.4613,-0.8692,0.6643,-0.4935,-0.2638
3.9400,1.3505,-4.5274,-4.1126,2.4015,-9.4632,-0.9218,0.6876,-0.5619,-0.3854
3.9500,1.0219,-2.5043,-3.1591,2.3746,-9.4655,-0.9668,0.5553,-0.6794,-0.2785
3.9600,1.2569,-0.4079,-2.2860,2.3668,-9.4647,-0.9938,0.3625,-0.7174,-0.0342
3.9700,1.1792,1.2000,-1.4225,2.3793,-9.4606,-1.0032,0.1651,-0.5878,0.1368
3.9800,0.7067,2.6692,-0.5202,2.3995,-9.4560,-0.9984,-0.0257,-0.3500,0.1660
3.9900,0.0091,3.9992,0.5905,2.4132,-9.4542,-0.9826,-0.2143,-0.0192,0.0592
4.0000,-0.9876,4.7654,1.8937,2.4066,-9.4586,-0.9556,-0.4395,0.2979,-0.1883
4.0100,-1.6744,4.6710,3.1876,2.3690,-9.4726,-0.9089,-0.7520,0.4569,-0.5326
4.0200,-1.2207,3.6827,4.5501,2.2971,-9.4975,-0.8292,-1.1749,0.5472,-0.8757
4.0300,-0.6006,2.9823,5.1968,2.1959,-9.5309,-0.7090,-1.6116,0.6645,-1.1244
4.0400,0.0599,1.7781,5.4345,2.0798,-9.5670,-0.5525,-1.9322,0.6847,-1.1609
4.0500,1.3567,-1.7524,5.9838,1.9807,-9.5967,-0.3737,-1.9791,0.4539,-0.7848
4.0600,2.6511,-8.0884,6.5317,1.9321,-9.6119,-0.2064,-1.5210,0.0462,-0.2151
4.0700,1.3572,-15.2096,7.0796,1.9259,-9.6151,-0.0943,-0.7909,-0.0928,0.0286
4.0800,-2.4412,-16.9033,7.8460,1.9264,-9.6155,-0.0403,-0.3671,-0.0003,-0.0444
4.0900,-5.0070,-10.9964,8.0035,1.9176,-9.6173,-0.0093,-0.3069,0.0285,-0.1369
4.1000,-5.3376,-3.0322,6.6577,1.9017,-9.6205,0.0199,-0.3384,0.2125,-0.1964
4.1100,-4.5701,2.2707,5.0464,1.8772,-9.6252,0.0469,-0.3909,0.6756,-0.3302
4.1200,-3.9410,5.0882,4.1976,1.8346,-9.6332,0.0711,-0.4834,1.2301,-0.5718
4.1300,-3.9368,6.4371,3.8310,1.7678,-9.6454,0.0966,-0.5763,1.6128,-0.8299
4.1400,-4.3783,6.6512,3.4679,1.6792,-9.6609,0.1260,-0.6259,1.7633,-1.0347
4.1500,-4.8107,6.1166,3.0164,1.5735,-9.6781,0.1583,-0.6262,1.7478,-1.1888
4.1600,-5.0990,5.3395,2.5964,1.4563,-9.6958,0.1927,-0.6100,1.6421,-1.2640
4.1700,-5.0801,4.4975,2.4422,1.3383,-9.7120,0.2296,-0.5981,1.4829,-1.2022
4.1800,-4.7260,3.5678,2.4120,1.2338,-9.7249,0.2687,-0.5656,1.2933,-0.9915
4.1900,-4.1221,2.5856,2.2064,1.1548,-9.7335,0.3068,-0.5073,1.1165,-0.6864
4.2000,-3.5484,1.5474,1.9523,1.1068,-9.7380,0.3420,-0.4511,0.9056,-0.3647
4.2100,-3.9875,0.0226,1.5544,1.0863,-9.7390,0.3764,-0.4281,0.5823,-0.1214
4.2200,-4.8319,-1.4686,1.1133,1.0825,-9.7378,0.4165,-0.4853,0.1474,-0.0055
4.2300,-5.4334,-2.7631,0.7117,1.0721,-9.7362,0.4746,-0.7018,-0.3004,-0.2445
4.2400,-5.8191,-4.1599,-0.1390,1.0115,-9.7378,0.5639,-1.0279,-0.5845,-0.9947
4.2500,-5.1219,-4.7967,-1.6820,0.8621,-9.7440,0.6837,-1.2809,-0.5633,-1.9807
4.2600,-3.3229,-4.3881,-3.4087,0.6228,-9.7515,0.8166,-1.3260,-0.2460,-2.7947
4.2700,-1.1706,-3.5336,-4.9789,0.3258,-9.7548,0.9378,-1.1039,0.2719,-3.2080
4.2800,1.0411,-2.5873,-6.1067,0.0142,-9.7516,1.0258,-0.6780,0.9586,-3.2213
4.2900,2.9326,-1.5148,-6.1883,-0.2733,-9.7433,1.0707,-0.1831,1.7598,-2.9009
4.3000,3.8617,-0.3687,-5.2481,-0.5093,-9.7335,1.0765,0.2294,2.5021,-2.3687
4.3100,3.8937,0.6692,-3.7770,-0.6813,-9.7252,1.0592,0.4488,3.0744,-1.7586
4.3200,3.2458,1.3983,-2.4306,-0.7907,-9.7194,1.0379,0.4655,3.4641,-1.1997
4.3300,2.3222,1.9257,-1.5810,-0.8498,-9.7154,1.0287,0.3158,3.7049,-0.7945
4.3400,1.8802,2.1681,-1.3034,-0.8767,-9.7116,1.0422,0.0704,3.8082,-0.5833
4.3500,0.7832,2.2346,-1.2755,-0.8922,-9.7059,1.0813,-0.1797,3.6836,-0.5808
4.3600,-0.7961,1.7507,-1.4133,-0.9171,-9.6970,1.1382,-0.3193,3.2236,-0.7344
4.3700,-1.3140,0.6599,-1.8708,-0.9647,-9.6855,1.1952,-0.2796,2.4351,-0.9226
4.3800,-1.2045,-0.0375,-2.0054,-1.0377,-9.6729,1.2358,-0.1537,1.4663,-1.0571
4.3900,-0.7274,-0.1992,-1.5540,-1.1313,-9.6596,1.2566,-0.0728,0.5125,-1.1088
4.4000,0.0394,-0.2248,-0.8474,-1.2367,-9.6456,1.2647,-0.0850,-0.2542,-1.0827
4.4100,0.5354,-0.2559,-0.4528,-1.3444,-9.6304,1.2711,-0.1962,-0.7196,-0.9963
4.4200,1.0638,-0.2217,-0.0913,-1.4448,-9.6138,1.2869,-0.3656,-0.8355,-0.8624
4.4300,2.0277,-0.1210,0.2915,-1.5303,-9.5962,1.3192,-0.5384,-0.6639,-0.6973
4.4400,2.8139,-0.1328,0.2029,-1.5966,-9.5782,1.3704,-0.6855,-0.3574,-0.5382
4.4500,3.0002,-0.2718,-0.1138,-1.6456,-9.5600,1.4375,-0.7624,-0.0268,-0.4328
4.4600,2.6053,-0.4383,-0.5712,-1.6776,-9.5449,1.4999,-0.7564,0.2192,-0.3991
4.4700,2.3216,-0.5363,-0.8173,-1.6889,-9.5388,1.5254,-0.7377,0.3035,-0.3995
4.4800,1.5771,-0.6910,-1.3627,-1.7166,-9.5236,1.5884,-0.6985,0.4888,-0.4237
4.4900,0.7695,-0.5834,-1.8371,-1.7498,-9.5047,1.6637,-0.6709,0.6309,-0.4638
4.5000,0.1816,-0.2676,-2.2361,-1.7839,-9.4850,1.7380,-0.6448,0.6391,-0.4769
4.5100,-0.1967,-0.0962,-2.7526,-1.8183,-9.4654,1.8081,-0.6015,0.5247,-0.4641
4.5200,-0.3781,-0.0991,-3.2264,-1.8541,-9.4462,1.8711,-0.5571,0.3205,-0.4560
4.5300,-0.3993,-0.2138,-3.4742,-1.8947,-9.4271,1.9258,-0.5169,0.0766,-0.4822
4.5400,-0.2215,-0.5420,-3.5273,-1.9435,-9.4076,1.9719,-0.4637,-0.1107,-0.5425
4.5500,0.2601,-1.1362,-3.5223,-2.0009,-9.3878,2.0087,-0.3786,-0.1659,-0.6087
4.5600,1.0145,-1.7977,-3.5114,-2.0631,-9.3681,2.0376,-0.2822,-0.0407,-0.6584
4.5700,1.8967,-2.2466,-3.4530,-2.1238,-9.3493,2.0613,-0.1796,0.2265,-0.6658
4.5800,2.5962,-2.5231,-3.5115,-2.1773,-9.3328,2.0806,-0.0597,0.4932,-0.6322
4.5900,2.6479,-2.7465,-3.7325,-2.2228,-9.3192,2.0933,0.0705,0.6861,-0.6050
4.6000,2.2459,-2.8655,-4.0082,-2.2598,-9.3088,2.1001,0.1593,0.8911,-0.5327
4.6100,2.5217,-2.9488,-3.9241,-2.2806,-9.3020,2.1077,0.1582,1.1305,-0.3542
4.6200,3.7566,-3.0516,-3.3236,-2.2761,-9.2995,2.1234,0.1012,1.3293,-0.1026
4.6300,4.7372,-3.2940,-2.9095,-2.2417,-9.3020,2.1488,0.0247,1.4053,0.2076
4.6400,5.1311,-3.8696,-2.9769,-2.1763,-9.3103,2.1796,-0.0252,1.3227,0.5471
4.6500,5.3542,-4.6110,-3.4423,-2.0820,-9.3251,2.2080,-0.0145,1.1014,0.8898
4.6600,5.5191,-4.8126,-4.1351,-1.9601,-9.3471,2.2259,0.0514,0.8126,1.2543
4.6700,5.4589,-4.0990,-4.6022,-1.8083,-9.3767,2.2296,0.1479,0.6076,1.6268
4.6800,5.1950,-3.5263,-4.7162,-1.6261,-9.4122,2.2195,0.2658,0.4883,1.9614
4.6900,3.9263,-2.9239,-5.0251,-1.4168,-9.4522,2.1923,0.4281,0.3024,2.2441
4.7000,2.1408,-2.1877,-5.3284,-1.1874,-9.4951,2.1421,0.6446,-0.0369,2.4790
4.7100,1.4033,-2.0129,-5.2685,-0.9467,-9.5390,2.0651,0.9008,-0.5375,2.6520
4.7200,0.2616,-1.7508,-4.6981,-0.7035,-9.5823,1.9584,1.1506,-1.1642,2.7276
4.7300,-1.0979,-1.5625,-3.7179,-0.4678,-9.6227,1.8267,1.3659,-1.8129,2.7034
4.7400,-1.8989,-2.0225,-2.6717,-0.2460,-9.6581,1.6773,1.5417,-2.3724,2.6137
4.7500,-2.8332,-2.8077,-1.3514,-0.0384,-9.6875,1.5183,1.6258,-2.7637,2.4975
4.7600,-3.4687,-3.1899,0.2139,0.1597,-9.7091,1.3652,1.5127,-2.8722,2.4091
4.7700,-3.6948,-3.2131,1.6963,0.3575,-9.7208,1.2391,1.1866,-2.6320,2.3892
4.7800,-3.9596,-3.4740,2.7254,0.5631,-9.7216,1.1539,0.7709,-2.0816,2.3976
4.7900,-4.3519,-3.9352,3.3543,0.7768,-9.7123,1.1077,0.4027,-1.2508,2.3518
4.8000,-4.6486,-4.1632,3.6081,0.9903,-9.6953,1.0859,0.1830,-0.1940,2.1740
4.8100,-4.8507,-4.1680,3.8126,1.1905,-9.6752,1.0655,0.1722,0.8772,1.8493
4.8200,-4.5031,-3.8800,4.4004,1.3642,-9.6568,1.0239,0.3430,1.7560,1.4322
4.8300,-2.9275,-3.1245,5.5712,1.5017,-9.6445,0.9446,0.6917,2.3543,0.9827
4.8400,-0.9204,-2.2336,6.0325,1.6000,-9.6404,0.8163,1.1650,2.4708,0.6145
4.8500,0.2698,-1.3867,4.9057,1.6650,-9.6421,0.6471,1.4978,2.1739,0.3830
4.8600,0.6926,-0.6218,3.7386,1.7060,-9.6455,0.4646,1.5397,1.7970,0.2341
4.8700,0.1164,0.0591,3.2057,1.7289,-9.6483,0.2931,1.4122,1.4096,0.1065
4.8800,-1.6328,0.7946,2.6544,1.7375,-9.6502,0.1404,1.3149,1.0155,0.0215
4.8900,-3.0173,1.2334,1.5475,1.7404,-9.6507,-0.0036,1.3646,0.7002,0.0346
4.9000,-3.3338,1.2996,0.0022,1.7477,-9.6481,-0.1531,1.5127,0.4619,0.1326
4.9100,-3.3214,1.4965,-1.2309,1.7671,-9.6406,-0.3139,1.6647,0.2645,0.2871
4.9200,-3.0233,1.7266,-1.6547,1.8014,-9.6273,-0.4818,1.7326,-0.0162,0.4201
4.9300,-3.2179,2.0155,-1.2306,1.8455,-9.6096,-0.6425,1.6799,-0.5453,0.4380
4.9400,-4.4105,2.4888,-0.5598,1.8916,-9.5903,-0.7832,1.5663,-1.1710,0.3779
4.9500,-4.8622,2.7770,-0.2634,1.9386,-9.5705,-0.9018,1.4604,-1.5922,0.3554
4.9600,-4.0333,2.7149,-0.0894,1.9906,-9.5495,-1.0060,1.4015,-1.7511,0.3944
4.9700,-3.2696,2.4062,0.3109,2.0503,-9.5263,-1.1012,1.3293,-1.8303,0.4566
4.9800,-3.0828,2.2204,1.0907,2.1196,-9.5014,-1.1822,1.1866,-1.9775,0.5364
4.9900,-2.8863,2.4243,2.3044,2.1999,-9.4754,-1.2430,1.0137,-2.1158,0.6149
5.0000,-2.9388,2.6504,3.2563,2.2864,-9.4494,-1.2846,0.8614,-2.1267,0.6178
5.0100,-3.2286,2.6705,3.5028,2.3664,-9.4259,-1.3124,0.7327,-1.9689,0.4807
5.0200,-3.6321,2.9133,3.7284,2.4253,-9.4081,-1.3321,0.6154,-1.7111,0.2405
5.0300,-4.0309,3.4795,3.9225,2.4583,-9.3977,-1.3455,0.4992,-1.5148,0.0029
5.0400,-3.8324,3.9058,3.8556,2.4693,-9.3941,-1.3504,0.3709,-1.4240,-0.1867
5.0500,-3.2778,4.0227,3.6211,2.4635,-9.3965,-1.3443,0.2463,-1.4232,-0.3364
5.0600,-2.3696,3.9737,3.1933,2.4460,-9.4035,-1.3273,0.1589,-1.4808,-0.4378
5.0700,-1.2201,3.7668,2.7526,2.4216,-9.4132,-1.3026,0.1087,-1.5555,-0.4978
5.0800,-0.0453,3.3136,2.3801,2.3932,-9.4246,-1.2728,0.0661,-1.5987,-0.5308
5.0900,1.0070,2.6876,1.9670,2.3623,-9.4368,-1.2393,0.0320,-1.5894,-0.5463
5.1000,1.7936,2.0841,1.5845,2.3293,-9.4497,-1.2031,-0.0181,-1.5612,-0.5551
5.1100,2.5559,1.4029,1.2997,2.2949,-9.4634,-1.1608,-0.1236,-1.5192,-0.5524
5.1200,3.4015,0.5845,0.8273,2.2608,-9.4778,-1.1084,-0.2584,-1.4750,-0.5169
5.1300,4.2213,-0.1916,0.1605,2.2305,-9.4922,-1.0452,-0.3750,-1.4132,-0.4413
5.1400,4.9797,-0.8630,-0.4609,2.2076,-9.5049,-0.9755,-0.4360,-1.3193,-0.3244
5.1500,5.4763,-1.5028,-1.0347,2.1956,-9.5146,-0.9056,-0.4224,-1.2362,-0.1776
5.1600,5.5123,-2.2653,-1.4637,2.1965,-9.5204,-0.8411,-0.3576,-1.2101,-0.0325
5.1700,5.2406,-3.2459,-1.8507,2.2086,-9.5224,-0.7843,-0.2656,-1.2124,0.0709
5.1800,4.5321,-4.3310,-2.6439,2.2259,-9.5220,-0.7393,-0.1119,-1.1743,0.0897
5.1900,3.2194,-5.1528,-3.6613,2.2396,-9.5207,-0.7145,0.1410,-1.0801,0.0116
5.2000,2.4413,-5.4388,-4.1225,2.2416,-9.5198,-0.7199,0.4502,-0.9019,-0.1297
5.2100,1.9217,-5.1592,-4.0262,2.2290,-9.5198,-0.7574,0.6784,-0.6536,-0.2413
5.2200,1.2753,-3.8426,-3.2359,2.2097,-9.5197,-0.8141,0.7410,-0.4637,-0.2404
5.2300,1.1834,-1.5097,-2.0583,2.1929,-9.5183,-0.8735,0.6657,-0.3356,-0.1826
5.2400,1.1333,0.8449,-1.2400,2.1782,-9.5169,-0.9242,0.4987,-0.1566,-0.1869
5.2500,0.8995,2.7834,-0.5253,2.1560,-9.5183,-0.9607,0.2688,0.1008,-0.2944
5.2600,0.4599,4.4759,0.3344,2.1171,-9.5252,-0.9791,-0.0009,0.3985,-0.4708
5.2700,0.0132,5.8498,1.2803,2.0579,-9.5385,-0.9754,-0.3244,0.6916,-0.6499
5.2800,0.0193,6.4141,2.3114,1.9809,-9.5582,-0.9401,-0.7756,0.9403,-0.7850
5.2900,0.4911,5.8780,3.7256,1.8924,-9.5837,-0.8577,-1.3597,1.0760,-0.8503
5.3000,1.1416,4.0612,5.3218,1.8047,-9.6119,-0.7184,-1.9137,1.0175,-0.7638
5.3100,2.3265,0.0288,6.3537,1.7396,-9.6359,-0.5308,-2.2309,0.6383,-0.4322
5.3200,2.8581,-6.8522,7.1796,1.7184,-9.6489,-0.3231,-2.0651,-0.2116,0.0183
5.3300,0.0216,-14.5910,8.0885,1.7339,-9.6508,-0.1423,-1.3854,-1.0021,0.2307
5.3400,-4.2436,-17.6218,8.3202,1.7534,-9.6485,-0.0235,-0.7114,-1.0701,0.1207
5.3500,-5.9726,-12.8329,7.4310,1.7566,-9.6479,0.0465,-0.4610,-0.6904,-0.0571
5.3600,-5.4282,-4.7346,5.8799,1.7437,-9.6498,0.0994,-0.4799,-0.2042,-0.2000
5.3700,-4.4496,1.0413,4.5063,1.7167,-9.6540,0.1485,-0.5695,0.3973,-0.3660
5.3800,-4.2485,4.2720,3.8317,1.6731,-9.6608,0.1982,-0.6961,0.9684,-0.5620
5.3900,-4.7974,5.3474,3.3288,1.6124,-9.6698,0.2518,-0.7799,1.2634,-0.7391
5.4000,-5.1269,4.6684,2.6505,1.5376,-9.6803,0.3080,-0.7817,1.2670,-0.8681
5.4100,-5.0069,3.8353,2.1762,1.4533,-9.6914,0.3636,-0.7244,1.1426,-0.9379
5.4200,-4.7509,2.9762,1.7054,1.3661,-9.7021,0.4143,-0.6144,0.9558,-0.9218
5.4300,-4.4920,2.1756,1.2651,1.2847,-9.7113,0.4560,-0.4689,0.7152,-0.8080
5.4400,-4.0357,1.4635,1.1225,1.2184,-9.7184,0.4878,-0.3434,0.4908,-0.5977
5.4500,-3.4857,0.8839,1.2382,1.1753,-9.7224,0.5133,-0.2953,0.3433,-0.3215
5.4600,-3.1652,0.4715,1.3729,1.1594,-9.7228,0.5412,-0.3643,0.2644,-0.0423
5.4700,-3.1969,-0.0880,1.1666,1.1667,-9.7196,0.5818,-0.5362,0.2436,0.1398
5.4800,-3.6682,-0.9961,0.4387,1.1800,-9.7141,0.6427,-0.7754,0.2324,0.0587
5.4900,-4.2413,-1.9772,-0.5948,1.1672,-9.7095,0.7290,-1.0441,0.2104,-0.3924
5.5000,-4.4591,-2.6469,-1.8981,1.0960,-9.7087,0.8388,-1.2280,0.1780,-1.1135
5.5100,-4.2056,-2.8376,-3.3372,0.9516,-9.7128,0.9568,-1.1826,0.0732,-1.8530
5.5200,-3.1836,-2.4470,-4.3480,0.7426,-9.7201,1.0598,-0.9094,-0.0314,-2.3885
5.5300,-1.6178,-1.4719,-4.5202,0.4955,-9.7276,1.1323,-0.5722,0.0067,-2.6172
5.5400,-0.2032,-0.2466,-4.1041,0.2410,-9.7323,1.1742,-0.3007,0.2304,-2.5830
5.5500,1.0281,0.6478,-3.6468,0.0024,-9.7331,1.1931,-0.0924,0.6383,-2.3777
5.5600,2.1715,1.0365,-3.2337,-0.2036,-9.7312,1.1935,0.1140,1.2063,-2.0384
5.5700,2.7653,1.1448,-2.9832,-0.3642,-9.7287,1.1774,0.3043,1.8384,-1.6063
5.5800,2.8720,1.1991,-2.5847,-0.4754,-9.7270,1.1519,0.3876,2.4240,-1.1851
5.5900,2.5323,1.2531,-1.7411,-0.5453,-9.7260,1.1299,0.3290,2.9086,-0.8917
5.6000,1.6870,1.2622,-1.0907,-0.5915,-9.7242,1.1225,0.1823,3.2807,-0.7992
5.6100,0.8752,1.1114,-0.8175,-0.6363,-9.7202,1.1328,0.0466,3.4970,-0.9320
5.6200,0.2100,0.5662,-0.9186,-0.7005,-9.7132,1.1539,0.0171,3.4708,-1.2155
5.6300,-0.2672,-0.1445,-1.4504,-0.7940,-9.7034,1.1747,0.0702,3.1676,-1.4862
5.6400,-0.3513,-0.6424,-1.8995,-0.9112,-9.6913,1.1897,0.1224,2.6145,-1.5993
5.6500,-0.1135,-0.9244,-1.8854,-1.0366,-9.6775,1.1989,0.1308,1.8937,-1.5089
5.6600,0.2738,-1.0422,-1.5870,-1.1540,-9.6635,1.2052,0.0716,1.1723,-1.2711
5.6700,0.8440,-0.9283,-1.1157,-1.2530,-9.6499,1.2156,-0.0816,0.6307,-0.9887
5.6800,1.5093,-0.5937,-0.4301,-1.3306,-9.6364,1.2400,-0.3041,0.3377,-0.7344
5.6900,2.1046,-0.1453,0.1245,-1.3882,-9.6226,1.2838,-0.5251,0.1944,-0.5270
5.7000,2.4754,0.2621,0.1624,-1.4293,-9.6081,1.3454,-0.6987,0.0837,-0.3679
5.7100,2.5024,0.5436,-0.1622,-1.4596,-9.5929,1.4191,-0.8064,-0.0069,-0.2795
5.7200,2.2141,0.7065,-0.6801,-1.4868,-9.5767,1.4984,-0.8425,-0.0663,-0.2828
5.7300,1.7295,0.7003,-1.2954,-1.5184,-9.5590,1.5776,-0.8288,-0.1129,-0.3507
5.7400,1.2406,0.4852,-1.8445,-1.5585,-9.5397,1.6534,-0.7906,-0.1575,-0.4389
5.7500,0.8616,0.2013,-2.2516,-1.6070,-9.5192,1.7235,-0.7281,-0.1789,-0.5061
5.7600,0.5126,-0.1412,-2.5655,-1.6593,-9.4986,1.7864,-0.6441,-0.1513,-0.5189
5.7700,0.1809,-0.4491,-2.7494,-1.7093,-9.4792,1.8420,-0.5623,-0.0843,-0.4779
5.7800,-0.1542,-0.6068,-2.8307,-1.7525,-9.4614,1.8919,-0.5138,-0.0433,-0.4048
5.7900,-0.6665,-0.7106,-3.0297,-1.7890,-9.4451,1.9387,-0.4970,-0.0861,-0.3431
5.8000,-1.0513,-0.8583,-3.3746,-1.8232,-9.4294,1.9829,-0.4849,-0.1827,-0.3299
5.8100,-1.0898,-1.1610,-3.7393,-1.8611,-9.4134,2.0232,-0.4557,-0.2771,-0.3787
5.8200,-0.8385,-1.6355,-4.0787,-1.9080,-9.3965,2.0578,-0.3930,-0.3148,-0.4918
5.8300,0.0172,-2.1765,-4.4037,-1.9670,-9.3783,2.0850,-0.2923,-0.1976,-0.6364
5.8400,1.6282,-2.6325,-4.5683,-2.0325,-9.3596,2.1063,-0.1693,0.1809,-0.7317
5.8500,3.4125,-2.9099,-4.3780,-2.0911,-9.3422,2.1262,-0.0493,0.7839,-0.7087
5.8600,5.0567,-2.9334,-3.7321,-2.1255,-9.3288,2.1507,0.0280,1.4500,-0.5163
5.8700,5.9760,-2.8916,-3.1279,-2.1214,-9.3223,2.1826,0.0710,1.9350,-0.1837
5.8800,6.1042,-3.0451,-2.7786,-2.0758,-9.3244,2.2172,0.1027,2.0751,0.2041
5.8900,6.0318,-3.6315,-2.5475,-1.9926,-9.3351,2.2481,0.1121,1.8902,0.6100
5.9000,5.4406,-4.5689,-2.8139,-1.8792,-9.3532,2.2699,0.1136,1.4056,0.9900
5.9100,4.6765,-4.9882,-3.3780,-1.7454,-9.3768,2.2793,0.1113,0.7592,1.3151
5.9200,4.3484,-4.4737,-3.8337,-1.5964,-9.4038,2.2771,0.1120,0.2250,1.6041
5.9300,3.9406,-3.6741,-4.4684,-1.4299,-9.4333,2.2649,0.1712,-0.1066,1.8810
5.9400,3.0119,-3.1456,-5.4131,-1.2437,-9.4659,2.2381,0.3269,-0.4093,2.1509
5.9500,2.1282,-2.6594,-6.1194,-1.0390,-9.5019,2.1893,0.5519,-0.7628,2.4012
5.9600,1.6921,-2.3303,-6.2773,-0.8184,-9.5398,2.1159,0.7963,-1.0482,2.6087
5.9700,1.4980,-1.9146,-6.1018,-0.5828,-9.5778,2.0194,1.0335,-1.2284,2.7747
5.9800,1.2745,-1.2915,-5.6631,-0.3339,-9.6137,1.9014,1.2677,-1.4219,2.9029
5.9900,0.5893,-1.1239,-4.9007,-0.0775,-9.6454,1.7630,1.5039,-1.7565,2.9645
6.0000,-0.9080,-1.6152,-3.9531,0.1758,-9.6714,1.6067,1.7093,-2.2396,2.9115
6.0100,-2.9334,-2.8388,-2.8932,0.4140,-9.6901,1.4426,1.7716,-2.6958,2.7311
6.0200,-4.8251,-4.1597,-1.4772,0.6303,-9.6999,1.2924,1.5538,-2.7479,2.4658
6.0300,-5.8761,-4.6119,0.5395,0.8265,-9.6998,1.1794,1.1042,-2.1191,2.1878
6.0400,-5.8896,-4.4896,2.4139,1.0089,-9.6911,1.1079,0.6583,-1.0136,1.9353
6.0500,-5.7572,-4.6203,3.2136,1.1830,-9.6766,1.0616,0.3955,0.2026,1.7368
6.0600,-5.6563,-4.8324,3.4065,1.3526,-9.6594,1.0147,0.3841,1.3088,1.5896
6.0700,-4.8504,-4.6543,3.7468,1.5139,-9.6426,0.9433,0.5735,2.1491,1.3615
6.0800,-3.6293,-3.8449,4.7868,1.6493,-9.6304,0.8356,0.8727,2.5724,0.9687
6.0900,-2.3884,-2.5341,5.8444,1.7402,-9.6259,0.6894,1.2708,2.3485,0.5085
6.1000,-1.6225,-1.3603,5.1074,1.7824,-9.6292,0.5132,1.6274,1.5673,0.1162
6.1100,-1.2854,-0.6915,3.0463,1.7852,-9.6368,0.3271,1.7650,0.7137,-0.1518
6.1200,-1.0624,-0.3960,1.3455,1.7648,-9.6450,0.1508,1.6916,0.2052,-0.2796
6.1300,-0.9823,-0.1374,0.6902,1.7428,-9.6502,0.0151,1.5892,0.1557,-0.2608
6.1400,-0.9127,0.0365,0.6715,1.7347,-9.6517,-0.0366,1.5674,0.2320,-0.2160
6.1500,-1.1963,0.1451,-0.4869,1.7238,-9.6522,-0.1682,1.5811,0.3460,-0.0507
6.1600,-2.7579,0.4151,-1.8310,1.7280,-9.6472,-0.3313,1.6787,0.1859,0.1399
6.1700,-4.6217,1.1930,-1.6319,1.7463,-9.6368,-0.4963,1.7300,-0.3424,0.2106
6.1800,-5.0683,2.0360,-0.7195,1.7706,-9.6234,-0.6483,1.6309,-0.9698,0.2067
6.1900,-4.7548,2.7073,-0.1620,1.7992,-9.6087,-0.7761,1.4716,-1.5134,0.1952
6.2000,-4.8309,3.3260,0.0240,1.8326,-9.5936,-0.8788,1.3248,-2.0150,0.1856
6.2100,-5.0331,3.6663,0.1962,1.8720,-9.5784,-0.9589,1.2108,-2.4369,0.2085
6.2200,-4.9050,3.6554,0.4037,1.9208,-9.5618,-1.0252,1.1640,-2.5696,0.2874
6.2300,-4.2331,3.6711,1.3822,1.9796,-9.5433,-1.0841,1.0930,-2.5222,0.3713
6.2400,-3.4984,3.7146,2.6040,2.0464,-9.5237,-1.1314,0.9376,-2.4966,0.4381
6.2500,-3.2950,3.6444,3.2477,2.1201,-9.5041,-1.1601,0.7541,-2.5500,0.4914
6.2600,-3.1878,3.3987,3.7060,2.1959,-9.4857,-1.1698,0.6142,-2.5863,0.4500
6.2700,-3.2213,3.3144,4.2329,2.2631,-9.4704,-1.1661,0.5122,-2.5318,0.3181
6.2800,-3.2901,3.4357,4.7911,2.3152,-9.4595,-1.1524,0.3901,-2.3872,0.1715
6.2900,-3.2458,3.5241,5.0430,2.3503,-9.4535,-1.1301,0.2529,-2.1100,0.0190
6.3000,-3.2566,3.6462,4.9715,2.3664,-9.4529,-1.1012,0.1173,-1.8085,-0.1441
6.3100,-2.9637,3.7685,4.7314,2.3636,-9.4577,-1.0659,-0.0131,-1.5930,-0.3031
6.3200,-2.2809,3.7191,4.2812,2.3449,-9.4670,-1.0230,-0.1090,-1.5155,-0.4344
6.3300,-1.1986,3.4857,3.8987,2.3137,-9.4797,-0.9758,-0.1445,-1.4521,-0.5351
6.3400,-0.0024,3.0622,3.6635,2.2721,-9.4943,-0.9298,-0.1433,-1.3241,-0.6162
6.3500,0.5546,2.7971,3.5190,2.2215,-9.5103,-0.8879,-0.1456,-1.1765,-0.6787
6.3600,1.1279,2.5083,3.3139,2.1650,-9.5269,-0.8484,-0.1623,-1.0932,-0.6982
6.3700,2.2006,1.8267,2.7229,2.1088,-9.5430,-0.8080,-0.1944,-1.0901,-0.6498
6.3800,3.3632,0.8941,2.0526,2.0612,-9.5570,-0.7643,-0.2323,-1.1072,-0.5114
6.3900,4.7693,-0.3325,1.4687,2.0295,-9.5674,-0.7184,-0.2468,-1.0693,-0.3133
6.4000,6.1084,-1.5792,0.7363,2.0157,-9.5734,-0.6761,-0.2027,-0.9095,-0.1211
6.4100,7.0332,-2.5034,-0.2633,2.0174,-9.5751,-0.6465,-0.0689,-0.6612,0.0495
6.4200,7.6635,-3.1274,-1.5708,2.0326,-9.5724,-0.6387,0.1358,-0.3836,0.1924
6.4300,7.9147,-3.6459,-2.8606,2.0575,-9.5657,-0.6581,0.3897,-0.1894,0.2778
6.4400,7.1914,-4.2130,-4.1342,2.0853,-9.5562,-0.7063,0.6902,-0.1702,0.2593
6.4500,5.2099,-4.6778,-5.5021,2.1053,-9.5460,-0.7816,0.9809,-0.3679,0.0968
6.4600,2.2371,-4.7131,-6.3896,2.1087,-9.5374,-0.8720,1.1078,-0.7010,-0.1148
6.4700,-0.0891,-3.9459,-5.7142,2.1013,-9.5308,-0.9580,1.0196,-0.8652,-0.1668
6.4800,-0.0865,-2.3645,-3.7484,2.0986,-9.5236,-1.0326,0.8935,-0.7107,-0.0476
6.4900,0.7683,-0.6160,-2.2964,2.1059,-9.5143,-1.1014,0.7777,-0.4120,0.0578
6.5000,0.6968,1.1243,-1.4829,2.1153,-9.5049,-1.1628,0.6063,-0.1360,0.0572
6.5100,0.1557,2.8965,-0.7643,2.1170,-9.4986,-1.2102,0.3857,0.0646,-0.0491
6.5200,-0.5732,4.5594,-0.0985,2.1016,-9.4985,-1.2374,0.1068,0.2104,-0.2475
6.5300,-1.4341,6.0506,0.8043,2.0638,-9.5068,-1.2373,-0.2486,0.3764,-0.4688
6.5400,-0.7891,6.4411,2.4345,2.0049,-9.5238,-1.2022,-0.7152,0.6481,-0.6185
6.5500,1.1609,4.7444,4.1085,1.9341,-9.5480,-1.1227,-1.2926,1.0114,-0.6380
6.5600,3.3696,0.4918,5.1103,1.8673,-9.5757,-0.9913,-1.8828,1.2397,-0.4658
6.5700,4.0848,-6.6765,6.2629,1.8277,-9.6004,-0.8071,-2.3525,0.9625,-0.1355
6.5800,-0.6528,-14.6903,7.4274,1.8190,-9.6182,-0.5802,-2.4598,-0.0493,-0.0023
6.5900,-5.6894,-18.4462,7.5874,1.8159,-9.6300,-0.3526,-1.9343,-1.1050,-0.1143
6.6000,-5.5579,-14.5184,6.7938,1.8041,-9.6373,-0.1870,-1.0071,-1.2973,-0.1841
6.6100,-4.2807,-5.8184,6.1653,1.7869,-9.6419,-0.1048,-0.3477,-0.8474,-0.2001
6.6200,-3.7137,1.2207,5.9745,1.7679,-9.6457,-0.0692,-0.2147,-0.3906,-0.2042
6.6300,-3.3581,4.6858,5.5553,1.7451,-9.6500,-0.0407,-0.3345,0.0945,-0.2877
6.6400,-3.4117,6.1592,5.1080,1.7076,-9.6568,-0.0067,-0.5066,0.7011,-0.4950
6.6500,-3.6815,6.4205,4.6751,1.6495,-9.6668,0.0351,-0.6755,1.1431,-0.6962
6.6600,-4.2131,6.1507,4.0011,1.5753,-9.6788,0.0878,-0.8088,1.2825,-0.8390
6.6700,-4.6746,5.4571,3.2420,1.4895,-9.6915,0.1507,-0.8661,1.2185,-0.9505
6.6800,-4.7090,4.9625,2.7948,1.3950,-9.7043,0.2159,-0.8015,1.1068,-1.0189
6.6900,-4.5243,3.7954,2.2688,1.2986,-9.7163,0.2729,-0.6466,0.9608,-0.9932
6.7000,-4.4057,2.1637,1.6514,1.2098,-9.7265,0.3164,-0.4663,0.7318,-0.8666
6.7100,-4.2861,1.2006,1.5416,1.1359,-9.7344,0.3471,-0.3151,0.4617,-0.6766
6.7200,-4.0100,0.1728,1.7997,1.0824,-9.7396,0.3713,-0.2742,0.2171,-0.4374
6.7300,-3.8622,-0.3497,2.0258,1.0526,-9.7417,0.4021,-0.3978,0.0120,-0.1769
6.7400,-3.8104,-0.7464,2.1545,1.0462,-9.7401,0.4541,-0.6643,-0.1481,0.0437
6.7500,-3.8038,-1.4620,2.2224,1.0551,-9.7347,0.5385,-1.0226,-0.2459,0.1161
6.7600,-4.0144,-2.1660,1.7227,1.0496,-9.7278,0.6592,-1.3780,-0.2680,-0.2580
6.7700,-4.5877,-3.1349,0.5247,0.9838,-9.7233,0.8071,-1.5494,-0.3079,-1.0675
6.7800,-4.9778,-3.9946,-1.2998,0.8341,-9.7234,0.9568,-1.4089,-0.4091,-1.9128
6.7900,-4.5080,-3.9719,-3.2128,0.6089,-9.7268,1.0816,-1.0610,-0.4902,-2.5604
6.8000,-3.4621,-3.1608,-4.5898,0.3334,-9.7299,1.1682,-0.6610,-0.4733,-2.9145
6.8100,-2.1340,-2.1333,-5.2829,0.0389,-9.7298,1.2158,-0.3023,-0.2940,-2.9729
6.8200,-0.6816,-1.0369,-5.3431,-0.2459,-9.7248,1.2328,-0.0533,0.1200,-2.7945
6.8300,0.9987,0.1788,-4.7952,-0.4964,-9.7155,1.2327,0.0937,0.7912,-2.4168
6.8400,2.6599,1.2466,-3.8632,-0.6935,-9.7046,1.2258,0.2000,1.5980,-1.9132
6.8500,3.2985,1.9227,-3.0902,-0.8323,-9.6948,1.2185,0.2618,2.3788,-1.4430
6.8600,2.6774,2.4098,-2.5222,-0.9218,-9.6869,1.2183,0.2302,3.0547,-1.0932
6.8700,1.9395,2.6414,-1.8929,-0.9762,-9.6797,1.2327,0.1199,3.5041,-0.8743
6.8800,1.5807,2.3966,-1.4227,-1.0146,-9.6720,1.2621,0.0150,3.5855,-0.8655
6.8900,0.9331,1.6699,-1.4291,-1.0638,-9.6618,1.2992,-0.0269,3.3030,-1.0863
6.9000,0.2696,0.4902,-1.6334,-1.1439,-9.6477,1.3349,-0.0175,2.7066,-1.3812
6.9100,0.1886,-0.7049,-1.6412,-1.2566,-9.6296,1.3628,0.0105,1.9183,-1.5692
6.9200,1.1164,-1.3893,-1.0779,-1.3881,-9.6089,1.3815,0.0082,1.1350,-1.5537
6.9300,2.3033,-1.3861,-0.2944,-1.5180,-9.5872,1.3954,-0.0676,0.5235,-1.3514
6.9400,3.0506,-0.8826,0.2237,-1.6280,-9.5663,1.4151,-0.2457,0.1969,-1.0185
6.9500,3.4867,-0.3363,0.5318,-1.7048,-9.5472,1.4536,-0.5068,0.1399,-0.6219
6.9600,3.3035,-0.1305,0.1511,-1.7438,-9.5303,1.5170,-0.7395,0.2186,-0.2527
6.9700,2.5253,-0.1633,-0.7515,-1.7504,-9.5157,1.5987,-0.8589,0.2840,0.0138
6.9800,1.9941,-0.1878,-1.2601,-1.7382,-9.5026,1.6874,-0.8860,0.2642,0.1247
6.9900,0.9251,0.0327,-1.9285,-1.7240,-9.4890,1.7761,-0.8916,0.1658,0.0750
7.0000,-0.4400,0.2746,-2.9003,-1.7224,-9.4726,1.8634,-0.9039,0.0214,-0.0879
7.0100,-0.7302,0.2785,-3.2893,-1.7409,-9.4522,1.9477,-0.8733,-0.0930,-0.2836
7.0200,-0.6043,-0.2214,-3.8447,-1.7780,-9.4293,2.0239,-0.7746,-0.1596,-0.4370
7.0300,-0.4160,-1.0175,-4.3466,-1.8279,-9.4058,2.0878,-0.6506,-0.2332,-0.5226
7.0400,-0.0242,-1.7225,-4.2566,-1.8841,-9.3832,2.1388,-0.5345,-0.2909,-0.5389
7.0500,0.6220,-2.5245,-4.1577,-1.9393,-9.3628,2.1786,-0.4236,-0.2566,-0.4972
7.0600,1.0316,-3.1868,-4.1679,-1.9879,-9.3454,2.2094,-0.3183,-0.1295,-0.4437
7.0700,1.2322,-3.5195,-4.1650,-2.0287,-9.3308,2.2340,-0.2295,0.0459,-0.4040
7.0800,1.5076,-3.5097,-4.0717,-2.0615,-9.3184,2.2556,-0.1803,0.2234,-0.3565
7.0900,1.7645,-3.2718,-4.1292,-2.0851,-9.3079,2.2770,-0.1472,0.3469,-0.2875
7.1000,2.0864,-3.0366,-4.2997,-2.0997,-9.2999,2.2963,-0.0891,0.4438,-0.2163
7.1100,2.3044,-2.9565,-4.3618,-2.1048,-9.2948,2.3124,-0.0246,0.6124,-0.1514
7.1200,2.6988,-2.8755,-4.2466,-2.0979,-9.2926,2.3275,0.0257,0.8499,-0.0583
7.1300,3.6074,-2.7379,-3.9899,-2.0727,-9.2940,2.3441,0.0449,1.0833,0.1248
7.1400,4.7998,-2.8080,-3.5870,-2.0200,-9.3006,2.3638,0.0513,1.2538,0.4192
7.1500,5.8782,-3.3234,-3.2440,-1.9333,-9.3141,2.3825,0.0934,1.2298,0.7955
7.1600,6.2043,-4.1497,-3.5049,-1.8126,-9.3361,2.3910,0.1758,0.9593,1.2131
7.1700,5.8422,-4.4496,-4.1016,-1.6603,-9.3662,2.3833,0.2722,0.5596,1.6314
7.1800,5.0675,-3.6612,-4.4867,-1.4786,-9.4026,2.3590,0.3611,0.1696,2.0311
7.1900,4.1035,-2.3972,-4.6312,-1.2681,-9.4428,2.3201,0.4573,-0.1844,2.4018
7.2000,3.0001,-1.3936,-4.7871,-1.0332,-9.4844,2.2655,0.6003,-0.5975,2.7027
7.2100,1.6619,-0.8928,-5.2197,-0.7843,-9.5259,2.1896,0.8398,-1.0990,2.8713
7.2200,0.3209,-0.9248,-5.8481,-0.5361,-9.5666,2.0841,1.1716,-1.6491,2.8907
7.2300,-0.8546,-1.2884,-6.1290,-0.2991,-9.6059,1.9465,1.5065,-2.2058,2.8217
7.2400,-1.8263,-1.7840,-5.3598,-0.0769,-9.6419,1.7828,1.7637,-2.7273,2.7119
7.2500,-2.8312,-2.7203,-3.6475,0.1298,-9.6727,1.6046,1.8915,-3.1079,2.5597
7.2600,-4.0210,-4.0291,-1.7059,0.3244,-9.6955,1.4306,1.7770,-3.1207,2.4184
7.2700,-4.7626,-4.5459,0.3437,0.5159,-9.7077,1.2849,1.4139,-2.6398,2.3194
7.2800,-4.9683,-4.3902,2.3129,0.7102,-9.7087,1.1814,0.9745,-1.7675,2.2236
7.2900,-5.1588,-4.8537,3.6118,0.9072,-9.7003,1.1140,0.6186,-0.6808,2.1059
7.3000,-4.8946,-5.6601,4.5782,1.1037,-9.6856,1.0635,0.4583,0.3850,1.9536
7.3100,-3.7502,-5.3267,5.8685,1.2914,-9.6685,1.0068,0.5249,1.1199,1.7303
7.3200,-1.7260,-3.3383,8.0092,1.4583,-9.6525,0.9306,0.6807,1.3640,1.4470
7.3300,-0.0753,-1.0051,9.8571,1.5960,-9.6393,0.8369,0.8396,1.2153,1.1449
7.3400,0.2746,-0.0144,10.3761,1.6975,-9.6308,0.7290,1.0356,0.8264,0.7739
7.3500,0.1335,0.2215,7.8229,1.7593,-9.6279,0.6114,1.1148,0.6262,0.4150
7.3600,-0.0275,0.5339,4.0772,1.7922,-9.6287,0.4935,1.0441,0.8744,0.1983
7.3700,-0.9437,0.8640,1.6453,1.8105,-9.6306,0.3755,1.0183,1.1812,0.0999
7.3800,-2.2424,1.1180,-1.0407,1.8236,-9.6322,0.2484,1.1645,1.2546,0.1021
7.3900,-2.3568,0.9850,-2.7657,1.8409,-9.6315,0.0992,1.4431,1.2605,0.2212
7.4000,-2.4384,1.1980,-2.7006,1.8707,-9.6258,-0.0760,1.6704,1.2438,0.3904
7.4100,-3.5892,1.8743,-2.1040,1.9120,-9.6144,-0.2633,1.7473,0.9348,0.4848
7.4200,-4.5922,2.4493,-1.6035,1.9570,-9.5988,-0.4420,1.6816,0.2885,0.4753
7.4300,-4.7240,2.9054,-0.8747,2.0022,-9.5814,-0.5944,1.5080,-0.4784,0.4485
7.4400,-4.3692,3.1298,-0.2131,2.0517,-9.5629,-0.7129,1.3066,-1.1423,0.4658
7.4500,-3.9313,3.0796,0.1682,2.1088,-9.5434,-0.8025,1.1758,-1.6111,0.5003
7.4600,-3.3831,2.9683,0.7789,2.1735,-9.5225,-0.8750,1.1275,-1.8633,0.5443
7.4700,-2.8130,2.8939,1.8607,2.2463,-9.4995,-0.9393,1.0970,-1.9339,0.6158
7.4800,-2.5531,2.9841,3.1354,2.3284,-9.4739,-0.9955,1.0079,-1.9705,0.7110
7.4900,-2.7094,3.1048,4.1136,2.4210,-9.4462,-1.0366,0.8536,-2.0527,0.8032
7.5000,-2.9404,3.0966,4.4389,2.5205,-9.4176,-1.0596,0.7046,-2.0240,0.8251
7.5100,-3.1048,3.0509,4.5138,2.6143,-9.3907,-1.0714,0.5886,-1.7826,0.7064
7.5200,-3.4811,3.0096,4.5791,2.6871,-9.3694,-1.0786,0.4754,-1.4760,0.4510
7.5300,-4.0758,3.1685,4.5515,2.7294,-9.3570,-1.0802,0.3414,-1.2660,0.1337
7.5400,-4.4419,3.5799,4.3646,2.7407,-9.3546,-1.0728,0.2191,-1.1873,-0.1695
7.5500,-4.2165,3.8934,3.7921,2.7243,-9.3610,-1.0585,0.1652,-1.1448,-0.4456
7.5600,-3.5359,3.9950,2.9352,2.6817,-9.3748,-1.0445,0.1816,-1.0764,-0.7057
7.5700,-2.6532,4.0725,2.1244,2.6154,-9.3945,-1.0357,0.2182,-1.0024,-0.9224
7.5800,-1.6913,3.9110,1.5675,2.5298,-9.4182,-1.0326,0.2275,-0.8755,-1.0831
7.5900,-0.6036,3.5916,1.2796,2.4307,-9.4442,-1.0328,0.1915,-0.7303,-1.1722
7.6000,0.5856,3.3119,1.0387,2.3263,-9.4707,-1.0308,0.1044,-0.6428,-1.1582
7.6100,1.9301,2.8257,0.8361,2.2267,-9.4957,-1.0203,-0.0274,-0.6245,-1.0536
7.6200,3.2577,2.0286,0.6468,2.1406,-9.5180,-0.9972,-0.1560,-0.6616,-0.8745
7.6300,4.6216,0.8200,0.1620,2.0766,-9.5355,-0.9646,-0.2163,-0.6812,-0.5837
7.6400,6.5739,-0.8836,-0.7789,2.0467,-9.5454,-0.9313,-0.1738,-0.6671,-0.1600
7.6500,8.6799,-3.0132,-2.1166,2.0588,-9.5451,-0.9072,-0.0444,-0.5995,0.2773
7.6600,9.6633,-5.3939,-3.4164,2.1031,-9.5360,-0.9013,0.1841,-0.5655,0.4938
7.6700,8.1500,-7.6273,-4.8430,2.1512,-9.5233,-0.9209,0.5170,-0.7359,0.3454
7.6800,4.3053,-8.7011,-6.4035,2.1765,-9.5134,-0.9634,0.7562,-1.0910,0.0061
7.6900,1.4021,-5.4679,-4.5415,2.1801,-9.5079,-1.0081,0.7170,-1.3806,-0.1557
7.7000,0.7759,-2.1705,-1.9843,2.1818,-9.5043,-1.0387,0.5660,-1.3830,-0.0958
7.7100,0.6562,0.0223,-1.1030,2.1895,-9.5001,-1.0606,0.4685,-1.1330,-0.0335
7.7200,0.2459,3.1360,0.4004,2.1968,-9.4962,-1.0798,0.3569,-0.8049,-0.0450
7.7300,-0.2915,4.7812,1.6393,2.1963,-9.4950,-1.0917,0.1802,-0.4957,-0.1238
7.7400,-0.6202,5.8371,2.8399,2.1815,-9.4986,-1.0902,-0.0646,-0.1874,-0.2728
7.7500,-0.6620,6.2803,3.8589,2.1446,-9.5093,-1.0691,-0.3800,0.1573,-0.5130
7.7600,-0.5868,6.0061,4.5633,2.0778,-9.5293,-1.0215,-0.7636,0.4862,-0.8163
7.7700,-0.4030,4.6661,4.8934,1.9796,-9.5582,-0.9413,-1.1620,0.7237,-1.0948
7.7800,0.4315,1.9856,4.9607,1.8594,-9.5926,-0.8280,-1.5040,0.8946,-1.2178
7.7900,3.0344,-3.1185,4.8314,1.7444,-9.6252,-0.6889,-1.7242,1.1114,-0.9422
7.8000,3.9761,-9.5061,4.4885,1.6799,-9.6448,-0.5665,-1.6930,1.1714,-0.4755
7.8100,2.9977,-12.5178,4.2925,1.6666,-9.6498,-0.5188,-1.5936,1.0900,-0.2849
7.8200,-1.2146,-17.2213,4.3753,1.6488,-9.6577,-0.4214,-1.1295,0.7192,-0.0873
7.8300,-4.7387,-16.2089,5.3308,1.6370,-9.6627,-0.3506,-0.5150,0.2553,-0.1328
7.8400,-4.7759,-8.7105,5.8710,1.6214,-9.6665,-0.3177,-0.2428,-0.1005,-0.1660
7.8500,-3.9369,-0.9649,5.2235,1.6094,-9.6693,-0.2902,-0.2641,-0.3283,-0.0841
7.8600,-2.7457,3.4324,4.4959,1.6067,-9.6707,-0.2564,-0.3408,-0.1469,0.0031
7.8700,-2.2582,5.6185,4.2863,1.6067,-9.6716,-0.2219,-0.4096,0.4115,-0.0131
7.8800,-3.0403,6.4396,4.4316,1.5983,-9.6737,-0.1890,-0.5018,0.9617,-0.1442
7.8900,-4.2354,6.2395,4.5595,1.5731,-9.6784,-0.1516,-0.6350,1.2329,-0.3423
7.9000,-4.7385,5.9630,4.5211,1.5278,-9.6863,-0.1026,-0.7550,1.1603,-0.5530
7.9100,-5.1114,5.4464,4.0689,1.4647,-9.6964,-0.0416,-0.7996,0.8692,-0.7129
7.9200,-5.4789,4.3535,3.3171,1.3919,-9.7072,0.0247,-0.7583,0.5536,-0.7574
7.9300,-5.2088,3.2489,2.7387,1.3212,-9.7167,0.0883,-0.6502,0.2510,-0.6800
7.9400,-4.8769,2.2394,2.2715,1.2623,-9.7239,0.1445,-0.5258,-0.0614,-0.5165
7.9500,-4.6131,1.3795,1.9210,1.2214,-9.7283,0.1942,-0.4495,-0.3374,-0.3068
7.9600,-4.1888,0.6155,1.8249,1.2015,-9.7297,0.2447,-0.4852,-0.5494,-0.0840
7.9700,-3.8963,-0.1900,2.0066,1.2003,-9.7280,0.3069,-0.6409,-0.7190,0.0804
7.9800,-4.0269,-1.2346,2.0182,1.2003,-9.7249,0.3915,-0.9104,-0.7959,-0.0804
7.9900,-4.5121,-2.7160,1.3844,1.1584,-9.7246,0.5052,-1.2154,-0.7592,-0.7650
8.0000,-5.0392,-4.2709,0.1384,1.0325,-9.7303,0.6425,-1.4025,-0.6312,-1.7386
8.0100,-4.7291,-5.1343,-1.4241,0.8150,-9.7401,0.7842,-1.3528,-0.4216,-2.5895
8.0200,-3.3995,-4.8609,-3.2119,0.5335,-9.7488,0.9060,-1.0663,-0.1176,-3.0520
8.0300,-1.5284,-3.8696,-4.6775,0.2309,-9.7524,0.9918,-0.6773,0.2911,-3.0859
8.0400,0.5060,-2.5927,-5.2391,-0.0538,-9.7503,1.0401,-0.3118,0.8413,-2.8032
8.0500,2.4625,-0.9989,-5.1016,-0.2941,-9.7443,1.0585,-0.0178,1.5140,-2.3299
8.0600,3.9110,0.5745,-4.4831,-0.4759,-9.7377,1.0557,0.2291,2.1821,-1.7775
8.0700,4.3940,1.6968,-3.6901,-0.5994,-9.7331,1.0373,0.4170,2.7673,-1.2911
8.0800,2.9576,2.5821,-2.3681,-0.6791,-9.7306,1.0119,0.4838,3.2620,-0.9988
8.0900,0.9428,2.9843,-0.9671,-0.7369,-9.7284,0.9924,0.4067,3.6812,-0.9194
8.1000,0.0632,2.6554,-0.2586,-0.7911,-9.7243,0.9906,0.2192,3.8711,-0.9680
8.1100,-0.3921,1.9940,-0.0715,-0.8516,-9.7171,1.0105,0.0189,3.6576,-1.0471
8.1200,-0.7241,1.2363,-0.3140,-0.9234,-9.7069,1.0452,-0.1004,3.0662,-1.1381
8.1300,-0.9681,0.5996,-0.5784,-1.0107,-9.6940,1.0828,-0.1400,2.2286,-1.2288
8.1400,-0.8196,0.0811,-0.6538,-1.1129,-9.6790,1.1159,-0.1580,1.3199,-1.2578
8.1500,-0.2896,-0.3107,-0.5789,-1.2225,-9.6626,1.1434,-0.1984,0.5012,-1.1894
8.1600,0.5489,-0.5918,-0.3341,-1.3285,-9.6455,1.1690,-0.2954,-0.1149,-1.0238
8.1700,1.5049,-0.7079,-0.0042,-1.4210,-9.6284,1.2009,-0.4531,-0.4385,-0.8094
8.1800,2.2982,-0.6187,0.1350,-1.4955,-9.6114,1.2464,-0.6228,-0.4442,-0.6176
8.1900,2.8045,-0.5912,0.0114,-1.5528,-9.5941,1.3079,-0.7469,-0.1911,-0.4902
8.2000,2.8820,-0.7604,-0.3145,-1.5973,-9.5763,1.3828,-0.7898,0.2191,-0.4477
8.2100,2.8133,-0.8883,-0.5689,-1.6346,-9.5577,1.4649,-0.7622,0.6476,-0.4596
8.2200,2.3799,-0.5467,-1.1128,-1.6668,-9.5388,1.5496,-0.7198,0.9463,-0.4657
8.2300,1.6239,-0.0013,-1.9029,-1.6947,-9.5197,1.6343,-0.6964,1.0221,-0.4472
8.2400,1.1369,0.2337,-2.4936,-1.7196,-9.5007,1.7168,-0.6787,0.9050,-0.4142
8.2500,0.7867,0.2077,-3.0402,-1.7432,-9.4822,1.7940,-0.6430,0.6861,-0.3741
8.2600,0.3408,-0.0294,-3.4714,-1.7670,-9.4646,1.8621,-0.5770,0.4085,-0.3398
8.2700,-0.2764,-0.4706,-3.7832,-1.7940,-9.4486,1.9173,-0.4882,0.0863,-0.3286
8.2800,-0.8321,-0.9944,-3.9587,-1.8271,-9.4339,1.9579,-0.4000,-0.2313,-0.3391
8.2900,-1.0260,-1.2546,-4.0210,-1.8679,-9.4200,1.9862,-0.3403,-0.4646,-0.3760
8.3000,-1.1652,-1.4500,-4.0473,-1.9167,-9.4056,2.0077,-0.3192,-0.5142,-0.4475
8.3100,-1.2088,-1.9057,-4.1044,-1.9723,-9.3894,2.0292,-0.3205,-0.3545,-0.5379
8.3200,-0.8754,-2.4255,-4.2283,-2.0313,-9.3714,2.0544,-0.2946,-0.0502,-0.6205
8.3300,-0.2800,-2.9825,-4.4530,-2.0895,-9.3526,2.0816,-0.2068,0.3682,-0.6781
8.3400,0.7430,-3.3851,-4.5450,-2.1406,-9.3349,2.1087,-0.0781,0.9154,-0.6871
8.3500,2.3477,-3.4095,-4.2444,-2.1756,-9.3203,2.1373,0.0432,1.5768,-0.6151
8.3600,4.2835,-3.1224,-3.6028,-2.1841,-9.3107,2.1705,0.1313,2.2046,-0.4293
8.3700,6.0126,-2.7590,-2.8486,-2.1571,-9.3082,2.2076,0.1890,2.5349,-0.1027
8.3800,6.9185,-2.6252,-2.2656,-2.0915,-9.3149,2.2421,0.2009,2.3701,0.3273
8.3900,6.5020,-2.8835,-2.0863,-1.9926,-9.3301,2.2683,0.1404,1.7154,0.7823
8.4000,5.3172,-3.4126,-2.4018,-1.8711,-9.3514,2.2841,0.0457,0.7586,1.1880
8.4100,4.1420,-3.8729,-3.2311,-1.7371,-9.3762,2.2881,-0.0034,-0.1530,1.5066
8.4200,3.4524,-4.0308,-4.2804,-1.5925,-9.4039,2.2793,0.0373,-0.7492,1.7803
8.4300,3.3367,-3.9055,-5.2426,-1.4316,-9.4353,2.2556,0.1750,-1.0733,2.0594
8.4400,3.1144,-3.6916,-6.0798,-1.2485,-9.4710,2.2140,0.3646,-1.2836,2.3447
8.4500,2.4207,-3.3239,-6.4179,-1.0428,-9.5095,2.1540,0.5412,-1.5303,2.5996
8.4600,1.1072,-2.6746,-6.0862,-0.8204,-9.5479,2.0786,0.6875,-1.8965,2.7785
8.4700,-1.0316,-1.9482,-5.4680,-0.5910,-9.5838,1.9890,0.8481,-2.3422,2.8659
8.4800,-2.7903,-1.5795,-4.9543,-0.3636,-9.6162,1.8845,1.0495,-2.8106,2.8626
8.4900,-3.5820,-1.5243,-4.3549,-0.1453,-9.6446,1.7650,1.2490,-3.2170,2.7743
8.5000,-3.8836,-1.4251,-3.2931,0.0611,-9.6684,1.6351,1.3759,-3.4228,2.6435
8.5100,-3.6432,-1.3537,-1.7121,0.2593,-9.6861,1.5065,1.3460,-3.2415,2.5211
8.5200,-3.1807,-1.5898,-0.1158,0.4578,-9.6956,1.3938,1.1579,-2.5883,2.4395
8.5300,-3.0292,-2.3203,1.0374,0.6643,-9.6962,1.3038,0.9109,-1.5685,2.3844
8.5400,-3.2775,-3.5131,2.0269,0.8808,-9.6883,1.2325,0.6910,-0.3307,2.3041
8.5500,-3.5084,-4.7812,3.2753,1.1021,-9.6735,1.1684,0.5585,0.8983,2.1640
8.5600,-3.3565,-5.6138,5.2173,1.3169,-9.6550,1.0980,0.5452,1.7977,1.9240
8.5700,-2.5011,-5.7223,7.7055,1.5083,-9.6364,1.0126,0.6350,2.1715,1.5667
8.5800,-1.8961,-4.5539,9.2506,1.6595,-9.6220,0.9093,0.8260,1.9579,1.1216
8.5900,-1.9330,-2.7112,8.6345,1.7597,-9.6150,0.7877,1.0945,1.3516,0.6509
8.6000,-1.4199,-1.6255,6.7972,1.8104,-9.6157,0.6532,1.2609,0.8350,0.2493
8.6100,-1.2844,-0.6606,4.6911,1.8234,-9.6214,0.5185,1.2339,0.6267,-0.0548
8.6200,-1.8911,0.2693,2.3217,1.8112,-9.6298,0.3910,1.1831,0.5623,-0.2332
8.6300,-1.6233,0.3714,0.0269,1.7916,-9.6378,0.2632,1.2734,0.5240,-0.1723
8.6400,-0.8877,0.2704,-1.7752,1.7893,-9.6410,0.1183,1.5208,0.5730,0.1204
8.6500,-1.2874,0.4454,-2.3682,1.8173,-9.6362,-0.0519,1.7564,0.5482,0.4394
8.6600,-1.9587,0.5932,-2.1403,1.8688,-9.6236,-0.2332,1.7902,0.3075,0.6083
8.6700,-3.3405,1.4012,-1.6225,1.9277,-9.6065,-0.4021,1.6547,-0.1520,0.5891
8.6800,-4.7166,2.2087,-1.1313,1.9810,-9.5888,-0.5443,1.4954,-0.8473,0.4536
8.6900,-5.1169,2.5204,-1.1272,2.0267,-9.5722,-0.6579,1.3505,-1.4535,0.3564
8.7000,-4.8344,3.1700,-0.5321,2.0725,-9.5559,-0.7468,1.1789,-1.6785,0.3714
8.7100,-3.6566,3.5799,0.8344,2.1252,-9.5386,-0.8170,1.0460,-1.7555,0.4472
8.7200,-3.4172,3.5473,1.6891,2.1890,-9.5190,-0.8744,0.9857,-1.9256,0.5632
8.7300,-3.6343,3.5086,2.1674,2.2675,-9.4962,-0.9215,0.9263,-2.0179,0.7031
8.7400,-3.1721,3.7316,2.8629,2.3579,-9.4702,-0.9606,0.8591,-1.9531,0.7876
8.7500,-2.6390,3.9043,3.4317,2.4513,-9.4432,-0.9923,0.7761,-1.8966,0.7683
8.7600,-2.6339,3.9871,3.8697,2.5385,-9.4179,-1.0137,0.6639,-1.8835,0.6629
8.7700,-2.8392,4.0905,4.2145,2.6125,-9.3967,-1.0228,0.5381,-1.8202,0.4963
8.7800,-3.0172,4.2465,4.2617,2.6679,-9.3814,-1.0209,0.3923,-1.6477,0.2971
8.7900,-3.1306,4.4305,4.1552,2.7019,-9.3729,-1.0088,0.2242,-1.4135,0.0959
8.8000,-3.1234,4.5171,3.8901,2.7151,-9.3715,-0.9870,0.0769,-1.2216,-0.0926
8.8100,-2.9401,4.4608,3.2200,2.7096,-9.3760,-0.9586,-0.0036,-1.0934,-0.2632
8.8200,-2.4288,4.2042,2.4340,2.6866,-9.3857,-0.9281,-0.0523,-0.9440,-0.4279
8.8300,-1.5204,3.8918,2.0383,2.6470,-9.3998,-0.8981,-0.0905,-0.7817,-0.5752
8.8400,-0.6057,3.5363,1.8923,2.5930,-9.4176,-0.8690,-0.1157,-0.6969,-0.7001
8.8500,0.4346,2.8108,1.5726,2.5270,-9.4382,-0.8385,-0.1638,-0.6597,-0.8066
8.8600,1.5590,1.8185,1.1297,2.4531,-9.4608,-0.8022,-0.2411,-0.7319,-0.8545
8.8700,2.7865,0.7624,0.5153,2.3798,-9.4834,-0.7549,-0.3255,-0.9466,-0.8058
8.8800,4.6716,-0.4585,-0.4584,2.3175,-9.5033,-0.6966,-0.3725,-1.1256,-0.6458
8.8900,6.8120,-1.9466,-1.7983,2.2758,-9.5176,-0.6361,-0.3281,-1.1387,-0.3728
8.9000,8.5688,-3.7465,-3.3361,2.2634,-9.5238,-0.5864,-0.1912,-0.9704,-0.0205
8.9100,8.9622,-5.7960,-4.8980,2.2813,-9.5212,-0.5596,0.0391,-0.6943,0.2735
8.9200,7.2414,-7.4953,-6.2015,2.3158,-9.5125,-0.5642,0.3461,-0.5011,0.3432
8.9300,4.0275,-7.8596,-6.5898,2.3444,-9.5034,-0.5999,0.6520,-0.5974,0.1644
8.9400,1.3129,-6.3779,-5.0453,2.3526,-9.4978,-0.6529,0.8072,-0.9468,-0.0850
8.9500,0.4603,-3.8196,-2.5034,2.3459,-9.4959,-0.7029,0.7673,-1.2493,-0.1934
8.9600,0.4566,-1.4489,-0.9684,2.3372,-9.4950,-0.7426,0.6754,-1.2813,-0.1714
8.9700,0.3571,0.6842,-0.1232,2.3331,-9.4936,-0.7739,0.5552,-1.1112,-0.1050
8.9800,0.4333,2.6585,0.7458,2.3332,-9.4916,-0.7970,0.3921,-0.7994,-0.0661
8.9900,0.2781,4.2033,1.8034,2.3284,-9.4915,-0.8125,0.2049,-0.3666,-0.1491
9.0000,-0.1147,5.1003,3.0869,2.3064,-9.4965,-0.8173,-0.0447,0.0692,-0.3468
9.0100,-0.2006,5.3374,3.7347,2.2593,-9.5089,-0.8038,-0.3751,0.4719,-0.5970
9.0200,-0.0897,4.3448,4.4460,2.1841,-9.5295,-0.7648,-0.7457,0.8398,-0.8615
9.0300,0.5152,2.1316,4.9989,2.0843,-9.5569,-0.6979,-1.0865,1.1563,-1.0481
9.0400,2.0255,-1.0323,4.7120,1.9750,-9.5863,-0.6064,-1.3708,1.5233,-1.0111
9.0500,3.0546,-2.9722,4.5369,1.8774,-9.6122,-0.4961,-1.5893,1.8979,-0.8109
9.0600,2.0830,-5.7078,4.6825,1.7974,-9.6329,-0.3760,-1.5905,1.9072,-0.6860
9.0700,-1.5738,-10.6340,4.9689,1.7260,-9.6496,-0.2695,-1.1794,1.4678,-0.6808
9.0800,-5.4197,-12.4036,4.7533,1.6561,-9.6635,-0.2048,-0.5382,0.6870,-0.7003
9.0900,-6.7144,-9.0583,4.0454,1.5876,-9.6755,-0.1815,-0.0792,-0.1020,-0.6903
9.1000,-5.4811,-2.9268,3.4686,1.5235,-9.6859,-0.1780,0.0476,-0.2889,-0.6303
9.1100,-2.5079,2.0990,3.6021,1.4655,-9.6949,-0.1760,-0.0769,0.1073,-0.5705
9.1200,-0.6749,4.8219,4.2815,1.4090,-9.7035,-0.1620,-0.3239,0.6152,-0.5876
9.1300,-1.3448,5.9644,4.8263,1.3455,-9.7130,-0.1288,-0.5838,0.9996,-0.6954
9.1400,-2.8803,6.0610,5.0047,1.2705,-9.7236,-0.0752,-0.8046,1.2337,-0.8092
9.1500,-3.6896,5.5710,4.8095,1.1887,-9.7342,-0.0051,-0.9426,1.3408,-0.8362
9.1600,-3.7230,4.8495,4.2271,1.1104,-9.7431,0.0741,-0.9815,1.3198,-0.7579
9.1700,-3.5931,4.1963,3.4382,1.0447,-9.7495,0.1553,-0.9462,1.1696,-0.6051
9.1800,-3.5255,3.5747,2.7305,0.9969,-9.7529,0.2343,-0.8885,0.9451,-0.4038
9.1900,-3.4250,2.7303,2.3104,0.9717,-9.7534,0.3111,-0.8456,0.6655,-0.1449
9.2000,-3.3501,1.4420,2.1317,0.9740,-9.7504,0.3880,-0.8259,0.3341,0.1590
9.2100,-3.5012,-0.2434,2.0696,1.0029,-9.7439,0.4681,-0.8329,-0.0998,0.4131
9.2200,-4.4173,-1.8630,1.7459,1.0482,-9.7344,0.5571,-0.9225,-0.6231,0.5299
9.2300,-5.4345,-3.1165,1.1983,1.0772,-9.7242,0.6674,-1.1640,-0.9769,0.0913
9.2400,-6.1414,-4.4254,-0.7729,1.0248,-9.7193,0.8047,-1.4114,-0.9789,-1.0711
9.2500,-5.7877,-4.8069,-3.4876,0.8489,-9.7221,0.9546,-1.4482,-0.7776,-2.3364
9.2600,-4.0295,-4.1619,-5.0822,0.5687,-9.7275,1.0924,-1.2393,-0.5911,-3.1811
9.2700,-1.7563,-3.5131,-5.9952,0.2349,-9.7285,1.1996,-0.8996,-0.3830,-3.4507
9.2800,0.5464,-2.4294,-6.4790,-0.0957,-9.7222,1.2707,-0.5454,-0.0737,-3.1956
9.2900,2.2722,-0.8828,-6.4600,-0.3797,-9.7106,1.3090,-0.2350,0.3649,-2.6285
9.3000,3.6437,0.6270,-5.6827,-0.5964,-9.6979,1.3253,-0.0388,0.9971,-1.9919
9.3100,4.1851,1.5685,-4.7633,-0.7451,-9.6867,1.3336,0.0600,1.7479,-1.4543
9.3200,3.6381,2.1447,-4.0938,-0.8410,-9.6780,1.3409,0.1430,2.4969,-1.1279
9.3300,2.8141,2.4399,-3.2043,-0.9062,-9.6710,1.3491,0.2031,3.1973,-1.0281
9.3400,2.4729,2.4587,-2.6423,-0.9597,-9.6643,1.3599,0.2395,3.6413,-1.0457
9.3500,2.0748,1.7742,-2.3273,-1.0134,-9.6574,1.3704,0.3015,3.6645,-1.1003
9.3600,1.4661,0.8566,-1.7128,-1.0757,-9.6501,1.3738,0.3893,3.3236,-1.1830
9.3700,1.2611,0.4448,-1.0193,-1.1521,-9.6423,1.3665,0.4481,2.7095,-1.2449
9.3800,1.2088,0.1715,-0.2101,-1.2405,-9.6335,1.3512,0.4297,1.9279,-1.2208
9.3900,1.1981,-0.0080,0.5065,-1.3325,-9.6236,1.3336,0.3207,1.0799,-1.0842
9.4000,1.2818,-0.0082,1.0415,-1.4174,-9.6132,1.3212,0.1127,0.2849,-0.8494
9.4100,1.3695,0.2112,1.4234,-1.4866,-9.6024,1.3240,-0.1950,-0.3201,-0.5687
9.4200,1.3940,0.4421,1.5009,-1.5352,-9.5907,1.3532,-0.5673,-0.6125,-0.3082
9.4300,1.1561,0.4727,1.0628,-1.5640,-9.5770,1.4152,-0.9085,-0.6237,-0.1169
9.4400,0.9243,0.4022,0.6522,-1.5786,-9.5610,1.5042,-1.1112,-0.5423,-0.0215
9.4500,0.5990,0.2099,0.1184,-1.5893,-9.5426,1.6061,-1.1624,-0.4726,-0.0551
9.4600,-0.0607,-0.1325,-0.6031,-1.6096,-9.5213,1.7092,-1.1155,-0.3477,-0.2411
9.4700,-0.5734,-0.4414,-1.0229,-1.6497,-9.4964,1.8066,-0.9997,-0.1435,-0.5105
9.4800,-0.7032,-0.7094,-1.4340,-1.6988,-9.4734,1.8806,-0.8760,0.0266,-0.7077
9.4900,-0.6501,-0.8273,-1.6627,-1.7220,-9.4637,1.9079,-0.8262,0.0849,-0.7656
9.5000,-0.2792,-1.1102,-2.2469,-1.7836,-9.4394,1.9710,-0.7194,0.1814,-0.8373
9.5100,0.5834,-1.4096,-2.9215,-1.8579,-9.4106,2.0387,-0.6287,0.2511,-0.8055
9.5200,1.8446,-1.8006,-3.6587,-1.9220,-9.3841,2.1010,-0.5722,0.3358,-0.6658
9.5300,3.1081,-2.5161,-4.4934,-1.9666,-9.3616,2.1593,-0.5017,0.4310,-0.4454
9.5400,3.7683,-3.4303,-5.3986,-1.9865,-9.3456,2.2097,-0.3747,0.4268,-0.1831
9.5500,3.4993,-4.0593,-6.3587,-1.9843,-9.3379,2.2443,-0.2039,0.2718,0.0531
9.5600,2.6334,-3.9736,-7.0656,-1.9688,-9.3379,2.2579,-0.0211,0.0441,0.1831
9.5700,1.6698,-3.2796,-7.2823,-1.9508,-9.3432,2.2515,0.1487,-0.0670,0.2005
9.5800,1.2496,-2.4669,-6.9804,-1.9323,-9.3520,2.2308,0.2886,0.1133,0.1983
9.5900,1.8632,-1.9320,-6.1745,-1.9029,-9.3641,2.2053,0.3746,0.5349,0.3012
9.6000,3.0796,-1.8120,-4.9603,-1.8457,-9.3808,2.1825,0.4063,0.9683,0.5784
9.6100,4.2698,-2.1015,-3.6365,-1.7481,-9.4037,2.1638,0.4122,1.2483,0.9801
9.6200,5.2907,-2.6575,-2.4106,-1.6062,-9.4326,2.1469,0.4032,1.3288,1.4185
9.6300,5.8727,-2.9363,-1.5516,-1.4237,-9.4658,2.1285,0.3935,1.1999,1.8386
9.6400,5.2295,-2.5961,-1.7831,-1.2073,-9.5013,2.1034,0.4364,0.8726,2.2294
9.6500,3.3979,-2.0129,-2.7725,-0.9629,-9.5380,2.0621,0.5862,0.3039,2.6033
9.6600,0.8640,-1.4932,-3.5595,-0.6999,-9.5751,1.9943,0.8254,-0.5491,2.8863
9.6700,-1.8596,-1.2753,-4.1215,-0.4370,-9.6107,1.8957,1.1084,-1.5851,2.9570
9.6800,-3.7156,-1.5233,-4.4023,-0.1941,-9.6431,1.7676,1.4086,-2.5665,2.8267
9.6900,-4.2680,-2.0777,-3.7334,0.0208,-9.6717,1.6160,1.6523,-3.2318,2.6109
9.7000,-4.2898,-2.8870,-2.1898,0.2127,-9.6952,1.4535,1.7336,-3.4761,2.3995
9.7100,-4.4136,-3.3495,-1.2572,0.3913,-9.7115,1.3004,1.5778,-3.2253,2.2281
9.7200,-4.2348,-4.1128,0.3318,0.5669,-9.7191,1.1739,1.2584,-2.3586,2.0901
9.7300,-3.9024,-5.2619,2.2512,0.7452,-9.7183,1.0765,0.9430,-0.9782,1.9530
9.7400,-3.5057,-5.9116,2.9422,0.9263,-9.7114,0.9954,0.7523,0.6026,1.8013
9.7500,-2.5883,-6.2805,3.9456,1.1072,-9.7009,0.9088,0.7427,2.0331,1.6434
9.7600,-1.2194,-6.1823,5.4568,1.2797,-9.6894,0.7989,0.8840,2.9938,1.4430
9.7700,0.5039,-5.4431,6.3644,1.4332,-9.6785,0.6567,1.1578,3.2664,1.2352
9.7800,1.3843,-4.9062,6.5707,1.5649,-9.6684,0.4807,1.4802,2.9455,1.1017
9.7900,1.2737,-3.0185,6.5266,1.6768,-9.6573,0.2870,1.5691,2.3624,0.9814
9.8000,-0.8638,-0.6647,5.9987,1.7659,-9.6453,0.1119,1.3007,1.5642,0.7395
9.8100,-5.1642,0.0262,4.3917,1.8173,-9.6366,-0.0155,0.9636,0.4475,0.2695
9.8200,-6.5126,0.4918,2.4608,1.8180,-9.6361,-0.0977,0.7946,-0.5730,-0.2353
9.8300,-5.6304,0.7301,1.7815,1.7875,-9.6409,-0.1626,0.8386,-0.7297,-0.3547
9.8400,-2.6550,0.7236,1.1686,1.7650,-9.6432,-0.2476,1.1118,-0.1764,-0.0921
9.8500,0.4461,0.9827,-0.3454,1.7721,-9.6377,-0.3731,1.4632,0.1652,0.2400
9.8600,-0.5211,1.6779,-1.5110,1.8062,-9.6240,-0.5286,1.6687,0.0561,0.4526
9.8700,-2.2050,2.4434,-1.4176,1.8553,-9.6045,-0.6889,1.6543,-0.2298,0.5420
9.8800,-2.8159,3.0461,-0.4462,1.9145,-9.5815,-0.8338,1.4895,-0.5533,0.6245
9.8900,-2.6703,3.3779,0.4172,1.9860,-9.5559,-0.9524,1.2780,-0.9312,0.7131
9.9000,-2.6081,3.3277,0.7905,2.0685,-9.5292,-1.0408,1.0833,-1.4726,0.7425
9.9100,-3.2381,3.2983,0.8709,2.1573,-9.5030,-1.0987,0.9288,-2.0652,0.7018
9.9200,-3.7852,3.4108,1.0748,2.2449,-9.4786,-1.1332,0.8423,-2.3561,0.5982
9.9300,-3.3954,3.2659,1.6336,2.3235,-9.4568,-1.1573,0.8091,-2.3730,0.4832
9.9400,-2.8853,2.9807,2.3754,2.3937,-9.4370,-1.1760,0.7570,-2.3509,0.4185
9.9500,-2.8086,2.8113,3.2456,2.4594,-9.4187,-1.1867,0.6574,-2.2784,0.3871
9.9600,-2.7001,2.8414,4.0147,2.5207,-9.4022,-1.1890,0.5326,-2.0484,0.3648
9.9700,-2.3522,3.1453,4.3892,2.5763,-9.3876,-1.1854,0.3983,-1.6679,0.3441
9.9800,-2.0362,3.6403,4.3611,2.6246,-9.3751,-1.1784,0.2729,-1.2938,0.3030
9.9900,-2.0509,4.1476,4.0326,2.6624,-9.3656,-1.1688,0.1621,-0.9792,0.2067
10.0000,-2.0580,4.5819,3.7454,2.6837,-9.3610,-1.1575,0.0740,-0.6928,0.0313
10.0100,-1.8589,4.8376,3.5245,2.6835,-9.3625,-1.1456,0.0202,-0.5157,-0.1805
10.0200,-1.4413,4.4529,2.9453,2.6626,-9.3700,-1.1332,-0.0070,-0.4572,-0.3802
10.0300,-1.1079,4.0213,2.5152,2.6220,-9.3830,-1.1202,-0.0186,-0.4230,-0.5853
10.0400,-0.6939,3.5025,1.9742,2.5615,-9.4011,-1.1079,-0.0235,-0.3723,-0.7809
10.0500,0.0465,2.6883,1.2367,2.4850,-9.4230,-1.0959,-0.0380,-0.3653,-0.9084
10.0600,0.8319,2.0767,0.8943,2.4006,-9.4466,-1.0806,-0.0862,-0.4225,-0.9511
10.0700,1.7789,1.3150,0.5832,2.3165,-9.4701,-1.0576,-0.1673,-0.5124,-0.9113
10.0800,2.9809,0.3597,0.1042,2.2411,-9.4919,-1.0243,-0.2536,-0.6474,-0.7890
10.0900,4.3508,-0.7734,-0.7551,2.1813,-9.5104,-0.9811,-0.3075,-0.7856,-0.6101
10.1000,5.7046,-2.1129,-2.0200,2.1408,-9.5244,-0.9341,-0.2909,-0.8442,-0.3967
10.1100,6.9984,-3.6495,-3.5128,2.1213,-9.5327,-0.8936,-0.1835,-0.7402,-0.1634
10.1200,7.7699,-5.2928,-5.0294,2.1214,-9.5346,-0.8727,0.0267,-0.4461,0.0476
10.1300,7.0126,-6.3906,-6.1641,2.1348,-9.5307,-0.8821,0.2992,-0.1314,0.1617
10.1400,4.4178,-6.0331,-6.5704,2.1502,-9.5236,-0.9203,0.5290,-0.1225,0.1214
10.1500,1.7145,-4.1586,-5.7306,2.1588,-9.5169,-0.9687,0.5893,-0.5157,-0.0072
10.1600,0.7933,-1.8439,-3.6226,2.1602,-9.5129,-1.0043,0.4692,-0.9193,-0.1086
10.1700,0.8232,-0.0569,-1.6185,2.1566,-9.5120,-1.0202,0.3215,-1.0412,-0.1765
10.1800,0.6785,1.3274,-0.1669,2.1474,-9.5137,-1.0239,0.2196,-0.9815,-0.2332
10.1900,0.5533,2.5150,1.3681,2.1323,-9.5176,-1.0195,0.0831,-0.8262,-0.2779
10.2000,0.3498,3.2191,2.8669,2.1097,-9.5245,-1.0017,-0.1472,-0.5930,-0.3564
10.2100,0.1448,3.2025,4.1093,2.0739,-9.5363,-0.9632,-0.4627,-0.3402,-0.4917
10.2200,0.1277,3.0176,4.6384,2.0221,-9.5539,-0.8955,-0.8593,-0.1181,-0.6271
10.2300,0.4607,2.5377,5.1922,1.9583,-9.5762,-0.7922,-1.2890,0.1415,-0.6912
10.2400,1.3384,1.1268,6.1540,1.8918,-9.5997,-0.6553,-1.6555,0.4865,-0.6212
10.2500,2.6644,-1.5709,6.6429,1.8412,-9.6190,-0.4981,-1.8171,0.8455,-0.3191
10.2600,3.9903,-6.2282,6.6642,1.8244,-9.6289,-0.3477,-1.6054,1.0588,0.0316
10.2700,2.7428,-11.3554,6.0681,1.8281,-9.6317,-0.2372,-1.0497,1.0178,0.0552
10.2800,-1.5083,-13.2289,5.0632,1.8190,-9.6348,-0.1809,-0.4822,0.8019,-0.2177
10.2900,-4.8964,-9.6177,4.3847,1.7813,-9.6421,-0.1625,-0.1911,0.5457,-0.5299
10.3000,-6.2600,-2.8596,4.2201,1.7185,-9.6536,-0.1549,-0.1571,0.4035,-0.7298
10.3100,-5.9732,2.6595,4.2642,1.6432,-9.6668,-0.1460,-0.1906,0.6096,-0.7926
10.3200,-4.1295,5.5393,3.9876,1.5631,-9.6802,-0.1395,-0.2242,1.0971,-0.8290
10.3300,-2.8059,6.8993,3.6103,1.4767,-9.6938,-0.1332,-0.3220,1.4839,-0.9152
10.3400,-3.1310,7.4101,3.6547,1.3809,-9.7081,-0.1159,-0.4893,1.5710,-1.0006
10.3500,-3.9794,6.8602,3.8192,1.2808,-9.7222,-0.0794,-0.6648,1.4017,-1.0007
10.3600,-4.3208,5.5032,3.6712,1.1873,-9.7343,-0.0232,-0.7918,1.0729,-0.8822
10.3700,-4.2308,3.9200,3.2557,1.1115,-9.7432,0.0474,-0.8463,0.6754,-0.6507
10.3800,-4.0257,2.4104,2.8408,1.0633,-9.7480,0.1243,-0.8224,0.2798,-0.3300
10.3900,-3.8565,1.2347,2.4531,1.0481,-9.7483,0.2023,-0.7963,-0.0821,0.0199
10.4000,-3.9380,-0.1901,2.2758,1.0664,-9.7442,0.2845,-0.8370,-0.4230,0.3636
10.4100,-4.0945,-1.1463,2.2277,1.1152,-9.7355,0.3781,-0.9503,-0.7622,0.6618
10.4200,-4.7706,-2.3635,1.6174,1.1810,-9.7226,0.4908,-1.1538,-1.0541,0.6929
10.4300,-6.0465,-4.2671,0.0405,1.2152,-9.7103,0.6303,-1.4168,-1.2189,0.0329
10.4400,-6.6430,-5.0210,-2.2389,1.1496,-9.7062,0.7916,-1.5401,-1.2555,-1.2309
10.4500,-5.7969,-4.7465,-4.3788,0.9560,-9.7129,0.9456,-1.2948,-1.2210,-2.4711
10.4600,-3.8280,-3.8292,-5.3505,0.6596,-9.7255,1.0585,-0.8110,-1.0875,-3.2864
10.4700,-1.4661,-2.4244,-5.2503,0.3097,-9.7357,1.1213,-0.3874,-0.7395,-3.5901
10.4800,1.0793,-0.9356,-4.9006,-0.0423,-9.7379,1.1456,-0.0952,-0.0914,-3.4354
10.4900,3.3838,0.2201,-4.4460,-0.3512,-9.7320,1.1468,0.0931,0.8092,-2.9146
10.5000,4.5664,1.1089,-3.8649,-0.5875,-9.7222,1.1381,0.2224,1.7592,-2.2062
10.5100,4.2113,1.9135,-3.2971,-0.7454,-9.7131,1.1251,0.3509,2.5174,-1.5404
10.5200,2.9431,2.7599,-2.5073,-0.8401,-9.7075,1.1076,0.4634,3.0698,-1.0706
10.5300,1.5464,3.1501,-1.3743,-0.8956,-9.7046,1.0899,0.4745,3.5189,-0.8415
10.5400,0.4615,2.8524,-0.3659,-0.9353,-9.7016,1.0834,0.3398,3.8010,-0.8153
10.5500,-0.0461,2.3611,-0.0252,-0.9783,-9.6959,1.0964,0.1465,3.8166,-0.9415
10.5600,-0.0733,1.6138,-0.2160,-1.0400,-9.6859,1.1270,0.0055,3.5347,-1.1786
10.5700,0.3578,0.5935,-0.6212,-1.1297,-9.6714,1.1643,-0.0310,2.9603,-1.4316
10.5800,1.0605,-0.2166,-0.8970,-1.2465,-9.6531,1.1961,0.0111,2.2051,-1.5854
10.5900,1.7355,-0.7235,-0.6652,-1.3784,-9.6325,1.2172,0.0322,1.4089,-1.5583
10.6000,2.1001,-0.9466,-0.4161,-1.5059,-9.6116,1.2309,-0.0243,0.6526,-1.3108
10.6100,2.3440,-1.0416,-0.2295,-1.6091,-9.5932,1.2450,-0.1783,0.0452,-0.8987
10.6200,2.6280,-0.9967,0.1320,-1.6760,-9.5783,1.2715,-0.4295,-0.2918,-0.4548
10.6300,2.6290,-0.7060,0.4149,-1.7066,-9.5662,1.3209,-0.7178,-0.3800,-0.1026
10.6400,2.0856,-0.3954,0.3742,-1.7113,-9.5548,1.3952,-0.9568,-0.3874,0.0937
10.6500,1.0440,-0.1921,-0.1254,-1.7062,-9.5418,1.4870,-1.0855,-0.4478,0.1167
10.6600,-0.1683,-0.1196,-0.9278,-1.7090,-9.5257,1.5836,-1.0936,-0.5452,-0.0337
10.6700,-1.1796,0.0182,-1.8525,-1.7341,-9.5055,1.6752,-1.0159,-0.5534,-0.3095
10.6800,-1.5324,0.2120,-2.6603,-1.7868,-9.4808,1.7577,-0.8834,-0.3822,-0.6178
10.6900,-1.1883,0.1953,-3.3065,-1.8617,-9.4527,1.8295,-0.7128,-0.1057,-0.8495
10.7000,-0.4159,-0.1275,-3.8535,-1.9468,-9.4239,1.8890,-0.5288,0.1512,-0.9336
10.7100,0.6178,-0.6540,-4.0997,-2.0295,-9.3970,1.9356,-0.3492,0.3538,-0.9043
10.7200,1.5114,-1.4023,-3.9869,-2.1018,-9.3737,1.9709,-0.2028,0.5620,-0.8103
10.7300,2.3095,-2.3245,-3.5582,-2.1580,-9.3548,2.0003,-0.1149,0.8089,-0.6684
10.7400,2.9654,-3.1529,-2.9967,-2.1950,-9.3399,2.0295,-0.0860,1.0179,-0.5117
10.7500,3.0479,-3.7459,-2.6014,-2.2126,-9.3285,2.0624,-0.1073,1.1448,-0.3367
10.7600,2.9752,-4.0568,-2.4485,-2.2114,-9.3205,2.0997,-0.1374,1.1480,-0.1565
10.7700,2.6956,-4.0288,-2.6259,-2.1967,-9.3154,2.1372,-0.1470,1.0140,-0.0363
10.7800,2.0607,-3.5880,-2.9752,-2.1775,-9.3120,2.1715,-0.1458,0.8348,0.0097
10.7900,1.7371,-2.8722,-3.3474,-2.1580,-9.3095,2.2014,-0.1272,0.7519,0.0418
10.8000,3.1665,-2.2796,-3.8514,-2.1316,-9.3091,2.2287,-0.0923,0.8602,0.1627
10.8100,5.1053,-2.4475,-4.2327,-2.0824,-9.3136,2.2559,-0.0478,1.0897,0.4360
10.8200,5.6788,-3.3833,-4.5592,-1.9963,-9.3259,2.2825,-0.0006,1.2697,0.8309
10.8300,5.6235,-4.2012,-5.1171,-1.8677,-9.3467,2.3057,0.0450,1.3159,1.2646
10.8400,5.1426,-4.2624,-5.7742,-1.6996,-9.3747,2.3212,0.1180,1.2276,1.6670
10.8500,4.2345,-3.6479,-6.3916,-1.4985,-9.4085,2.3224,0.2412,0.9595,2.0396
10.8600,3.0577,-2.8219,-6.8930,-1.2709,-9.4469,2.3013,0.4295,0.4752,2.3960
10.8700,1.7398,-2.0649,-7.3014,-1.0249,-9.4890,2.2498,0.6964,-0.2037,2.6799
10.8800,0.4699,-1.5056,-7.5263,-0.7736,-9.5330,2.1623,1.0283,-0.9989,2.8239
10.8900,-0.5097,-1.3783,-7.2332,-0.5299,-9.5771,2.0367,1.3996,-1.8255,2.8501
10.9000,-1.2248,-1.8853,-6.0077,-0.2984,-9.6201,1.8747,1.7594,-2.6263,2.8414
10.9100,-2.0997,-3.1453,-3.8781,-0.0764,-9.6595,1.6843,2.0265,-3.3392,2.8288
10.9200,-3.2374,-4.5232,-1.0678,0.1409,-9.6917,1.4833,2.0757,-3.8119,2.8003
10.9300,-4.1286,-4.9227,1.9276,0.3582,-9.7122,1.3028,1.7591,-3.7079,2.7323
10.9400,-4.7961,-5.0885,4.1060,0.5765,-9.7183,1.1742,1.1602,-2.8928,2.5780
10.9500,-5.3354,-5.9025,4.9795,0.7910,-9.7114,1.1054,0.5670,-1.6428,2.3440
10.9600,-5.3125,-6.5248,5.1802,0.9973,-9.6957,1.0769,0.2012,-0.1667,2.0904
10.9700,-4.3928,-6.2411,5.5289,1.1957,-9.6758,1.0538,0.1714,1.2122,1.8685
10.9800,-2.3252,-4.8972,6.5804,1.3861,-9.6557,1.0034,0.4376,2.0280,1.7025
10.9900,0.2138,-2.6358,8.2712,1.5659,-9.6374,0.9098,0.8416,2.1593,1.5859
11.0000,1.3172,-1.3314,9.2505,1.7323,-9.6205,0.7775,1.1710,1.8904,1.4809
11.0100,1.6335,-0.2972,9.5969,1.8763,-9.6045,0.6276,1.2184,1.7019,1.2043
11.0200,0.7637,1.3129,9.0982,1.9742,-9.5932,0.4879,1.0358,1.4294,0.6162
11.0300,-2.7207,1.6235,6.4385,2.0059,-9.5920,0.3702,0.9289,0.9711,-0.0549
11.0400,-4.8536,1.0507,2.7182,1.9842,-9.6002,0.2578,1.0721,0.7795,-0.4093
11.0500,-3.3216,0.6828,-0.4253,1.9473,-9.6103,0.1211,1.4262,0.9683,-0.3352
11.0600,-1.0825,0.4237,-2.6008,1.9297,-9.6142,-0.0592,1.8617,1.1807,-0.0123
11.0700,-0.6611,0.2414,-3.7342,1.9429,-9.6076,-0.2764,2.1429,1.0120,0.3028
11.0800,-2.1720,0.6992,-3.2376,1.9776,-9.5916,-0.4987,2.1190,0.4350,0.4466
11.0900,-4.0358,1.5312,-1.8185,2.0230,-9.5702,-0.6937,1.9001,-0.3697,0.4893
11.1000,-4.7602,2.1384,-1.1385,2.0791,-9.5459,-0.8476,1.6458,-1.2294,0.5411
11.1100,-4.7760,2.4853,-1.1441,2.1486,-9.5199,-0.9595,1.4069,-1.9426,0.5970
11.1200,-4.5991,2.8099,-0.9216,2.2272,-9.4937,-1.0377,1.2211,-2.2635,0.5876
11.1300,-4.1229,3.0416,-0.1467,2.3049,-9.4686,-1.0962,1.1110,-2.3083,0.5203
11.1400,-3.8919,3.0893,0.8287,2.3799,-9.4442,-1.1453,1.0620,-2.3117,0.5189
11.1500,-3.9836,2.9630,1.9408,2.4595,-9.4188,-1.1851,0.9613,-2.3905,0.5842
11.1600,-4.1684,2.8755,3.0308,2.5319,-9.3974,-1.2029,0.7799,-2.5291,0.6289
11.1700,-4.3140,2.9164,3.4643,2.5624,-9.3890,-1.2039,0.6896,-2.5845,0.6430
11.1800,-4.5359,3.2017,4.0326,2.6386,-9.3689,-1.1956,0.5292,-2.5323,0.6368
11.1900,-4.4590,3.5400,4.3404,2.7227,-9.3474,-1.1756,0.4147,-2.2423,0.5369
11.2000,-4.2902,3.9168,4.6434,2.7873,-9.3310,-1.1544,0.3309,-1.8399,0.3271
11.2100,-4.2858,4.1974,4.7645,2.8246,-9.3222,-1.1351,0.2465,-1.4549,0.0637
11.2200,-4.0311,4.6605,4.5758,2.8323,-9.3220,-1.1177,0.1787,-1.1777,-0.2117
11.2300,-3.4077,5.1134,4.1149,2.8129,-9.3298,-1.1014,0.1454,-1.0528,-0.4568
11.2400,-2.5451,5.0958,3.6807,2.7713,-9.3442,-1.0841,0.0996,-0.9995,-0.6657
11.2500,-1.3700,5.0379,3.2757,2.7090,-9.3647,-1.0646,0.0417,-0.8823,-0.8748
11.2600,-0.0573,4.7519,2.8352,2.6260,-9.3904,-1.0448,0.0021,-0.7507,-1.0592
11.2700,1.2576,4.1900,2.4593,2.5272,-9.4197,-1.0245,-0.0406,-0.6708,-1.1754
11.2800,2.6950,3.3750,2.1766,2.4211,-9.4500,-1.0017,-0.1026,-0.6325,-1.1867
11.2900,4.1727,2.2806,1.9769,2.3186,-9.4787,-0.9727,-0.1926,-0.6443,-1.0822
11.3000,5.8623,0.8025,1.4759,2.2316,-9.5034,-0.9345,-0.2842,-0.7056,-0.8588
11.3100,8.2430,-1.2864,0.3373,2.1726,-9.5215,-0.8888,-0.3273,-0.7272,-0.4922
11.3200,10.7460,-4.1474,-1.6913,2.1542,-9.5297,-0.8452,-0.2504,-0.6304,-0.0101
11.3300,11.2094,-7.3109,-4.2615,2.1788,-9.5263,-0.8194,-0.0134,-0.5020,0.3978
11.3400,8.1071,-9.4988,-6.4961,2.2269,-9.5149,-0.8233,0.3440,-0.5738,0.4622
11.3500,3.1022,-9.7436,-7.7023,2.2637,-9.5031,-0.8582,0.7338,-0.9689,0.1367
11.3600,0.2944,-7.8343,-6.3097,2.2691,-9.4968,-0.9119,0.9267,-1.4085,-0.2243
11.3700,0.8234,-4.5557,-3.1513,2.2576,-9.4944,-0.9638,0.8412,-1.5333,-0.2651
11.3800,1.6180,-2.7675,-1.6241,2.2554,-9.4909,-1.0029,0.6622,-1.3152,-0.0694
11.3900,1.6261,-1.4519,-1.2227,2.2681,-9.4847,-1.0328,0.4879,-0.8830,0.0810
11.4000,1.2250,0.9557,-0.4559,2.2835,-9.4785,-1.0554,0.2798,-0.4269,0.0823
11.4100,0.1425,3.1313,0.4728,2.2883,-9.4763,-1.0653,0.0183,-0.0020,-0.0492
11.4200,-1.0485,5.0815,1.6362,2.2688,-9.4816,-1.0587,-0.2769,0.4594,-0.3223
11.4300,-1.9501,6.3282,2.7720,2.2140,-9.4976,-1.0302,-0.6484,0.8485,-0.6822
11.4400,-2.4061,6.6057,3.9573,2.1218,-9.5250,-0.9679,-1.1261,1.1958,-1.0260
11.4500,-2.0183,5.9008,5.3024,1.9974,-9.5616,-0.8643,-1.6258,1.5897,-1.2826
11.4600,-1.1024,4.0597,6.2147,1.8580,-9.6014,-0.7201,-2.0398,1.8412,-1.2688
11.4700,0.6508,0.2151,6.7112,1.7493,-9.6334,-0.5452,-2.2164,1.7568,-0.6729
11.4800,4.1286,-7.1549,7.2734,1.7116,-9.6487,-0.3689,-1.8541,1.0484,-0.0009
11.4900,2.7328,-15.5751,7.4807,1.7157,-9.6523,-0.2389,-1.0190,0.1709,0.0537
11.5000,-2.8745,-18.0125,7.8047,1.7092,-9.6550,-0.1722,-0.3768,-0.3154,-0.1957
11.5100,-4.7202,-11.9103,7.8404,1.6823,-9.6603,-0.1386,-0.2096,-0.5161,-0.3509
11.5200,-4.1260,-3.3187,6.4218,1.6456,-9.6670,-0.1069,-0.3165,-0.3180,-0.4073
11.5300,-3.0127,2.4653,5.1064,1.6037,-9.6744,-0.0648,-0.5297,0.2585,-0.4614
11.5400,-2.3129,5.5439,4.5357,1.5543,-9.6826,-0.0131,-0.7149,0.9143,-0.5531
11.5500,-2.8268,6.6649,3.9238,1.4951,-9.6918,0.0460,-0.8519,1.3161,-0.6692
11.5600,-4.0316,6.4255,3.5477,1.4249,-9.7018,0.1138,-0.9330,1.3869,-0.7853
11.5700,-4.7055,5.1084,2.9416,1.3465,-9.7118,0.1867,-0.9306,1.3248,-0.8460
11.5800,-4.4578,3.7974,2.2372,1.2686,-9.7207,0.2580,-0.8675,1.2192,-0.7864
11.5900,-3.9389,2.9851,1.9664,1.2038,-9.7270,0.3246,-0.7844,1.0452,-0.5865
11.6000,-3.4457,2.0002,1.8146,1.1650,-9.7295,0.3868,-0.7151,0.8261,-0.2612
11.6100,-3.3440,0.8379,1.7357,1.1609,-9.7274,0.4463,-0.6757,0.5940,0.1188
11.6200,-3.8886,-0.3948,1.5379,1.1913,-9.7207,0.5069,-0.6791,0.3366,0.4478
11.6300,-5.1034,-1.7434,0.8110,1.2461,-9.7102,0.5722,-0.6966,-0.0081,0.6303
11.6400,-6.7849,-3.3810,-0.3698,1.3020,-9.6983,0.6453,-0.7507,-0.4421,0.4751
11.6500,-8.1567,-5.1143,-1.5942,1.3050,-9.6916,0.7326,-0.8926,-0.7168,-0.4165
11.6600,-8.3550,-5.5794,-2.7742,1.1890,-9.6977,0.8366,-1.0332,-0.7436,-1.8626
11.6700,-6.8557,-4.3339,-3.7590,0.9341,-9.7146,0.9465,-1.0491,-0.5935,-3.1835
11.6800,-3.9585,-2.8691,-4.3264,0.5751,-9.7313,1.0485,-0.9528,-0.1834,-3.9928
11.6900,-0.6602,-1.8323,-4.7024,0.1734,-9.7371,1.1341,-0.7762,0.5332,-4.1717
11.7000,2.3059,-0.9546,-5.0399,-0.2085,-9.7292,1.1988,-0.5049,1.4658,-3.8071
11.7100,4.2258,-0.0196,-5.0733,-0.5239,-9.7128,1.2403,-0.1704,2.3800,-3.0994
11.7200,4.7833,1.0298,-4.7236,-0.7529,-9.6959,1.2587,0.1702,3.1501,-2.3090
11.7300,4.3287,1.8975,-3.9827,-0.9003,-9.6837,1.2584,0.4252,3.8069,-1.6403
11.7400,3.3892,2.2993,-2.8761,-0.9851,-9.6764,1.2512,0.4970,4.3903,-1.1943
11.7500,2.3573,2.1862,-1.7359,-1.0319,-9.6709,1.2562,0.3409,4.8239,-0.9924
11.7600,1.3793,1.7149,-1.3436,-1.0656,-9.6630,1.2886,0.0488,4.9077,-1.0114
11.7700,0.9361,1.4385,-1.4887,-1.1094,-9.6498,1.3484,-0.2034,4.4628,-1.1876
11.7800,0.5333,1.1849,-1.8363,-1.1794,-9.6313,1.4191,-0.2808,3.5237,-1.4036
11.7900,0.0305,0.6498,-2.4386,-1.2806,-9.6094,1.4784,-0.1915,2.3246,-1.5535
11.8000,0.1902,0.1677,-2.7198,-1.4065,-9.5863,1.5134,-0.0663,1.1385,-1.5685
11.8100,0.9701,-0.2190,-2.3732,-1.5411,-9.5636,1.5259,-0.0182,0.1826,-1.4070
11.8200,2.1282,-0.5205,-1.5496,-1.6643,-9.5427,1.5280,-0.0968,-0.4373,-1.0895
11.8300,3.1966,-0.6187,-0.6527,-1.7579,-9.5247,1.5358,-0.2911,-0.6955,-0.6638
11.8400,4.0324,-0.4670,0.0152,-1.8100,-9.5105,1.5635,-0.5551,-0.6649,-0.2001
11.8500,4.3486,-0.1886,0.2862,-1.8193,-9.4994,1.6186,-0.8212,-0.5305,0.1904
11.8600,3.6747,0.0387,0.0088,-1.7974,-9.4896,1.6983,-1.0203,-0.4467,0.4127
11.8700,2.2593,0.1746,-0.6810,-1.7643,-9.4785,1.7925,-1.1154,-0.5017,0.4276
11.8800,0.5470,0.2193,-1.5667,-1.7419,-9.4640,1.8885,-1.0970,-0.6587,0.2472
11.8900,-0.9694,0.0801,-2.6029,-1.7459,-9.4455,1.9758,-0.9909,-0.7341,-0.0474
11.9000,-1.6663,-0.2950,-3.5603,-1.7790,-9.4233,2.0508,-0.8561,-0.6927,-0.3357
11.9100,-1.6187,-0.7545,-4.2009,-1.8345,-9.3987,2.1136,-0.7207,-0.6073,-0.5351
11.9200,-1.1157,-1.2265,-4.5324,-1.9019,-9.3736,2.1649,-0.5758,-0.4490,-0.6445
11.9300,-0.2270,-1.7300,-4.6651,-1.9728,-9.3493,2.2063,-0.4335,-0.1764,-0.7086
11.9400,0.7826,-2.2889,-4.6381,-2.0409,-9.3266,2.2403,-0.2960,0.1683,-0.7343
11.9500,1.6485,-2.8786,-4.5416,-2.1010,-9.3063,2.2690,-0.1667,0.5111,-0.7080
11.9600,2.4422,-3.2519,-4.3309,-2.1493,-9.2893,2.2935,-0.0552,0.7883,-0.6424
11.9700,2.9411,-3.2600,-4.1556,-2.1851,-9.2761,2.3127,0.0500,0.9449,-0.5599
11.9800,3.3235,-2.9413,-3.9598,-2.2100,-9.2670,2.3257,0.1236,0.9926,-0.4507
11.9900,4.1831,-2.5600,-3.6040,-2.2197,-9.2623,2.3352,0.1405,0.9689,-0.2356
12.0000,4.9392,-2.4573,-3.4666,-2.2044,-9.2640,2.3428,0.1472,0.8989,0.0981
12.0100,4.9975,-2.8496,-3.4209,-2.1587,-9.2741,2.3455,0.1900,0.7598,0.4625
12.0200,4.7779,-3.6219,-3.1842,-2.0831,-9.2927,2.3397,0.2283,0.5376,0.8306
12.0300,4.8458,-4.1699,-2.8059,-1.9772,-9.3188,2.3273,0.2166,0.3243,1.2222
12.0400,5.0710,-4.0976,-2.6327,-1.8367,-9.3508,2.3137,0.1870,0.2335,1.6391
12.0500,4.6646,-3.6511,-3.1851,-1.6570,-9.3876,2.2994,0.2103,0.2140,2.0581
12.0600,3.3110,-3.1839,-4.2931,-1.4407,-9.4284,2.2774,0.3136,0.0713,2.4246
12.0700,1.6802,-2.8176,-5.4098,-1.1995,-9.4714,2.2379,0.5009,-0.3079,2.6820
12.0800,0.5272,-2.4306,-6.0671,-0.9498,-9.5149,2.1721,0.7605,-0.8521,2.7930
12.0900,-0.1297,-2.0678,-5.9828,-0.7061,-9.5576,2.0754,1.0638,-1.4555,2.7858
12.1000,-0.6342,-2.1454,-5.2293,-0.4747,-9.5987,1.9470,1.3865,-2.0694,2.7519
12.1100,-1.2975,-2.9088,-4.0103,-0.2528,-9.6377,1.7891,1.6884,-2.6456,2.7462
12.1200,-2.1625,-4.0972,-2.5123,-0.0342,-9.6726,1.6092,1.9018,-3.0901,2.7616
12.1300,-2.7765,-4.7612,-0.5314,0.1883,-9.6996,1.4254,1.8753,-3.2083,2.7967
12.1400,-3.2430,-4.7125,1.7058,0.4221,-9.7145,1.2656,1.5444,-2.8372,2.8339
12.1500,-3.6646,-4.6259,2.8210,0.6669,-9.7151,1.1513,1.0444,-1.9773,2.7681
12.1600,-4.4518,-5.0388,3.5808,0.9112,-9.7032,1.0834,0.5599,-0.7250,2.5383
12.1700,-5.5392,-5.7885,4.6085,1.1429,-9.6831,1.0439,0.2617,0.6755,2.2125
12.1800,-6.0918,-5.9965,5.0616,1.3524,-9.6607,1.0014,0.2995,1.9186,1.8064
12.1900,-6.0575,-5.4370,5.1676,1.5266,-9.6426,0.9226,0.6289,2.7320,1.3054
12.2000,-4.8233,-3.9881,5.9503,1.6520,-9.6333,0.7960,1.0431,2.8692,0.7682
12.2100,-2.9871,-1.6344,7.7633,1.7221,-9.6331,0.6327,1.4116,2.2208,0.3141
12.2200,-1.8264,0.1227,8.2227,1.7513,-9.6379,0.4551,1.5852,1.3133,0.1226
12.2300,-0.0267,0.6023,6.5783,1.7665,-9.6417,0.2861,1.4999,0.8101,0.1104
12.2400,0.9808,0.8013,4.3589,1.7774,-9.6430,0.1344,1.3594,0.7357,0.0792
12.2500,-0.1404,0.8271,1.9474,1.7867,-9.6422,-0.0122,1.3908,0.9148,0.1250
12.2600,-0.6681,0.4361,-0.4473,1.8062,-9.6369,-0.1752,1.6134,1.0249,0.3064
12.2700,-1.0729,0.0473,-1.9481,1.8425,-9.6248,-0.3594,1.8220,0.7845,0.4826
12.2800,-2.5957,0.3342,-1.9475,1.8913,-9.6065,-0.5478,1.8475,0.2269,0.5547
12.2900,-4.0615,1.2939,-1.1062,1.9456,-9.5845,-0.7182,1.7099,-0.4194,0.5436
12.3000,-4.5327,2.2863,-0.4295,2.0023,-9.5614,-0.8585,1.5041,-1.0518,0.5081
12.3100,-4.5514,2.9532,-0.2460,2.0623,-9.5384,-0.9657,1.3138,-1.6512,0.4797
12.3200,-4.6726,3.1637,-0.2274,2.1265,-9.5160,-1.0449,1.1818,-2.1041,0.4599
12.3300,-4.5821,3.0649,-0.0423,2.1949,-9.4937,-1.1051,1.0886,-2.2909,0.4764
12.3400,-3.5367,2.8484,1.0431,2.2697,-9.4699,-1.1564,1.0375,-2.1406,0.5650
12.3500,-2.6523,2.6971,2.0439,2.3516,-9.4439,-1.2041,0.9657,-2.0175,0.6355
12.3600,-2.9752,3.0619,3.2590,2.4375,-9.4178,-1.2380,0.7802,-2.1076,0.6332
12.3700,-3.1697,3.5355,4.4679,2.5226,-9.3940,-1.2482,0.5679,-2.1769,0.5982
12.3800,-3.0966,3.8151,4.6363,2.6033,-9.3733,-1.2380,0.3928,-2.1106,0.5449
12.3900,-3.0873,4.2107,4.9749,2.6745,-9.3562,-1.2156,0.2453,-1.8137,0.4465
12.4000,-3.0768,4.6139,5.1674,2.7281,-9.3441,-1.1895,0.1243,-1.3660,0.2794
12.4100,-3.0438,4.8925,5.0435,2.7585,-9.3383,-1.1648,0.0310,-0.9684,0.0733
12.4200,-2.9946,5.0377,4.7003,2.7650,-9.3394,-1.1406,-0.0480,-0.7519,-0.1445
12.4300,-2.8488,5.2231,4.1424,2.7501,-9.3472,-1.1119,-0.1267,-0.7442,-0.3504
12.4400,-2.3034,5.2138,3.5108,2.7159,-9.3613,-1.0764,-0.1799,-0.7788,-0.5557
12.4500,-1.6597,4.8069,2.8806,2.6617,-9.3813,-1.0369,-0.1979,-0.8192,-0.7752
12.4600,-0.8368,4.1285,2.3282,2.5878,-9.4065,-0.9949,-0.2113,-0.8928,-0.9697
12.4700,0.2782,3.2742,1.9077,2.4978,-9.4353,-0.9501,-0.2417,-0.9302,-1.1087
12.4800,1.5552,2.2823,1.4854,2.3978,-9.4659,-0.9019,-0.2876,-0.9505,-1.1683
12.4900,3.1695,1.0521,0.9838,2.2965,-9.4959,-0.8493,-0.3360,-0.9874,-1.1221
12.5000,5.1864,-0.4398,0.2738,2.2048,-9.5225,-0.7925,-0.3764,-1.0131,-0.9505
12.5100,7.8416,-2.3503,-0.9485,2.1367,-9.5428,-0.7344,-0.3743,-0.9729,-0.6075
12.5200,10.5883,-4.7597,-2.7403,2.1078,-9.5530,-0.6832,-0.2843,-0.7732,-0.1162
12.5300,11.2972,-7.3095,-4.8200,2.1224,-9.5519,-0.6526,-0.0668,-0.4110,0.3096
12.5400,10.7451,-8.5589,-5.8986,2.1613,-9.5429,-0.6569,0.2937,-0.1676,0.4127
12.5500,8.5657,-9.2610,-6.7473,2.1922,-9.5328,-0.6995,0.6886,-0.3483,0.1662
12.5600,3.9865,-9.2669,-7.7637,2.1964,-9.5270,-0.7621,0.8538,-0.9073,-0.1609
12.5700,0.5113,-6.6376,-6.7097,2.1834,-9.5261,-0.8105,0.6565,-1.3727,-0.2690
12.5800,-0.0968,-2.8624,-4.0420,2.1734,-9.5269,-0.8278,0.3626,-1.4211,-0.1713
12.5900,0.4664,-0.0214,-2.2784,2.1739,-9.5270,-0.8248,0.1730,-1.1512,-0.0469
12.6000,0.3448,1.7363,-1.3549,2.1816,-9.5263,-0.8123,-0.0021,-0.7713,0.0347
12.6100,-0.1521,3.0683,0.1519,2.1912,-9.5261,-0.7886,-0.2379,-0.4091,0.0582
12.6200,-0.4929,3.8438,1.8785,2.1940,-9.5289,-0.7459,-0.5675,-0.0321,-0.0557
12.6300,-0.6896,3.6957,3.6173,2.1753,-9.5383,-0.6753,-0.9879,0.3625,-0.3234
12.6400,-0.7057,2.7379,5.2724,2.1277,-9.5557,-0.5715,-1.4108,0.7120,-0.5891
12.6500,-0.0291,1.1085,6.3052,2.0607,-9.5774,-0.4372,-1.7435,1.0051,-0.6878
12.6600,1.2827,-1.9530,6.8771,1.9969,-9.5966,-0.2825,-1.9157,1.2630,-0.5150
12.6700,2.4719,-6.9166,7.5983,1.9600,-9.6076,-0.1302,-1.7085,1.2888,-0.1997
12.6800,1.1913,-11.6144,7.3951,1.9480,-9.6111,-0.0197,-0.9918,0.9836,-0.0680
12.6900,-2.2984,-12.0069,5.6792,1.9364,-9.6135,0.0221,-0.2166,0.5813,-0.1931
12.7000,-4.5805,-6.9590,4.2383,1.9067,-9.6195,0.0157,0.1283,0.2228,-0.4275
12.7100,-5.1560,-0.3287,3.7987,1.8548,-9.6296,0.0002,0.1096,0.0971,-0.6338
12.7200,-4.3337,4.1361,3.7373,1.7873,-9.6423,-0.0072,-0.0428,0.3714,-0.7473
12.7300,-2.8210,6.5612,3.9745,1.7120,-9.6560,-0.0039,-0.2510,0.8873,-0.8000
12.7400,-2.8347,7.2948,4.0937,1.6314,-9.6699,0.0140,-0.4982,1.3082,-0.8623
12.7500,-3.9346,6.4582,3.8955,1.5435,-9.6841,0.0522,-0.7410,1.4745,-0.9534
12.7600,-4.5095,4.8681,3.5073,1.4487,-9.6982,0.1116,-0.9126,1.4190,-1.0063
12.7700,-4.8079,3.0009,2.8744,1.3538,-9.7108,0.1852,-0.9514,1.1541,-0.9600
12.7800,-5.0288,1.3851,2.2085,1.2694,-9.7205,0.2614,-0.8443,0.7054,-0.7904
12.7900,-4.9994,0.2293,1.7065,1.2067,-9.7265,0.3283,-0.6313,0.1714,-0.5046
12.8000,-4.8099,-0.4867,1.5528,1.1734,-9.7287,0.3810,-0.4382,-0.3247,-0.1714
12.8100,-4.8186,-0.9945,1.6587,1.1691,-9.7273,0.4267,-0.3943,-0.7033,0.1173
12.8200,-4.9450,-1.2472,1.7030,1.1858,-9.7227,0.4811,-0.5307,-0.9922,0.2888
12.8300,-5.2531,-2.3510,1.2427,1.2041,-9.7161,0.5616,-0.8708,-1.1418,0.1384
12.8400,-5.6459,-3.8831,0.1590,1.1892,-9.7117,0.6588,-1.2598,-1.0999,-0.4194
12.8500,-5.7426,-4.3143,-0.4958,1.1681,-9.7108,0.7070,-1.4196,-1.0428,-0.7792
12.8600,-5.5711,-5.0148,-2.4449,1.0583,-9.7122,0.8411,-1.6158,-0.8879,-1.7275
12.8700,-4.5078,-5.1095,-4.7161,0.8309,-9.7188,1.0000,-1.4106,-0.7080,-2.7340
12.8800,-2.1866,-4.1767,-5.8058,0.5260,-9.7270,1.1177,-0.8997,-0.3951,-3.3141
12.8900,0.5800,-2.5252,-5.5863,0.1930,-9.7315,1.1844,-0.4619,0.1441,-3.3909
12.9000,2.7477,-0.8996,-5.0195,-0.1182,-9.7291,1.2163,-0.1974,0.7885,-3.0311
12.9100,4.1806,0.4308,-4.6302,-0.3710,-9.7216,1.2298,-0.0086,1.4951,-2.3975
12.9200,4.4461,1.4608,-4.2581,-0.5493,-9.7134,1.2306,0.1790,2.1927,-1.7236
12.9300,3.6888,2.1832,-3.4419,-0.6600,-9.7078,1.2210,0.3253,2.7703,-1.1941
12.9400,3.1946,2.4727,-2.8362,-0.7233,-9.7051,1.2071,0.3730,3.1096,-0.8657
12.9500,2.5561,2.5428,-2.4230,-0.7620,-9.7036,1.1957,0.3309,3.1380,-0.7278
12.9600,1.3293,2.7037,-1.7652,-0.7978,-9.7011,1.1926,0.2082,2.9028,-0.7690
12.9700,0.1655,2.7168,-1.1003,-0.8476,-9.6956,1.2029,0.0396,2.4785,-0.9223
12.9800,-0.5540,2.2932,-0.5338,-0.9183,-9.6864,1.2241,-0.0644,1.8855,-1.0696
12.9900,-0.5807,1.4886,-0.5207,-1.0080,-9.6747,1.2456,-0.0645,1.1755,-1.1561
13.0000,-0.1919,0.7010,-0.6783,-1.1119,-9.6616,1.2590,-0.0318,0.5168,-1.1903
13.0100,0.4513,0.2107,-0.5299,-1.2236,-9.6473,1.2648,-0.0342,0.0421,-1.1689
13.0200,1.1718,-0.1361,-0.1277,-1.3341,-9.6320,1.2699,-0.1116,-0.2188,-1.0718
13.0300,1.8093,-0.4784,0.4031,-1.4334,-9.6157,1.2848,-0.2852,-0.2785,-0.9021
13.0400,2.2175,-0.6001,0.9179,-1.5127,-9.5987,1.3209,-0.5352,-0.1567,-0.6726
13.0500,2.4346,-0.4617,1.2246,-1.5660,-9.5812,1.3844,-0.7907,0.0440,-0.4156
13.0600,2.3171,-0.3017,1.1675,-1.5934,-9.5636,1.4718,-0.9722,0.1810,-0.1991
13.0700,1.6877,-0.2202,0.6949,-1.6036,-9.5459,1.5724,-1.0409,0.2059,-0.0924
13.0800,0.7184,-0.1629,-0.0837,-1.6101,-9.5274,1.6746,-1.0172,0.1628,-0.1251
13.0900,-0.1860,0.0353,-0.9462,-1.6260,-9.5070,1.7724,-0.9768,0.1408,-0.2703
13.1000,-0.6391,0.3954,-1.6799,-1.6580,-9.4833,1.8673,-0.9567,0.1611,-0.4587
13.1100,-0.7036,0.3684,-2.5567,-1.7065,-9.4560,1.9592,-0.9163,0.1220,-0.6097
13.1200,-0.3707,-0.8401,-4.0531,-1.7674,-9.4270,2.0435,-0.8349,-0.0194,-0.6843
13.1300,0.3934,-2.2794,-5.1788,-1.8352,-9.3981,2.1156,-0.7233,-0.1581,-0.6968
13.1400,1.5488,-3.2246,-5.4311,-1.9023,-9.3714,2.1741,-0.5772,-0.1516,-0.6403
13.1500,2.5405,-3.9587,-5.5176,-1.9588,-9.3493,2.2189,-0.4026,0.0183,-0.5184
13.1600,2.8200,-4.0655,-5.4202,-1.9978,-9.3333,2.2515,-0.2367,0.2597,-0.3762
13.1700,2.5174,-3.6601,-5.2596,-2.0189,-9.3232,2.2744,-0.0968,0.4505,-0.2534
13.1800,1.8945,-3.1956,-5.1845,-2.0278,-9.3182,2.2869,0.0443,0.5127,-0.1846
13.1900,1.5016,-2.9392,-4.9275,-2.0330,-9.3173,2.2860,0.1924,0.4995,-0.1828
13.2000,1.7870,-2.8980,-4.3227,-2.0399,-9.3191,2.2723,0.3174,0.5207,-0.2092
13.2100,2.1424,-2.9177,-3.9310,-2.0460,-9.3231,2.2504,0.3888,0.6137,-0.1848
13.2200,3.3583,-3.2624,-2.9895,-2.0419,-9.3295,2.2275,0.3809,0.7118,-0.0287
13.2300,5.1494,-3.7844,-1.8712,-2.0138,-9.3397,2.2102,0.3024,0.7546,0.2988
13.2400,6.1454,-4.0000,-1.9310,-1.9474,-9.3560,2.2003,0.2346,0.7640,0.7681
13.2500,6.5475,-3.7197,-2.6206,-1.8333,-9.3808,2.1922,0.2625,0.7891,1.2918
13.2600,5.9819,-2.9788,-3.3812,-1.6699,-9.4147,2.1762,0.3741,0.7893,1.7885
13.2700,4.5935,-2.2289,-3.9515,-1.4630,-9.4557,2.1460,0.4999,0.6552,2.2235
13.2800,2.8159,-1.6623,-4.5258,-1.2233,-9.5000,2.0992,0.6220,0.3096,2.5670
13.2900,1.1359,-1.2689,-5.1346,-0.9647,-9.5439,2.0331,0.7734,-0.2320,2.7871
13.3000,-0.0651,-1.0393,-5.5112,-0.7029,-9.5851,1.9450,0.9671,-0.8608,2.8573
13.3100,-0.6465,-0.9491,-5.5416,-0.4511,-9.6221,1.8341,1.1940,-1.4893,2.8032
13.3200,-0.9806,-1.0268,-5.2738,-0.2152,-9.6547,1.7007,1.4357,-2.0756,2.7153
13.3300,-1.3000,-1.5633,-4.4424,0.0076,-9.6828,1.5477,1.6431,-2.5754,2.6466
13.3400,-1.8155,-2.8954,-2.8435,0.2231,-9.7049,1.3849,1.7257,-2.8288,2.5910
13.3500,-2.7206,-4.4921,-0.6795,0.4367,-9.7184,1.2308,1.5707,-2.6979,2.5287
13.3600,-3.6247,-5.0752,1.5348,0.6509,-9.7214,1.1078,1.1875,-2.1336,2.4384
13.3700,-4.2014,-4.9342,3.2723,0.8644,-9.7139,1.0255,0.7381,-1.0875,2.2802
13.3800,-4.6046,-5.1410,4.3883,1.0716,-9.6986,0.9739,0.3997,0.2928,2.0408
13.3900,-4.9374,-5.2885,4.9545,1.2671,-9.6795,0.9292,0.2920,1.6368,1.7832
13.4000,-4.6217,-4.8136,5.3152,1.4467,-9.6601,0.8670,0.3994,2.5626,1.5079
13.4100,-3.8141,-3.7316,6.1989,1.5972,-9.6444,0.7733,0.6892,2.8332,1.1105
13.4200,-3.3584,-2.3406,6.9180,1.7034,-9.6359,0.6408,1.1362,2.4784,0.6893
13.4300,-2.2079,-1.2776,6.2001,1.7696,-9.6336,0.4737,1.4850,1.9830,0.4348
13.4400,0.1033,-0.7002,4.8270,1.8124,-9.6328,0.2924,1.5323,1.7544,0.3046
13.4500,1.0165,-0.2380,3.5589,1.8389,-9.6316,0.1176,1.4352,1.6251,0.1659
13.4600,-0.5038,0.0763,1.8129,1.8486,-9.6303,-0.0503,1.4942,1.3309,0.0237
13.4700,-2.3901,-0.1039,-0.9297,1.8457,-9.6282,-0.2299,1.8100,0.8556,-0.0464
13.4800,-3.3644,-0.3521,-3.4135,1.8405,-9.6221,-0.4320,2.1116,0.3450,-0.0119
13.4900,-3.6042,0.1875,-3.4750,1.8432,-9.6100,-0.6413,2.1405,-0.1351,0.0703
13.5000,-3.8570,1.2805,-1.8397,1.8554,-9.5930,-0.8333,1.9954,-0.7694,0.0982
13.5100,-4.7251,2.4708,-1.4076,1.8762,-9.5735,-0.9967,1.8488,-1.5397,0.1104
13.5200,-4.5355,3.3009,-1.5448,1.9116,-9.5513,-1.1332,1.7259,-2.1186,0.2221
13.5300,-3.3220,3.6624,-0.7519,1.9680,-9.5254,-1.2490,1.5924,-2.3011,0.3933
13.5400,-2.7609,3.8730,0.3538,2.0415,-9.4964,-1.3482,1.4278,-2.2053,0.5215
13.5500,-2.7513,3.7765,1.5138,2.1263,-9.4655,-1.4315,1.2675,-2.1073,0.6318
13.5600,-3.2124,3.3355,2.4128,2.2236,-9.4324,-1.5007,1.1675,-2.1834,0.7529
13.5700,-3.7634,2.8378,3.0077,2.3341,-9.3970,-1.5538,1.0630,-2.4535,0.8159
13.5800,-3.7256,2.5286,3.4105,2.4492,-9.3623,-1.5859,0.9121,-2.6199,0.7551
13.5900,-3.5594,2.4070,3.5594,2.5522,-9.3326,-1.5993,0.7356,-2.4664,0.5534
13.6000,-3.7545,2.7240,4.2730,2.6283,-9.3116,-1.5985,0.5280,-2.1662,0.2745
13.6100,-3.8829,3.1935,5.2019,2.6741,-9.3011,-1.5839,0.3114,-1.8850,0.0219
13.6200,-3.6720,3.3835,5.4009,2.6948,-9.2998,-1.5565,0.1248,-1.6443,-0.1654
13.6300,-3.2701,3.4967,5.1422,2.6964,-9.3053,-1.5204,0.0041,-1.4633,-0.3046
13.6400,-2.7225,3.6801,4.7404,2.6814,-9.3161,-1.4796,-0.0659,-1.3388,-0.4633
13.6500,-1.9990,4.0706,4.4113,2.6495,-9.3321,-1.4357,-0.1254,-1.2873,-0.6184
13.6600,-1.0955,4.1790,3.9945,2.6043,-9.3522,-1.3866,-0.1935,-1.2907,-0.7285
13.6700,-0.1020,3.5822,3.4588,2.5486,-9.3754,-1.3324,-0.2537,-1.2485,-0.8222
13.6800,0.7882,2.7869,2.8034,2.4833,-9.4007,-1.2760,-0.2868,-1.1769,-0.8929
13.6900,1.7268,2.0783,2.2193,2.4120,-9.4267,-1.2198,-0.2976,-1.1440,-0.9120
13.7000,2.2865,1.7412,1.9761,2.3415,-9.4516,-1.1634,-0.3215,-1.1453,-0.8496
13.7100,2.9274,1.3196,1.8990,2.2799,-9.4738,-1.1037,-0.3744,-1.1579,-0.7136
13.7200,4.1134,0.2626,1.7598,2.2318,-9.4926,-1.0382,-0.4584,-1.1197,-0.5542
13.7300,5.3061,-0.9647,1.6126,2.1961,-9.5086,-0.9657,-0.5589,-1.0038,-0.4255
13.7400,6.1643,-2.0881,1.3034,2.1682,-9.5225,-0.8888,-0.5984,-0.9164,-0.3452
13.7500,6.3364,-2.9191,0.2669,2.1458,-9.5342,-0.8150,-0.5228,-0.8665,-0.2810
13.7600,6.3463,-3.3875,-1.3885,2.1283,-9.5430,-0.7558,-0.3278,-0.7714,-0.2225
13.7700,6.1686,-3.7477,-3.0708,2.1129,-9.5490,-0.7222,-0.0482,-0.6523,-0.2187
13.7800,5.0418,-3.9844,-4.3454,2.0922,-9.5538,-0.7195,0.2572,-0.5586,-0.3155
13.7900,3.0672,-3.7634,-4.9520,2.0584,-9.5591,-0.7458,0.4951,-0.4551,-0.4693
13.8000,1.2265,-2.8591,-4.5891,2.0107,-9.5656,-0.7903,0.5774,-0.3275,-0.5718
13.8100,0.1318,-1.2538,-3.4827,1.9571,-9.5725,-0.8399,0.5488,-0.1854,-0.5755
13.8200,-0.2212,0.5658,-2.5716,1.9032,-9.5791,-0.8871,0.4502,0.0705,-0.5581
13.8300,-0.0793,2.1112,-1.7937,1.8454,-9.5867,-0.9270,0.2629,0.4626,-0.5972
13.8400,0.0459,3.2689,-0.7682,1.7776,-9.5970,-0.9521,-0.0038,0.8790,-0.6742
13.8500,0.2139,3.8566,0.3190,1.6986,-9.6111,-0.9542,-0.3503,1.2709,-0.7432
13.8600,0.7803,3.5893,1.4388,1.6130,-9.6287,-0.9246,-0.7701,1.6465,-0.7245
13.8700,2.0098,2.3315,2.4787,1.5357,-9.6474,-0.8589,-1.1672,1.9822,-0.5023
13.8800,4.0129,-0.2238,3.0305,1.4913,-9.6624,-0.7630,-1.4280,2.0795,-0.0433
13.8900,2.4836,-8.0386,5.0736,1.4970,-9.6699,-0.6461,-1.5373,1.6124,0.4092
13.9000,-3.3042,-14.7790,7.8266,1.5374,-9.6713,-0.5183,-1.4024,0.6080,0.5132
13.9100,-6.8716,-12.7760,7.8893,1.5774,-9.6703,-0.4051,-0.9125,-0.4213,0.3058
13.9200,-6.5747,-6.0267,6.4564,1.5976,-9.6699,-0.3325,-0.3467,-1.0322,0.0616
13.9300,-4.8673,0.8412,5.6526,1.5986,-9.6709,-0.2979,-0.0558,-1.0586,-0.1023
13.9400,-3.4177,4.8336,5.6928,1.5849,-9.6737,-0.2797,-0.0784,-0.5215,-0.2288
13.9500,-3.0986,6.6750,5.9200,1.5553,-9.6790,-0.2588,-0.3279,0.3019,-0.3851
13.9600,-3.8784,6.9600,5.6055,1.5085,-9.6874,-0.2206,-0.6531,0.9062,-0.5380
13.9700,-4.8059,6.1025,4.5213,1.4474,-9.6978,-0.1595,-0.8877,1.0766,-0.6729
13.9800,-5.2522,5.0410,3.2825,1.3734,-9.7095,-0.0825,-0.9744,0.9790,-0.8138
13.9900,-5.1235,4.0138,2.5298,1.2888,-9.7214,0.0003,-0.9501,0.7574,-0.8927
14.0000,-4.4118,2.7976,2.1930,1.2043,-9.7319,0.0808,-0.8519,0.5164,-0.8150
14.0100,-3.6619,1.4565,1.9819,1.1366,-9.7393,0.1527,-0.7051,0.2520,-0.5565
14.0200,-3.2757,0.1639,1.8689,1.1000,-9.7424,0.2134,-0.5612,-0.0356,-0.1845
14.0300,-3.2395,-0.8604,2.0236,1.0999,-9.7411,0.2664,-0.4991,-0.2509,0.1841
14.0400,-3.6279,-1.5263,2.2295,1.1310,-9.7358,0.3215,-0.5739,-0.3545,0.4475
14.0500,-4.5929,-2.4365,1.7674,1.1775,-9.7277,0.3912,-0.7756,-0.3620,0.4944
14.0600,-6.2009,-3.7029,0.4156,1.2023,-9.7205,0.4844,-1.0552,-0.2778,-0.0568
14.0700,-6.9547,-4.4908,-1.2221,1.1400,-9.7211,0.6021,-1.2676,-0.2118,-1.2581
14.0800,-5.9983,-4.2676,-2.6983,0.9516,-9.7323,0.7263,-1.1777,-0.2274,-2.5313
14.0900,-5.0693,-3.8780,-3.4387,0.6536,-9.7482,0.8274,-0.8334,-0.2344,-3.4581
14.1000,-4.0566,-3.2677,-3.6876,0.2881,-9.7598,0.8919,-0.4658,-0.0642,-3.8935
14.1100,-1.8176,-2.0511,-3.9398,-0.0928,-9.7609,0.9231,-0.1734,0.4119,-3.8273
14.1200,0.9236,-0.6731,-3.9062,-0.4392,-9.7509,0.9339,-0.0014,1.1978,-3.3289
14.1300,3.6365,0.6826,-3.4627,-0.7113,-9.7348,0.9413,0.0573,2.1246,-2.5138
14.1400,5.5544,1.5723,-2.8327,-0.8899,-9.7191,0.9552,0.0857,2.8687,-1.6353
14.1500,5.3461,1.8489,-2.6282,-0.9842,-9.7083,0.9743,0.1234,3.2822,-0.9394
14.1600,3.7575,1.9707,-2.5457,-1.0213,-9.7021,0.9980,0.0775,3.4566,-0.5494
14.1700,2.2448,2.3272,-1.9891,-1.0354,-9.6967,1.0348,-0.1054,3.4935,-0.5088
14.1800,1.0486,2.4831,-1.3636,-1.0580,-9.6879,1.0926,-0.3327,3.3696,-0.7311
14.1900,0.4774,1.9823,-1.4035,-1.1082,-9.6736,1.1668,-0.4525,3.0396,-1.0532
14.2000,0.4852,1.0159,-2.1528,-1.1914,-9.6543,1.2418,-0.4136,2.5223,-1.3370
14.2100,0.7156,0.0658,-2.8679,-1.3002,-9.6321,1.3031,-0.2829,1.8613,-1.4588
14.2200,1.2199,-0.6877,-3.0175,-1.4175,-9.6099,1.3442,-0.1553,1.1351,-1.3457
14.2300,1.8735,-1.2066,-2.6113,-1.5227,-9.5905,1.3684,-0.1206,0.4706,-1.0355
14.2400,2.3582,-1.2930,-1.8381,-1.6006,-9.5751,1.3875,-0.2269,-0.0012,-0.6382
14.2500,2.5933,-0.9267,-1.0172,-1.6447,-9.5632,1.4180,-0.4645,-0.2277,-0.2432
14.2600,2.6284,-0.4284,-0.3840,-1.6554,-9.5531,1.4723,-0.7563,-0.2845,0.0927
14.2700,2.3232,-0.0322,-0.2487,-1.6394,-9.5431,1.5524,-0.9987,-0.2902,0.3166
14.2800,1.0650,0.4853,-1.1279,-1.6096,-9.5317,1.6503,-1.1284,-0.3128,0.3852
14.2900,-0.3468,0.7483,-2.2845,-1.5821,-9.5177,1.7542,-1.1342,-0.3395,0.2884
14.3000,-1.1018,0.3751,-3.0812,-1.5712,-9.5009,1.8527,-1.0153,-0.2899,0.0501
14.3100,-1.4934,-0.2336,-3.5439,-1.5850,-9.4818,1.9369,-0.8147,-0.1239,-0.2567
14.3200,-1.3725,-0.7613,-3.3080,-1.6229,-9.4611,2.0054,-0.6390,0.0670,-0.5174
14.3300,-0.9609,-1.1368,-2.7997,-1.6769,-9.4394,2.0628,-0.5357,0.1494,-0.6539
14.3400,-0.5575,-1.6384,-2.5617,-1.7382,-9.4172,2.1128,-0.4788,0.0782,-0.6826
14.3500,-0.0328,-2.3446,-2.5589,-1.8016,-9.3953,2.1566,-0.4432,-0.0516,-0.6589
14.3600,0.6130,-3.1602,-2.6956,-1.8642,-9.3741,2.1956,-0.4170,-0.1204,-0.6239
14.3700,1.1571,-3.9125,-3.0688,-1.9246,-9.3535,2.2311,-0.3848,-0.1038,-0.6017
14.3800,1.8469,-4.2765,-3.5859,-1.9810,-9.3337,2.2645,-0.3482,0.0208,-0.5716
14.3900,2.6693,-4.0781,-4.0833,-2.0283,-9.3153,2.2982,-0.3126,0.2657,-0.4962
14.4000,3.0267,-3.5241,-4.6240,-2.0605,-9.2994,2.3334,-0.2553,0.5454,-0.3958
14.4100,3.1860,-2.9442,-5.1339,-2.0779,-9.2872,2.3666,-0.1576,0.7911,-0.3083
14.4200,4.3525,-2.5987,-5.2415,-2.0779,-9.2799,2.3951,-0.0343,1.0913,-0.1508
14.4300,5.8365,-2.6143,-5.0352,-2.0477,-9.2805,2.4185,0.0977,1.4461,0.1529
14.4400,6.4035,-2.9997,-4.9763,-1.9768,-9.2915,2.4348,0.2377,1.6757,0.5457
14.4500,6.1483,-3.5535,-5.2450,-1.8661,-9.3135,2.4379,0.3877,1.6338,0.9365
14.4600,5.4201,-3.7944,-5.5949,-1.7247,-9.3449,2.4211,0.5406,1.2972,1.3015
14.4700,4.9264,-3.7520,-5.7003,-1.5588,-9.3842,2.3808,0.6799,0.7552,1.6927
14.4800,4.5159,-3.3947,-5.6452,-1.3683,-9.4295,2.3174,0.8037,0.1327,2.1045
14.4900,3.6900,-2.6224,-5.5338,-1.1539,-9.4783,2.2327,0.9444,-0.4691,2.4741
14.5000,2.7671,-1.8870,-5.4277,-0.9195,-9.5283,2.1256,1.1485,-0.9779,2.7441
14.5100,2.0983,-1.4977,-5.3800,-0.6726,-9.5772,1.9934,1.4106,-1.3896,2.8848
14.5200,1.5414,-1.3936,-5.0307,-0.4222,-9.6230,1.8347,1.6908,-1.8603,2.9332
14.5300,0.7643,-1.6244,-4.3039,-0.2157,-9.6574,1.6843,1.9002,-2.3716,2.9374
14.5400,0.2938,-1.8688,-3.9021,-0.1343,-9.6699,1.6198,1.9691,-2.6019,2.9315
14.5500,-1.1749,-3.0680,-2.5109,0.0651,-9.6964,1.4566,2.0214,-3.0400,2.8724
14.5600,-3.2522,-4.9836,-0.3072,0.2974,-9.7181,1.2725,1.8194,-3.2021,2.7630
14.5700,-4.9696,-5.8244,1.8802,0.5249,-9.7266,1.1280,1.3549,-2.8300,2.6404
14.5800,-5.7882,-5.7869,3.7007,0.7492,-9.7221,1.0373,0.7999,-1.9240,2.4760
14.5900,-6.0352,-6.3069,5.0719,0.9678,-9.7076,0.9926,0.3543,-0.6894,2.2655
14.6000,-5.9571,-6.9444,5.7655,1.1754,-9.6871,0.9687,0.1823,0.4567,1.9992
14.6100,-5.5894,-6.8584,6.1695,1.3616,-9.6662,0.9347,0.3195,1.1534,1.6609
14.6200,-4.3037,-5.5977,6.9882,1.5190,-9.6487,0.8708,0.6243,1.3144,1.3634
14.6300,-1.3118,-3.1247,8.8689,1.6526,-9.6349,0.7747,0.9161,1.3057,1.1704
14.6400,1.8449,-0.5823,10.4249,1.7642,-9.6241,0.6544,1.0550,1.4604,0.9177
14.6500,2.3642,0.5495,9.0730,1.8471,-9.6165,0.5258,0.9800,1.7413,0.5998
14.6600,1.3029,0.6825,5.8812,1.8999,-9.6122,0.4018,0.8638,1.9855,0.3214
14.6700,-0.7165,0.8823,1.6373,1.9276,-9.6111,0.2784,0.9018,2.0504,0.1208
14.6800,-3.0051,0.9615,-2.2884,1.9401,-9.6115,0.1425,1.1541,1.7882,0.0670
14.6900,-3.6341,0.8846,-3.4628,1.9515,-9.6101,-0.0183,1.5485,1.2856,0.1585
14.7000,-3.5633,1.5737,-3.3060,1.9742,-9.6032,-0.2040,1.8343,0.8212,0.3423
14.7100,-3.5122,2.2550,-3.1441,2.0166,-9.5885,-0.3948,1.8503,0.2936,0.5664
14.7200,-4.6629,3.0913,-2.6156,2.0818,-9.5662,-0.5636,1.6799,-0.5049,0.7606
14.7300,-6.1503,4.0094,-2.2221,2.1675,-9.5387,-0.6925,1.4563,-1.5267,0.8703
14.7400,-5.6032,4.0388,-1.8750,2.2679,-9.5088,-0.7785,1.2488,-2.2604,0.9169
14.7500,-4.0051,3.8660,-1.1580,2.3743,-9.4778,-0.8366,1.1206,-2.3250,0.9109
14.7600,-3.4336,3.6808,-0.3227,2.4791,-9.4464,-0.8866,1.0737,-2.1240,0.8905
14.7700,-3.7005,3.3562,0.8508,2.5841,-9.4135,-0.9352,1.0678,-2.0521,0.9298
14.7800,-4.0428,2.6925,2.2580,2.6939,-9.3781,-0.9801,1.0469,-2.1331,0.9639
14.7900,-4.2025,2.0857,3.4998,2.8049,-9.3420,-1.0137,0.9455,-2.2799,0.9211
14.8000,-4.0936,1.7115,4.1183,2.9098,-9.3080,-1.0303,0.8146,-2.2998,0.8126
14.8100,-4.1567,1.4511,4.3220,3.0003,-9.2787,-1.0357,0.7098,-2.1121,0.6260
14.8200,-4.3627,1.5182,4.5801,3.0669,-9.2566,-1.0388,0.6228,-1.7558,0.3685
14.8300,-4.4428,2.1137,4.8413,3.1039,-9.2435,-1.0453,0.5385,-1.3296,0.0817
14.8400,-4.5167,3.0194,4.7027,3.1112,-9.2400,-1.0547,0.4473,-1.0361,-0.1867
14.8500,-4.2782,3.7627,4.0869,3.0930,-9.2453,-1.0623,0.3729,-0.9330,-0.4228
14.8600,-3.5456,4.2271,3.3668,3.0542,-9.2578,-1.0655,0.3194,-0.9405,-0.6245
14.8700,-3.0785,4.4345,3.0330,2.9977,-9.2764,-1.0639,0.2615,-0.9447,-0.7951
14.8800,-2.3498,4.4634,2.7551,2.9259,-9.2999,-1.0584,0.2090,-0.8817,-0.9511
14.8900,-1.0284,4.2427,2.2035,2.8386,-9.3275,-1.0523,0.1811,-0.7897,-1.1046
14.9000,-0.0249,3.7764,1.8216,2.7361,-9.3588,-1.0456,0.1229,-0.7548,-1.2395
14.9100,0.6847,3.4017,1.8469,2.6237,-9.3926,-1.0302,-0.0036,-0.8434,-1.3107
14.9200,1.5205,3.0310,1.9956,2.5088,-9.4274,-0.9986,-0.1696,-0.9752,-1.3030
14.9300,2.6735,2.3912,2.1088,2.3983,-9.4611,-0.9495,-0.3290,-1.0677,-1.2231
14.9400,4.0745,1.2482,2.0478,2.2998,-9.4917,-0.8861,-0.4509,-1.1232,-1.0356
14.9500,6.0508,-0.4513,1.4757,2.2262,-9.5159,-0.8126,-0.5438,-1.1314,-0.6858
14.9600,8.7781,-2.5643,0.3924,2.1915,-9.5303,-0.7346,-0.5519,-1.0815,-0.2167
14.9700,11.0447,-4.9338,-1.5657,2.1985,-9.5338,-0.6657,-0.3795,-1.0003,0.1847
14.9800,11.0346,-7.0907,-4.3297,2.2298,-9.5294,-0.6240,-0.0123,-0.9855,0.2892
14.9900,8.0280,-8.1843,-6.7539,2.2548,-9.5239,-0.6182,0.3526,-1.0554,0.0745
15.0000,3.9239,-7.4105,-6.7772,2.2565,-9.5224,-0.6345,0.4586,-1.0571,-0.1581
15.0100,1.8351,-4.6806,-4.0733,2.2444,-9.5240,-0.6530,0.3817,-0.9194,-0.2057
15.0200,1.4568,-1.2838,-1.8280,2.2313,-9.5262,-0.6658,0.2548,-0.6908,-0.1801
15.0300,0.7429,1.5581,-0.8964,2.2168,-9.5293,-0.6695,0.0724,-0.3891,-0.2105
15.0400,-0.2065,3.6116,0.2567,2.1925,-9.5355,-0.6616,-0.1488,-0.0301,-0.3370
15.0500,-0.9071,4.9644,1.7032,2.1495,-9.5470,-0.6357,-0.4658,0.2747,-0.5527
15.0600,-1.7130,5.0128,3.9595,2.0815,-9.5656,-0.5783,-0.8991,0.4646,-0.8211
15.0700,-2.5269,3.6703,5.5829,1.9850,-9.5913,-0.4808,-1.3416,0.5973,-1.1258
15.0800,-3.2028,1.2990,5.7612,1.8596,-9.6219,-0.3462,-1.6854,0.6627,-1.4049
15.0900,-3.5081,-2.9473,5.7386,1.7163,-9.6529,-0.1852,-1.8300,0.5599,-1.4674
15.1000,-1.6887,-9.3398,4.9640,1.5898,-9.6765,-0.0265,-1.5323,0.4317,-1.0597
15.1100,0.3378,-14.6054,4.2997,1.5192,-9.6878,0.0808,-0.7931,0.5209,-0.4095
15.1200,-1.3896,-13.3010,4.8958,1.4960,-9.6911,0.1190,-0.2242,0.6135,-0.1470
15.1300,-2.9403,-6.3409,4.7767,1.4783,-9.6938,0.1250,-0.1335,0.5891,-0.2468
15.1400,-2.1729,-0.1701,3.4718,1.4489,-9.6981,0.1328,-0.2052,0.6143,-0.3652
15.1500,-1.8041,3.0455,2.7423,1.4095,-9.7037,0.1450,-0.2403,0.7477,-0.4584
15.1600,-1.6597,4.5851,2.7823,1.3620,-9.7103,0.1585,-0.2933,1.0326,-0.5373
15.1700,-2.0392,4.9163,2.9696,1.3084,-9.7173,0.1771,-0.4111,1.2806,-0.5933
15.1800,-3.1754,4.5130,2.9179,1.2520,-9.7241,0.2075,-0.5410,1.2199,-0.5985
15.1900,-3.9799,3.8639,2.6006,1.1980,-9.7299,0.2514,-0.6144,0.9115,-0.5404
15.2000,-3.7633,3.0886,2.2337,1.1535,-9.7338,0.3026,-0.6031,0.6100,-0.3942
15.2100,-3.1043,2.3974,1.9311,1.1281,-9.7351,0.3527,-0.5330,0.4227,-0.1483
15.2200,-2.7455,1.9976,1.6197,1.1293,-9.7333,0.3972,-0.4618,0.3008,0.1487
15.2300,-2.7189,1.6994,1.4204,1.1590,-9.7280,0.4382,-0.4422,0.2092,0.4322
15.2400,-2.9647,1.1756,1.2294,1.2136,-9.7193,0.4811,-0.4805,0.1221,0.6600
15.2500,-3.2093,0.8178,1.0593,1.2840,-9.7076,0.5313,-0.5576,-0.1013,0.7590
15.2600,-4.1319,0.1666,0.6673,1.3527,-9.6945,0.5960,-0.6934,-0.5101,0.6569
15.2700,-5.6322,-1.0685,0.0570,1.3921,-9.6832,0.6819,-0.8485,-0.9711,0.1899
15.2800,-6.9545,-2.3655,-0.8443,1.3567,-9.6805,0.7828,-0.8530,-1.4165,-0.7964
15.2900,-8.2348,-3.6097,-2.3564,1.2056,-9.6919,0.8778,-0.6599,-1.7303,-2.0236
15.3000,-8.0590,-3.6768,-3.5300,0.9405,-9.7138,0.9498,-0.4332,-1.7313,-3.0256
15.3100,-6.0731,-2.3891,-3.8908,0.5998,-9.7357,0.9966,-0.2688,-1.4085,-3.5532
15.3200,-3.5148,-1.1441,-3.8535,0.2357,-9.7488,1.0211,-0.1185,-0.8611,-3.5788
15.3300,-0.9221,-0.3205,-3.6234,-0.1043,-9.7510,1.0255,0.0556,-0.0823,-3.2084
15.3400,1.6815,0.4687,-3.3270,-0.3866,-9.7458,1.0122,0.2567,0.8713,-2.6133
15.3500,3.6718,1.2857,-2.9953,-0.5990,-9.7383,0.9841,0.4715,1.8846,-2.0097
15.3600,4.2949,1.9101,-2.4757,-0.7495,-9.7319,0.9460,0.6447,2.9468,-1.5630
15.3700,4.1628,1.9666,-1.7154,-0.8575,-9.7267,0.9078,0.7020,3.9978,-1.3308
15.3800,4.0175,1.4668,-0.8665,-0.9457,-9.7208,0.8832,0.6181,4.8768,-1.3121
15.3900,3.7832,0.7192,-0.1491,-1.0348,-9.7118,0.8822,0.4525,5.3950,-1.4583
15.4000,3.3869,-0.0917,0.1888,-1.1387,-9.6979,0.9055,0.2847,5.3487,-1.6632
15.4100,2.7320,-0.8596,0.2386,-1.2603,-9.6792,0.9437,0.1809,4.6155,-1.7628
15.4200,2.0689,-1.4260,0.0630,-1.3883,-9.6579,0.9814,0.1275,3.3139,-1.6242
15.4300,1.9240,-1.6031,-0.1092,-1.5038,-9.6377,1.0102,0.0178,1.7757,-1.2516
15.4400,2.2111,-0.6388,0.3061,-1.5903,-9.6212,1.0359,-0.2325,0.3888,-0.7497
15.4500,2.3482,0.6309,0.5888,-1.6399,-9.6088,1.0728,-0.5841,-0.6103,-0.2494
15.4600,2.1796,1.1848,0.1487,-1.6539,-9.5998,1.1306,-0.9208,-1.1808,0.1590
15.4700,1.7044,1.5158,-0.4865,-1.6402,-9.5923,1.2107,-1.1859,-1.4545,0.4346
15.4800,0.6595,1.5962,-1.2430,-1.6117,-9.5842,1.3090,-1.3574,-1.6136,0.5356
15.4900,-0.5437,1.3141,-2.1536,-1.5868,-9.5731,1.4158,-1.4019,-1.7301,0.4394
15.5000,-1.2678,0.7973,-2.8595,-1.5817,-9.5580,1.5203,-1.3318,-1.7184,0.1834
15.5100,-1.4938,0.1612,-3.2617,-1.6059,-9.5382,1.6160,-1.1811,-1.4120,-0.1774
15.5200,-1.5003,-0.5623,-3.6803,-1.6605,-9.5142,1.7002,-0.9571,-0.8524,-0.5643
15.5300,-1.2544,-1.2151,-3.9478,-1.7392,-9.4873,1.7703,-0.7021,-0.2554,-0.8716
15.5400,-0.7798,-1.7114,-3.8424,-1.8315,-9.4592,1.8267,-0.4975,0.1848,-1.0397
15.5500,0.1672,-2.1800,-3.6189,-1.9260,-9.4312,1.8734,-0.3695,0.4134,-1.0526
15.5600,1.4072,-2.6915,-3.3820,-2.0117,-9.4052,1.9142,-0.2943,0.5404,-0.9373
15.5700,2.1933,-3.1307,-3.2022,-2.0801,-9.3824,1.9525,-0.2614,0.6432,-0.7455
15.5800,2.2406,-3.4724,-3.3134,-2.1276,-9.3639,1.9903,-0.2426,0.6724,-0.5419
15.5900,2.0265,-3.6581,-3.6774,-2.1582,-9.3494,2.0252,-0.1941,0.6377,-0.4016
15.6000,2.2254,-3.4736,-3.9973,-2.1793,-9.3383,2.0534,-0.1007,0.6758,-0.3391
15.6100,2.6512,-2.9689,-4.0892,-2.1947,-9.3303,2.0735,0.0188,0.8195,-0.3163
15.6200,2.8464,-2.6830,-4.0768,-2.2030,-9.3253,2.0871,0.1223,1.0264,-0.2636
15.6300,3.3295,-2.4145,-3.8330,-2.1969,-9.3241,2.0988,0.1616,1.2717,-0.1104
15.6400,4.3651,-2.1316,-3.1561,-2.1662,-9.3277,2.1146,0.1389,1.4496,0.1588
15.6500,5.1254,-2.4961,-2.4210,-2.1038,-9.3373,2.1349,0.0957,1.4333,0.5144
15.6600,5.3635,-3.3603,-2.0355,-2.0090,-9.3534,2.1551,0.0693,1.2204,0.8880
15.6700,5.2088,-4.0805,-2.2904,-1.8859,-9.3758,2.1689,0.0928,0.9230,1.2289
15.6800,4.7496,-4.1600,-3.1902,-1.7373,-9.4039,2.1708,0.1666,0.6010,1.5668
15.6900,4.1160,-3.6863,-4.1977,-1.5626,-9.4373,2.1578,0.2591,0.2385,1.9270
15.7000,3.3052,-3.0393,-4.9651,-1.3614,-9.4748,2.1291,0.3553,-0.1835,2.2864
15.7100,2.3926,-2.4585,-5.4985,-1.1367,-9.5142,2.0839,0.4891,-0.6610,2.5911
15.7200,1.4430,-2.0263,-5.8862,-0.8970,-9.5539,2.0180,0.7029,-1.1248,2.7716
15.7300,0.6547,-1.7563,-6.2253,-0.6522,-9.5925,1.9261,0.9961,-1.4793,2.8389
15.7400,0.4449,-1.6940,-6.2254,-0.4064,-9.6296,1.8042,1.3380,-1.7636,2.8720
15.7500,0.3444,-2.0215,-5.5053,-0.1600,-9.6640,1.6518,1.6704,-2.1171,2.8890
15.7600,-0.5849,-2.8249,-3.9833,0.0844,-9.6933,1.4766,1.8775,-2.4998,2.8698
15.7700,-2.0073,-3.6755,-1.7260,0.3254,-9.7137,1.2991,1.8205,-2.7132,2.8108
15.7800,-3.4042,-3.9846,0.7829,0.5624,-9.7219,1.1490,1.4527,-2.5720,2.7040
15.7900,-4.6267,-3.9920,3.0648,0.7923,-9.7175,1.0481,0.9156,-1.9552,2.5015
15.8000,-5.5283,-4.4617,4.6725,1.0082,-9.7033,0.9947,0.4574,-0.9475,2.2292
15.8100,-5.9002,-5.4173,5.1728,1.2101,-9.6832,0.9649,0.2556,0.2546,1.9935
15.8200,-4.5328,-5.4319,5.6258,1.4031,-9.6610,0.9258,0.3360,1.3929,1.8143
15.8300,-1.9268,-3.7666,7.1855,1.5874,-9.6391,0.8529,0.6036,2.1765,1.6502
15.8400,-0.9462,-1.1548,8.7519,1.7543,-9.6195,0.7405,0.9154,2.3381,1.3850
15.8500,-1.6852,1.0509,8.3093,1.8839,-9.6047,0.6028,1.1037,1.8548,0.9766
15.8600,-1.1130,1.4411,6.3239,1.9687,-9.5954,0.4664,1.0699,1.2908,0.6282
15.8700,-0.5422,0.8735,3.7923,2.0243,-9.5890,0.3480,0.9256,0.9424,0.4377
15.8800,-1.9507,0.6479,0.7018,2.0626,-9.5840,0.2452,0.8877,0.6449,0.3025
15.8900,-2.9337,0.3765,-2.5486,2.0884,-9.5805,0.1384,1.1334,0.4429,0.2239
15.9000,-2.8350,0.0718,-4.9846,2.1130,-9.5759,-0.0015,1.6253,0.2974,0.3028
15.9100,-2.7753,0.5102,-4.7166,2.1518,-9.5653,-0.1834,2.0176,0.1344,0.5091
15.9200,-4.1059,1.5991,-2.6586,2.2086,-9.5466,-0.3801,2.0481,-0.2583,0.6433
15.9300,-5.4544,2.6007,-1.3306,2.2740,-9.5230,-0.5526,1.8071,-0.9294,0.6475
15.9400,-4.6665,3.1978,-0.7022,2.3430,-9.4979,-0.6822,1.4869,-1.4056,0.6394
