time,seconds_elapsed,z,y,x
1759424280257486600,0.055486572265625,7.570242881774902,-4.385883808135986,4.430100440979004
1759424280267486200,0.065486328125,7.5395188331604,-4.387561321258545,4.48054313659668
1759424280297486300,0.095486328125,7.443437099456787,-4.394109725952148,4.632208824157715
1759424280307486200,0.105486328125,7.40997838973999,-4.396552085876465,4.683251857757568
1759424280317486300,0.115486328125,7.384054183959961,-4.397336959838867,4.723294734954834
1759424280327486200,0.125486328125,7.360661029815674,-4.39697265625,4.759995937347412
1759424280337486000,0.135486083984375,7.341021537780762,-4.3976731300354,4.789587020874023
1759424280347486200,0.145486328125,7.324875354766846,-4.399942874908447,4.8121724128723145
1759424280357486000,0.155486083984375,7.310759544372559,-4.403069972991943,4.830741882324219
1759424280367487000,0.165487060546875,7.297209739685059,-4.40413761138916,4.850213050842285
1759424280377487000,0.175487060546875,7.2830657958984375,-4.400413513183594,4.874792575836182
1759424280387487200,0.1854873046875,7.269148826599121,-4.393572807312012,4.901658058166504
1759424280397487000,0.195487060546875,7.258253574371338,-4.388235092163086,4.922545433044434
1759424280407487200,0.2054873046875,7.249228477478027,-4.385851860046387,4.937948703765869
1759424280417487000,0.215487060546875,7.240739822387695,-4.384714126586914,4.951390743255615
1759424280427487200,0.2254873046875,7.231720924377441,-4.382246971130371,4.966731548309326
1759424280437487000,0.235487060546875,7.222770690917969,-4.37772798538208,4.983709335327148
1759424280447487200,0.2454873046875,7.214449405670166,-4.3719258308410645,5.000832557678223
1759424280457487000,0.255487060546875,7.2053680419921875,-4.366279125213623,5.018819808959961
1759424280467486200,0.265486328125,7.193095684051514,-4.360419750213623,5.041474342346191
1759424280477486300,0.275486328125,7.174480438232422,-4.3534111976623535,5.073944568634033
1759424280487486200,0.285486328125,7.146841049194336,-4.345617771148682,5.119431972503662
1759424280497486300,0.295486328125,7.113671779632568,-4.3352251052856445,5.174147129058838
1759424280507486200,0.305486328125,7.0767340660095215,-4.328105926513672,5.230449676513672
1759424280517486300,0.315486328125,7.035580158233643,-4.326479911804199,5.287012100219727
1759424280527486200,0.325486328125,6.992804527282715,-4.327670574188232,5.342499256134033
1759424280537486300,0.335486328125,6.948091506958008,-4.327920436859131,5.400312900543213
1759424280547515400,0.345515380859375,6.903550624847412,-4.323079586029053,5.460976600646973
1759424280557515300,0.355515380859375,6.860708713531494,-4.317342281341553,5.519196033477783
1759424280567516000,0.365515869140625,6.819282531738281,-4.313356399536133,5.573382377624512
1759424280577515800,0.375515869140625,6.780246734619141,-4.313019752502441,5.621069431304932
1759424280587516000,0.385515869140625,6.743411540985107,-4.31744909286499,5.661827087402344
1759424280597515800,0.395515869140625,6.700048923492432,-4.320876121520996,5.710486888885498
1759424280607516000,0.405515869140625,6.653627872467041,-4.320126056671143,5.765072345733643
1759424280617515800,0.415515869140625,6.605252742767334,-4.31751012802124,5.822367191314697
1759424280627515600,0.425515625,6.562826156616211,-4.314039707183838,5.872700214385986
1759424280637515500,0.435515625,6.527435779571533,-4.313521862030029,5.912397861480713
1759424280647518700,0.445518798828125,6.498137950897217,-4.314915657043457,5.943562030792236
1759424280657518600,0.4555185546875,6.475733280181885,-4.313956260681152,5.968663215637207
1759424280667518000,0.46551806640625,6.456770420074463,-4.312464714050293,5.990240573883057
1759424280677517800,0.475517822265625,6.439931392669678,-4.30470609664917,6.0138983726501465
1759424280687517700,0.485517578125,6.420308589935303,-4.289252758026123,6.045846939086914
1759424280697517800,0.495517822265625,6.393702983856201,-4.2631378173828125,6.092336177825928
1759424280707517700,0.505517578125,6.353854656219482,-4.223206520080566,6.16144323348999
1759424280717517800,0.515517822265625,6.293529033660889,-4.1713032722473145,6.2579522132873535
1759424280727517700,0.525517578125,6.217554569244385,-4.113447189331055,6.371172904968262
1759424280737517800,0.535517822265625,6.1278862953186035,-4.066658973693848,6.487025737762451
1759424280747517700,0.545517578125,6.035371780395508,-4.048706531524658,6.584262847900391
1759424280757517800,0.555517822265625,5.935121536254883,-4.044723033905029,6.677188873291016
1759424280767518700,0.565518798828125,5.828964710235596,-4.035118103027344,6.775790691375732
1759424280777518600,0.5755185546875,5.716171741485596,-4.007734298706055,6.887206077575684
1759424280787518700,0.585518798828125,5.59119176864624,-3.9586987495422363,7.016941547393799
1759424280797518600,0.5955185546875,5.449557304382324,-3.882802963256836,7.169130802154541
1759424280807518700,0.605518798828125,5.2706990242004395,-3.7796695232391357,7.355544090270996
1759424280817518600,0.6155185546875,5.05133056640625,-3.64937424659729,7.572080135345459
1759424280827517700,0.625517578125,4.804454326629639,-3.4962780475616455,7.801506996154785
1759424280837517800,0.635517822265625,4.540612697601318,-3.3291561603546143,8.029308319091797
1759424280847517700,0.645517578125,4.265236854553223,-3.1618363857269287,8.245044708251953
1759424280857517800,0.655517822265625,4.003197193145752,-3.0115442276000977,8.430614471435547
1759424280867517000,0.665516845703125,3.7793538570404053,-2.8795077800750732,8.578754425048828
1759424280877516800,0.675516845703125,3.610358953475952,-2.7678024768829346,8.687623977661133
1759424280887517000,0.685516845703125,3.492145538330078,-2.6795401573181152,8.76327896118164
1759424280897516800,0.695516845703125,3.408289909362793,-2.6178247928619385,8.814807891845703
1759424280907517000,0.705516845703125,3.353506088256836,-2.586291551589966,8.845080375671387
1759424280917516800,0.715516845703125,3.308833599090576,-2.586529493331909,8.861807823181152
1759424280927517200,0.72551708984375,3.2539656162261963,-2.609772205352783,8.875304222106934
1759424280937517000,0.73551708984375,3.1755428314208984,-2.633385181427002,8.89670181274414
1759424280947514000,0.74551416015625,3.0648350715637207,-2.644680976867676,8.932121276855469
1759424280957514000,0.755513916015625,2.91321063041687,-2.641033887863159,8.983774185180664
1759424280967515000,0.765514892578125,2.743300437927246,-2.6294291019439697,9.040499687194824
1759424280977514800,0.7755146484375,2.5903234481811523,-2.6369028091430664,9.083337783813477
1759424280987515000,0.785514892578125,2.473262310028076,-2.668996572494507,9.106575012207031
1759424280997514800,0.7955146484375,2.407505512237549,-2.7251505851745605,9.107552528381348
1759424281007515000,0.805514892578125,2.3911640644073486,-2.796586275100708,9.090189933776855
1759424281017514800,0.8155146484375,2.3942575454711914,-2.8728952407836914,9.065552711486816
1759424281027514000,0.82551416015625,2.3770999908447266,-2.9461264610290527,9.046534538269043
1759424281037514000,0.835513916015625,2.321763753890991,-3.0146772861480713,9.03832721710205
1759424281047514000,0.84551416015625,2.2594752311706543,-3.0863232612609863,9.029929161071777
1759424281057514000,0.855513916015625,2.233410120010376,-3.1656792163848877,9.008903503417969
1759424281067513000,0.86551318359375,2.2717440128326416,-3.250286340713501,8.969103813171387
1759424281077513200,0.87551318359375,2.352047920227051,-3.3360085487365723,8.91678524017334
1759424281087513000,0.88551318359375,2.4348092079162598,-3.4226813316345215,8.861549377441406
1759424281097513000,0.895512939453125,2.4982750415802,-3.5052902698516846,8.811448097229004
1759424281107513000,0.90551318359375,2.540806770324707,-3.567591905593872,8.774208068847656
1759424281117513000,0.915512939453125,2.549898386001587,-3.597545862197876,8.759328842163086
1759424281127514000,0.92551416015625,2.517139434814453,-3.601245641708374,8.767271041870117
1759424281137514000,0.935513916015625,2.452531099319458,-3.5931599140167236,8.7888765335083
1759424281147514600,0.9455146484375,2.37727427482605,-3.5833089351654053,8.813538551330566
1759424281157514500,0.955514404296875,2.306535482406616,-3.5755763053894043,8.835453987121582
1759424281167515400,0.965515380859375,2.251805305480957,-3.5752265453338623,8.849701881408691
1759424281177515300,0.975515380859375,2.224264621734619,-3.5807008743286133,8.854452133178711
1759424281187515000,0.985514892578125,2.221400737762451,-3.5901896953582764,8.851327896118164
1759424281207515000,1.005514892578125,2.2159366607666016,-3.6091854572296143,8.844977378845215
1759424281217514500,1.015514404296875,2.2133610248565674,-3.6186935901641846,8.841732025146484
1759424281237514500,1.035514404296875,2.0858170986175537,-3.582517147064209,8.88734245300293
1759424281247514400,1.045514404296875,2.0178744792938232,-3.5443356037139893,8.918292999267578
1759424281257514500,1.055514404296875,2.0352609157562256,-3.5188591480255127,8.924434661865234
1759424281267514400,1.065514404296875,2.122732400894165,-3.516082525253296,8.905123710632324
1759424281277514500,1.075514404296875,2.231462240219116,-3.536097764968872,8.870558738708496
1759424281287514400,1.085514404296875,2.32026743888855,-3.56935977935791,8.834362030029297
1759424281297514500,1.095514404296875,2.3384878635406494,-3.5957624912261963,8.818841934204102
1759424281307514400,1.105514404296875,2.2456564903259277,-3.60199236869812,8.840412139892578
1759424281317514500,1.115514404296875,2.0245823860168457,-3.582036018371582,8.90168285369873
1759424281327515400,1.125515380859375,1.7742992639541626,-3.5644664764404297,8.961957931518555
1759424281337515300,1.135515380859375,1.543139100074768,-3.5563724040985107,9.007820129394531
1759424281347515000,1.145514892578125,1.3493560552597046,-3.559093713760376,9.037813186645508
1759424281367516000,1.165515869140625,1.1038538217544556,-3.605511426925659,9.052733421325684
1759424281377515800,1.175515869140625,1.0365267992019653,-3.6571500301361084,9.039969444274902
1759424281387516000,1.185515869140625,0.9880257248878479,-3.7325243949890137,9.014548301696777
1759424281397515800,1.195515869140625,0.9476416707038879,-3.833221912384033,8.976547241210938
1759424281407516000,1.205515869140625,0.9171034693717957,-3.9507248401641846,8.92864990234375
1759424281417515800,1.215515869140625,0.8964462876319885,-4.069221496582031,8.877378463745117
1759424281427516000,1.225515869140625,0.8828393816947937,-4.157458782196045,8.837770462036133
1759424281437515800,1.235515869140625,0.8683499693870544,-4.212271690368652,8.81321907043457
1759424281447515100,1.24551513671875,0.8579437136650085,-4.24204683303833,8.799955368041992
1759424281457515300,1.255515380859375,0.8644002079963684,-4.260614395141602,8.790343284606934
1759424281467515400,1.265515380859375,0.9036312699317932,-4.284256935119629,8.774877548217773
1759424281477515300,1.275515380859375,0.9899173378944397,-4.314018249511719,8.750959396362305
1759424281487515600,1.285515625,1.1295435428619385,-4.3340067863464355,8.724136352539062
1759424281497515800,1.295515869140625,1.3210774660110474,-4.332147598266602,8.698122024536133
1759424281507516000,1.305515869140625,1.5667449235916138,-4.303816318511963,8.671369552612305
1759424281517516300,1.315516357421875,1.8612645864486694,-4.248239994049072,8.640508651733398
1759424281527516200,1.32551611328125,2.157296657562256,-4.180793762207031,8.604480743408203
1759424281537516300,1.335516357421875,2.430058717727661,-4.120072841644287,8.560951232910156
1759424281547516200,1.34551611328125,2.6086716651916504,-4.0871171951293945,8.5241060256958
1759424281557515800,1.355515869140625,2.7002134323120117,-4.0645599365234375,8.50637149810791
1759424281567516000,1.365515869140625,2.7079973220825195,-4.018144607543945,8.525923728942871
1759424281577515800,1.375515869140625,2.652984142303467,-3.9235713481903076,8.587043762207031
1759424281587516000,1.385515869140625,2.5708210468292236,-3.78934383392334,8.671904563903809
1759424281597515800,1.395515869140625,2.498889684677124,-3.6406333446502686,8.756231307983398
1759424281607516000,1.405515869140625,2.484050989151001,-3.4867069721221924,8.822843551635742
1759424281617515800,1.415515869140625,2.573007822036743,-3.32576322555542,8.859407424926758
1759424281627516000,1.425515869140625,2.714024066925049,-3.1699957847595215,8.874428749084473
1759424281637515800,1.435515869140625,2.810654640197754,-3.045754909515381,8.887842178344727
1759424281647516200,1.44551611328125,2.8597707748413086,-2.9489521980285645,8.904797554016113
1759424281657516300,1.455516357421875,2.816133975982666,-2.871814489364624,8.943840980529785
1759424281667516200,1.46551611328125,2.7462639808654785,-2.781831979751587,8.993866920471191
1759424281677516300,1.475516357421875,2.653456449508667,-2.687973976135254,9.050093650817871
1759424281687516200,1.48551611328125,2.546124219894409,-2.600900650024414,9.10619068145752
1759424281697516300,1.495516357421875,2.436898946762085,-2.5243940353393555,9.157455444335938
1759424281707516200,1.50551611328125,2.318056583404541,-2.4657998085021973,9.204155921936035
1759424281717516300,1.515516357421875,2.178077459335327,-2.434215784072876,9.246660232543945
1759424281727516200,1.52551611328125,2.010256052017212,-2.42606782913208,9.286720275878906
1759424281737516300,1.535516357421875,1.7845362424850464,-2.4350945949554443,9.330374717712402
1759424281747516200,1.54551611328125,1.5192890167236328,-2.4833288192749023,9.364547729492188
1759424281757516300,1.555516357421875,1.2422820329666138,-2.572941541671753,9.381187438964844
1759424281767516200,1.56551611328125,0.9753755927085876,-2.6948440074920654,9.378521919250488
1759424281777516300,1.575516357421875,0.7835025191307068,-2.833646059036255,9.35556411743164
1759424281787516200,1.58551611328125,0.6659113168716431,-2.9506170749664307,9.328460693359375
1759424281797516300,1.595516357421875,0.6059209704399109,-3.0215563774108887,9.30984115600586
1759424281807516200,1.60551611328125,0.5629463195800781,-3.0711960792541504,9.29627513885498
1759424281817516300,1.615516357421875,0.5091753005981445,-3.1250884532928467,9.281411170959473
1759424281827516200,1.62551611328125,0.40555882453918457,-3.190269947052002,9.264334678649902
1759424281837516300,1.635516357421875,0.22920477390289307,-3.2667322158813477,9.243705749511719
1759424281847516200,1.64551611328125,0.008417699486017227,-3.351576566696167,9.216119766235352
1759424281857516500,1.6555166015625,-0.24534283578395844,-3.449320077896118,9.176713943481445
1759424281867516700,1.6655166015625,-0.4955325424671173,-3.5560014247894287,9.125751495361328
1759424281877516500,1.6755166015625,-0.6893783807754517,-3.662327766418457,9.070955276489258
1759424281887516700,1.6855166015625,-0.7969000339508057,-3.759186029434204,9.02238655090332
1759424281897516500,1.6955166015625,-0.8336179256439209,-3.8410463333129883,8.984514236450195
1759424281907516700,1.7055166015625,-0.7971581220626831,-3.905189037322998,8.960147857666016
1759424281917516500,1.7155166015625,-0.699644923210144,-3.968130350112915,8.94060230255127
1759424281927516700,1.7255166015625,-0.5530149936676025,-4.047647953033447,8.915193557739258
1759424281937516500,1.7355166015625,-0.3816717565059662,-4.1436662673950195,8.879993438720703
1759424281947516700,1.7455166015625,-0.20139482617378235,-4.2453203201293945,8.837809562683105
1759424281957516500,1.7555166015625,-0.027338234707713127,-4.340964317321777,8.793465614318848
1759424281967516700,1.7655166015625,0.12522855401039124,-4.417273998260498,8.754548072814941
1759424281977516500,1.7755166015625,0.27663639187812805,-4.458140850067139,8.730324745178223
1759424281987516700,1.7855166015625,0.45135393738746643,-4.4597487449646,8.722212791442871
1759424281997516500,1.7955166015625,0.6399861574172974,-4.434173583984375,8.723444938659668
1759424282007516700,1.8055166015625,0.8632263541221619,-4.39681339263916,8.723118782043457
1759424282017516500,1.8155166015625,1.0834338665008545,-4.382297992706299,8.70583724975586
1759424282027516700,1.8255166015625,1.2801824808120728,-4.3968353271484375,8.671736717224121
1759424282037516500,1.8355166015625,1.4256212711334229,-4.443299770355225,8.625239372253418
1759424282047516700,1.8455166015625,1.5278279781341553,-4.522671222686768,8.566293716430664
1759424282057516500,1.8555166015625,1.609971284866333,-4.611570835113525,8.503610610961914
1759424282067516700,1.8655166015625,1.745830774307251,-4.629609107971191,8.466923713684082
1759424282077516500,1.8755166015625,1.8420742750167847,-4.591637134552002,8.467209815979004
1759424282087516700,1.8855166015625,1.8841654062271118,-4.54667854309082,8.482206344604492
1759424282097516500,1.8955166015625,1.966963291168213,-4.519757270812988,8.477800369262695
1759424282107516700,1.9055166015625,2.1810200214385986,-4.472621440887451,8.450370788574219
1759424282117516500,1.9155166015625,2.404783248901367,-4.38995885848999,8.432981491088867
1759424282127516700,1.9255166015625,2.651973009109497,-4.308689117431641,8.400734901428223
1759424282137516500,1.9355166015625,2.9804611206054688,-4.158949375152588,8.36601448059082
1759424282147516700,1.9455166015625,3.0977439880371094,-4.033384799957275,8.384870529174805
1759424282157516500,1.9555166015625,3.1303694248199463,-3.9767158031463623,8.399808883666992
1759424282167516700,1.9655166015625,3.200385332107544,-4.01105260848999,8.356982231140137
1759424282177516500,1.9755166015625,3.2464089393615723,-4.139310359954834,8.276296615600586
1759424282187516700,1.9855166015625,3.3477158546447754,-4.271702289581299,8.167952537536621
1759424282197516500,1.9955166015625,3.4707870483398438,-4.368654251098633,8.064664840698242
1759424282207516700,2.0055166015625,3.547436475753784,-4.421219825744629,8.002412796020508
1759424282217516500,2.0155166015625,3.5420806407928467,-4.436613082885742,7.996272563934326
1759424282227516700,2.0255166015625,3.488617181777954,-4.4169135093688965,8.030592918395996
1759424282237516500,2.0355166015625,3.4365041255950928,-4.360289573669434,8.08383846282959
1759424282247516700,2.0455166015625,3.350383996963501,-4.333151817321777,8.13442325592041
1759424282257516500,2.0555166015625,3.258942127227783,-4.3480963706970215,8.163553237915039
1759424282267516700,2.0655166015625,3.175733804702759,-4.385358810424805,8.17638874053955
1759424282277516500,2.0755166015625,3.0945775508880615,-4.427242279052734,8.18493938446045
1759424282287516700,2.0855166015625,3.0169858932495117,-4.469324111938477,8.19103717803955
1759424282297516500,2.0955166015625,2.9497857093811035,-4.503503322601318,8.196788787841797
1759424282307516700,2.1055166015625,2.9004316329956055,-4.526174068450928,8.201923370361328
1759424282317516500,2.1155166015625,2.8618905544281006,-4.536993503570557,8.209476470947266
1759424282327516700,2.1255166015625,2.81447696685791,-4.54486608505249,8.221501350402832
1759424282337516500,2.1355166015625,2.7594501972198486,-4.566412448883057,8.228212356567383
1759424282347516700,2.1455166015625,2.6993136405944824,-4.61752462387085,8.219635009765625
1759424282357516500,2.1555166015625,2.6352500915527344,-4.683735370635986,8.202937126159668
1759424282367516700,2.1655166015625,2.5726747512817383,-4.7426276206970215,8.188960075378418
1759424282377516500,2.1755166015625,2.519054889678955,-4.762403964996338,8.194151878356934
1759424282387516700,2.1855166015625,2.4631080627441406,-4.743168830871582,8.222261428833008
1759424282397516500,2.1955166015625,2.382777214050293,-4.704182147979736,8.268198013305664
1759424282407516700,2.2055166015625,2.277510166168213,-4.662181854248047,8.321474075317383
1759424282417516500,2.2155166015625,2.1651041507720947,-4.623474597930908,8.372932434082031
1759424282427516700,2.2255166015625,2.0418448448181152,-4.578695774078369,8.428317070007324
1759424282437516500,2.2355166015625,1.9130079746246338,-4.529991626739502,8.484670639038086
1759424282447516700,2.2455166015625,1.802607774734497,-4.479476451873779,8.535518646240234
1759424282457516500,2.2555166015625,1.7127939462661743,-4.434988975524902,8.577140808105469
1759424282467516700,2.2655166015625,1.6605291366577148,-4.408566951751709,8.600993156433105
1759424282477516500,2.2755166015625,1.6201515197753906,-4.405873775482178,8.61007308959961
1759424282487516700,2.2855166015625,1.5739048719406128,-4.431070804595947,8.605717658996582
1759424282497516500,2.2955166015625,1.5295462608337402,-4.476236820220947,8.590344429016113
1759424282507516700,2.3055166015625,1.495559811592102,-4.526613712310791,8.569905281066895
1759424282517516500,2.3155166015625,1.492139458656311,-4.575218677520752,8.544642448425293
1759424282527516700,2.3255166015625,1.51460599899292,-4.616353988647461,8.518533706665039
1759424282537516500,2.3355166015625,1.5477992296218872,-4.647644519805908,8.495511054992676
1759424282547516700,2.3455166015625,1.5549747943878174,-4.660208225250244,8.487326622009277
1759424282557516500,2.3555166015625,1.5237390995025635,-4.662850379943848,8.491533279418945
1759424282567516700,2.3655166015625,1.481339693069458,-4.680068492889404,8.489555358886719
1759424282577516500,2.3755166015625,1.4480657577514648,-4.743381977081299,8.460107803344727
1759424282587516700,2.3855166015625,1.4206839799880981,-4.851113319396973,8.403478622436523
1759424282597516500,2.3955166015625,1.408341407775879,-5.010573387145996,8.311494827270508
1759424282607516700,2.4055166015625,1.4084933996200562,-5.232188701629639,8.173766136169434
1759424282617516500,2.4155166015625,1.4214473962783813,-5.5174880027771,7.981656551361084
1759424282627516700,2.4255166015625,1.4758286476135254,-5.8414764404296875,7.737505912780762
1759424282637516500,2.4355166015625,1.5678154230117798,-6.157581806182861,7.469680309295654
1759424282647516700,2.4455166015625,1.6772689819335938,-6.458730697631836,7.186212062835693
1759424282657516500,2.4555166015625,1.8002055883407593,-6.747171401977539,6.885132789611816
1759424282667516700,2.4655166015625,1.9031318426132202,-7.006680011749268,6.5920209884643555
1759424282677516500,2.4755166015625,1.9835848808288574,-7.242344379425049,6.307444095611572
1759424282687516700,2.4855166015625,2.016284704208374,-7.438740253448486,6.063827037811279
1759424282697516500,2.4955166015625,2.015002727508545,-7.60016393661499,5.860673904418945
1759424282707516700,2.5055166015625,2.004845142364502,-7.720221042633057,5.705170631408691
1759424282717516500,2.5155166015625,1.993361473083496,-7.8034186363220215,5.59492301940918
1759424282727516700,2.5255166015625,1.9888826608657837,-7.857494831085205,5.520355701446533
1759424282737516500,2.5355166015625,1.9811280965805054,-7.894166469573975,5.470595359802246
1759424282747516700,2.5455166015625,1.9752401113510132,-7.921492099761963,5.433083534240723
1759424282757516500,2.5555166015625,1.982367992401123,-7.9454874992370605,5.395325183868408
1759424282767516700,2.5655166015625,2.0088083744049072,-7.963194847106934,5.359328746795654
1759424282777516500,2.5755166015625,2.0383031368255615,-7.9733710289001465,5.332982063293457
1759424282787516700,2.5855166015625,2.0427470207214355,-7.981692314147949,5.318830490112305
1759424282797516500,2.5955166015625,2.0059127807617188,-7.979820251464844,5.33560848236084
1759424282807516700,2.6055166015625,1.9005978107452393,-7.919856071472168,5.462033271789551
1759424282817516500,2.6155166015625,1.7653189897537231,-7.814903259277344,5.6551833152771
1759424282827516700,2.6255166015625,1.6046229600906372,-7.689067840576172,5.871415138244629
1759424282837516500,2.6355166015625,1.4358998537063599,-7.5674729347229,6.069731712341309
1759424282847516700,2.6455166015625,1.2772217988967896,-7.471104145050049,6.222652435302734
1759424282857516500,2.6555166015625,1.1316883563995361,-7.409677028656006,6.32343864440918
1759424282867516700,2.6655166015625,1.026007056236267,-7.384838581085205,6.370372295379639
1759424282877516500,2.6755166015625,1.0091354846954346,-7.395724296569824,6.360418796539307
1759424282887516700,2.6855166015625,1.0405691862106323,-7.448635101318359,6.293266773223877
1759424282897516500,2.6955166015625,1.0729622840881348,-7.526601314544678,6.194269180297852
1759424282927776800,2.72577685546875,1.04932701587677,-7.806980133056641,5.841236114501953
1759424282937776600,2.735776611328125,1.0032814741134644,-7.899892807006836,5.723211765289307
1759424282947776800,2.74577685546875,0.9555474519729614,-7.987959384918213,5.607972145080566
1759424282957776600,2.755776611328125,0.9224593043327332,-8.068394660949707,5.497284889221191
1759424282967776800,2.76577685546875,0.8853068351745605,-8.141372680664062,5.394860744476318
1759424282977776600,2.775776611328125,0.837888777256012,-8.209615707397461,5.298141002655029
1759424282987776800,2.78577685546875,0.7722750306129456,-8.27877426147461,5.199554920196533
1759424282997776600,2.795776611328125,0.7255353927612305,-8.348716735839844,5.093407154083252
1759424283007776800,2.80577685546875,0.7471696734428406,-8.402044296264648,5.001736164093018
1759424283017776600,2.815776611328125,0.7289835810661316,-8.44379997253418,4.9336323738098145
1759424283027776800,2.82577685546875,0.7335032224655151,-8.474397659301758,4.880237579345703
1759424283037776600,2.835776611328125,0.753326416015625,-8.497891426086426,4.8361639976501465
1759424283047776800,2.84577685546875,0.7811678051948547,-8.521346092224121,4.790268421173096
1759424283057776600,2.855776611328125,0.81124347448349,-8.545134544372559,4.74263334274292
1759424283067776800,2.86577685546875,0.837679922580719,-8.566961288452148,4.698482513427734
1759424283077776600,2.875776611328125,0.8560652136802673,-8.585433959960938,4.661289691925049
1759424283087776800,2.88577685546875,0.8701677918434143,-8.602975845336914,4.626181125640869
1759424283097776600,2.895776611328125,0.8891887664794922,-8.619953155517578,4.590857028961182
1759424283107776800,2.90577685546875,0.9127894639968872,-8.639086723327637,4.5500664710998535
1759424283117776600,2.915776611328125,0.9258698225021362,-8.660653114318848,4.5062150955200195
1759424283127776800,2.92577685546875,0.940371572971344,-8.686810493469238,4.452543258666992
1759424283137776600,2.935776611328125,0.9582979083061218,-8.717548370361328,4.388175010681152
1759424283147776800,2.94577685546875,0.9505338668823242,-8.758946418762207,4.306678295135498
1759424283157776600,2.955776611328125,0.8615378141403198,-8.8178129196167,4.204036235809326
1759424283167776800,2.96577685546875,0.7469804286956787,-8.886283874511719,4.079949855804443
1759424283177776600,2.975776611328125,0.7114320397377014,-8.948123931884766,3.9490582942962646
1759424283187776800,2.98577685546875,0.708477795124054,-9.010672569274902,3.8047399520874023
1759424283197776600,2.995776611328125,0.7109343409538269,-9.075641632080078,3.646559238433838
1759424283207776800,3.00577685546875,0.718845009803772,-9.142230987548828,3.474599838256836
1759424283217776600,3.015776611328125,0.7253415584564209,-9.210119247436523,3.28902006149292
1759424283227776800,3.02577685546875,0.7301361560821533,-9.277722358703613,3.0920658111572266
1759424283237776600,3.035776611328125,0.7347382307052612,-9.34357738494873,2.8857948780059814
1759424283247776800,3.04577685546875,0.7435397505760193,-9.406062126159668,2.672663927078247
1759424283257776600,3.055776611328125,0.7586269378662109,-9.464151382446289,2.4544670581817627
1759424283267776800,3.06577685546875,0.7735751867294312,-9.518048286437988,2.2312469482421875
1759424283277776600,3.075776611328125,0.7871829271316528,-9.566460609436035,2.0082714557647705
1759424283287776800,3.08577685546875,0.8004827499389648,-9.609123229980469,1.7871694564819336
1759424283297776600,3.095776611328125,0.8018542528152466,-9.646533966064453,1.572100281715393
1759424283307776800,3.10577685546875,0.7882803082466125,-9.678581237792969,1.3688247203826904
1759424283317776600,3.115776611328125,0.780582845211029,-9.704460144042969,1.1765953302383423
1759424283327776800,3.12577685546875,0.769984245300293,-9.728196144104004,0.9693607687950134
1759424283337776600,3.135776611328125,0.6962873935699463,-9.758105278015137,0.6817044615745544
1759424283347776800,3.14577685546875,0.5829781889915466,-9.783805847167969,0.32781413197517395
1759424283357776600,3.155776611328125,0.519321084022522,-9.792865753173828,-0.011855985969305038
1759424283367776800,3.16577685546875,0.5383663177490234,-9.786819458007812,-0.3138752281665802
1759424283377776600,3.175776611328125,0.6331484913825989,-9.770936012268066,-0.5460107922554016
1759424283387776800,3.18577685546875,0.7367709279060364,-9.752336502075195,-0.7205623388290405
1759424283397776600,3.195776611328125,0.8182205557823181,-9.736043930053711,-0.8426036834716797
1759424283407776800,3.20577685546875,0.8574380278587341,-9.724923133850098,-0.9278265833854675
1759424283417776600,3.215776611328125,0.8554383516311646,-9.718522071838379,-0.9943623542785645
1759424283427776800,3.22577685546875,0.8279398083686829,-9.714836120605469,-1.0519862174987793
1759424283437776600,3.235776611328125,0.7967405319213867,-9.711073875427246,-1.1092110872268677
1759424283447776800,3.24577685546875,0.7727594375610352,-9.7060546875,-1.1685523986816406
1759424283457776600,3.255776611328125,0.759852945804596,-9.698945045471191,-1.234164834022522
1759424283467776800,3.26577685546875,0.75404292345047,-9.69062328338623,-1.3012830018997192
1759424283477776600,3.275776611328125,0.7495397329330444,-9.682360649108887,-1.3639390468597412
1759424283487776800,3.28577685546875,0.742509126663208,-9.674772262573242,-1.4204353094100952
1759424283497776600,3.295776611328125,0.732541561126709,-9.668862342834473,-1.465174913406372
1759424283507776800,3.30577685546875,0.7207262516021729,-9.667009353637695,-1.4831329584121704
1759424283517776600,3.315776611328125,0.7087420225143433,-9.67186450958252,-1.4569281339645386
1759424283527776800,3.32577685546875,0.7031269669532776,-9.678674697875977,-1.413863182067871
1759424283537776600,3.335776611328125,0.707772433757782,-9.682732582092285,-1.3834234476089478
1759424283547776800,3.34577685546875,0.7188456654548645,-9.684575080871582,-1.3647273778915405
1759424283557776600,3.355776611328125,0.7268794178962708,-9.686148643493652,-1.3492182493209839
1759424283567776800,3.36577685546875,0.7299693822860718,-9.688142776489258,-1.3331716060638428
1759424283577776600,3.375776611328125,0.7319431304931641,-9.6900053024292,-1.318411946296692
1759424283587776800,3.38577685546875,0.7358037829399109,-9.691502571105957,-1.3051780462265015
1759424283597776600,3.395776611328125,0.742759644985199,-9.692641258239746,-1.2926771640777588
1759424283607776800,3.40577685546875,0.756271243095398,-9.693395614624023,-1.2791647911071777
1759424283617776600,3.415776611328125,0.7740018963813782,-9.693458557128906,-1.2680226564407349
1759424283627776800,3.42577685546875,0.7934691309928894,-9.692831039428711,-1.2608106136322021
1759424283637776600,3.435776611328125,0.8152240514755249,-9.691446304321289,-1.2574973106384277
1759424283647776800,3.44577685546875,0.8394163250923157,-9.689351081848145,-1.2578047513961792
1759424283657776600,3.455776611328125,0.8650968074798584,-9.686609268188477,-1.261454463005066
1759424283667776800,3.46577685546875,0.8915478587150574,-9.683384895324707,-1.2677639722824097
1759424283677776600,3.475776611328125,0.917579710483551,-9.679888725280762,-1.2759196758270264
1759424283687776800,3.48577685546875,0.9411508440971375,-9.676350593566895,-1.2855476140975952
1759424283697776600,3.495776611328125,0.9614354372024536,-9.672971725463867,-1.295944094657898
1759424283707776800,3.50577685546875,0.97780841588974,-9.670052528381348,-1.3054310083389282
1759424283717776600,3.515776611328125,0.9930602312088013,-9.667350769042969,-1.3138947486877441
1759424283727776800,3.52577685546875,1.009822130203247,-9.66466999053955,-1.320835828781128
1759424283737776600,3.535776611328125,1.0263311862945557,-9.661999702453613,-1.327630639076233
1759424283747776800,3.54577685546875,1.0415748357772827,-9.659303665161133,-1.3353654146194458
1759424283757776600,3.555776611328125,1.055503249168396,-9.656414985656738,-1.3452072143554688
1759424283767776800,3.56577685546875,1.069813847541809,-9.652908325195312,-1.3590004444122314
1759424283777776600,3.575776611328125,1.0848788022994995,-9.648713111877441,-1.3767272233963013
1759424283787776800,3.58577685546875,1.0987695455551147,-9.64437484741211,-1.3959832191467285
1759424283797776600,3.595776611328125,1.1113762855529785,-9.63998794555664,-1.4161816835403442
1759424283807776800,3.60577685546875,1.1253288984298706,-9.636011123657227,-1.4321792125701904
1759424283817776600,3.615776611328125,1.1481014490127563,-9.632040977478027,-1.4407014846801758
1759424283827776800,3.62577685546875,1.1796889305114746,-9.627867698669434,-1.443077564239502
1759424283837776600,3.635776611328125,1.2157725095748901,-9.624180793762207,-1.4377682209014893
1759424283847776800,3.64577685546875,1.255035400390625,-9.620948791503906,-1.4255739450454712
1759424283857776600,3.655776611328125,1.2913645505905151,-9.617413520812988,-1.4170231819152832
1759424283867776800,3.66577685546875,1.3069183826446533,-9.612602233886719,-1.4352964162826538
1759424283877776600,3.675776611328125,1.276840329170227,-9.607446670532227,-1.49556565284729
1759424283887776800,3.68577685546875,1.1761573553085327,-9.604453086853027,-1.5941604375839233
1759424283897776600,3.695776611328125,0.9929928779602051,-9.604438781738281,-1.7143337726593018
1759424283907776800,3.70577685546875,0.7340657114982605,-9.605158805847168,-1.836388349533081
1759424283917776600,3.715776611328125,0.4242396354675293,-9.60237979888916,-1.94536554813385
1759424283927776800,3.72577685546875,0.0995650514960289,-9.594598770141602,-2.0257537364959717
1759424283937776600,3.735776611328125,-0.20829324424266815,-9.583003044128418,-2.071902275085449
1759424283947776800,3.74577685546875,-0.47812122106552124,-9.570114135742188,-2.0866715908050537
1759424283957776600,3.755776611328125,-0.6833223104476929,-9.558876037597656,-2.0810954570770264
1759424283967776800,3.76577685546875,-0.8650538921356201,-9.54332160949707,-2.084886312484741
1759424283977776600,3.775776611328125,-1.04693603515625,-9.518460273742676,-2.114915370941162
1759424283987776800,3.78577685546875,-1.2585209608078003,-9.47867202758789,-2.177389621734619
1759424283997776600,3.795776611328125,-1.52363920211792,-9.421360969543457,-2.255340576171875
1759424284007776800,3.80577685546875,-1.8324573040008545,-9.34603214263916,-2.3375120162963867
1759424284017776600,3.815776611328125,-2.167171001434326,-9.253555297851562,-2.4176626205444336
1759424284027776800,3.82577685546875,-2.5147228240966797,-9.146726608276367,-2.48663330078125
1759424284037776600,3.835776611328125,-2.848928689956665,-9.034637451171875,-2.5354807376861572
1759424284047776800,3.84577685546875,-3.1545567512512207,-8.92760944366455,-2.5527451038360596
1759424284057776600,3.855776611328125,-3.438340187072754,-8.829519271850586,-2.5273537635803223
1759424284067776300,3.8657763671875,-3.6897199153900146,-8.752564430236816,-2.439033269882202
1759424284077776000,3.87577587890625,-3.908876895904541,-8.682875633239746,-2.3448972702026367
1759424284087775700,3.885775634765625,-4.105445861816406,-8.610787391662598,-2.2737271785736084
1759424284097775900,3.89577587890625,-4.286325454711914,-8.537614822387695,-2.2150425910949707
1759424284107775700,3.905775634765625,-4.453922271728516,-8.461955070495605,-2.1743617057800293
1759424284117776000,3.91577587890625,-4.626509666442871,-8.377341270446777,-2.1413700580596924
1759424284127775700,3.925775634765625,-4.81707763671875,-8.278590202331543,-2.1048998832702637
1759424284137775900,3.93577587890625,-5.022830963134766,-8.164795875549316,-2.0681819915771484
1759424284147775700,3.945775634765625,-5.23999547958374,-8.035520553588867,-2.0354292392730713
1759424284157776000,3.95577587890625,-5.4659833908081055,-7.891258239746094,-2.0053141117095947
1759424284167775700,3.965775634765625,-5.69275426864624,-7.735767841339111,-1.9800333976745605
1759424284177775900,3.97577587890625,-5.907354354858398,-7.572812080383301,-1.9812614917755127
1759424284187775700,3.985775634765625,-6.106177806854248,-7.405270099639893,-2.0115489959716797
1759424284197776000,3.99577587890625,-6.28428840637207,-7.241222858428955,-2.059767723083496
1759424284207775700,4.005775634765625,-6.443953990936279,-7.085608005523682,-2.1070632934570312
1759424284217775900,4.01577587890625,-6.5909743309021,-6.938551425933838,-2.1414051055908203
1759424284227775700,4.025775634765625,-6.724982738494873,-6.801939487457275,-2.162827491760254
1759424284237776000,4.03577587890625,-6.8459601402282715,-6.674867630004883,-2.1791555881500244
1759424284247775700,4.045775634765625,-6.953118324279785,-6.55604887008667,-2.200568914413452
1759424284257775900,4.05577587890625,-7.04853630065918,-6.443453788757324,-2.2294211387634277
1759424284267775700,4.065775634765625,-7.133236885070801,-6.3397722244262695,-2.2569732666015625
1759424284277776000,4.07577587890625,-7.206482887268066,-6.247480392456055,-2.2816364765167236
1759424284287776000,4.08577587890625,-7.267930507659912,-6.168318271636963,-2.301947832107544
1759424284297775900,4.09577587890625,-7.311779022216797,-6.110491752624512,-2.3172078132629395
1759424284307776000,4.10577587890625,-7.344867706298828,-6.06623649597168,-2.3289196491241455
1759424284317776000,4.11577587890625,-7.370106220245361,-6.032797336578369,-2.3359994888305664
1759424284327775700,4.125775634765625,-7.388234615325928,-6.008646488189697,-2.3409318923950195
1759424284337775900,4.13577587890625,-7.399387836456299,-5.992448806762695,-2.3472232818603516
1759424284347775700,4.145775634765625,-7.403881549835205,-5.983715057373047,-2.355311632156372
1759424284357776000,4.15577587890625,-7.4024553298950195,-5.982497692108154,-2.362914800643921
1759424284367776300,4.1657763671875,-7.394209861755371,-5.99039363861084,-2.368723154067993
1759424284377776600,4.175776611328125,-7.378689289093018,-6.009570598602295,-2.368572950363159
1759424284387776800,4.18577685546875,-7.355721950531006,-6.041779518127441,-2.3579530715942383
1759424284397776600,4.195776611328125,-7.323171615600586,-6.089791297912598,-2.335726737976074
1759424284407776800,4.20577685546875,-7.277041435241699,-6.159736633300781,-2.2961063385009766
1759424284417776600,4.215776611328125,-7.2236199378967285,-6.24163818359375,-2.2430715560913086
1759424284427776800,4.22577685546875,-7.160322189331055,-6.336429595947266,-2.1793036460876465
1759424284437776600,4.235776611328125,-7.085714340209961,-6.442007064819336,-2.112684488296509
1759424284447776800,4.24577685546875,-7.008115291595459,-6.547296047210693,-2.046726703643799
1759424284457776600,4.255776611328125,-6.933610439300537,-6.646666526794434,-1.9791380167007446
1759424284467776800,4.26577685546875,-6.866728782653809,-6.738844394683838,-1.898964762687683
1759424284477776600,4.275776611328125,-6.804622650146484,-6.827147006988525,-1.8047103881835938
1759424284487776800,4.28577685546875,-6.717431545257568,-6.93123197555542,-1.7332899570465088
1759424284497776600,4.295776611328125,-6.596053123474121,-7.0537495613098145,-1.7049310207366943
1759424284507776800,4.30577685546875,-6.451589107513428,-7.187467098236084,-1.699205756187439
1759424284517776600,4.315776611328125,-6.30401086807251,-7.321388244628906,-1.6813284158706665
1759424284527776800,4.32577685546875,-6.166337013244629,-7.448751449584961,-1.631600260734558
1759424284537776600,4.335776611328125,-6.021361351013184,-7.57647705078125,-1.5843573808670044
1759424284547776800,4.34577685546875,-5.872915744781494,-7.700157642364502,-1.5448484420776367
1759424284557776600,4.355776611328125,-5.724953651428223,-7.8190765380859375,-1.5023958683013916
1759424284567776800,4.36577685546875,-5.571491241455078,-7.9379143714904785,-1.455365538597107
1759424284577776600,4.375776611328125,-5.405257701873779,-8.060083389282227,-1.4099711179733276
1759424284587776800,4.38577685546875,-5.226443290710449,-8.183004379272461,-1.3757127523422241
1759424284597776600,4.395776611328125,-5.043605804443359,-8.300856590270996,-1.3520309925079346
1759424284607776800,4.40577685546875,-4.86761999130249,-8.40772819519043,-1.3364390134811401
1759424284617776600,4.415776611328125,-4.707624912261963,-8.499381065368652,-1.3299401998519897
1759424284627776800,4.42577685546875,-4.562763214111328,-8.576522827148438,-1.3396234512329102
1759424284637776600,4.435776611328125,-4.425781726837158,-8.641276359558105,-1.3822777271270752
1759424284647776800,4.44577685546875,-4.286403656005859,-8.701234817504883,-1.4441276788711548
1759424284657776600,4.455776611328125,-4.142328262329102,-8.758134841918945,-1.5186012983322144
1759424284667776800,4.46577685546875,-3.994713306427002,-8.812711715698242,-1.596397876739502
1759424284677776600,4.475776611328125,-3.8417916297912598,-8.866949081420898,-1.6696536540985107
1759424284687776800,4.48577685546875,-3.685199499130249,-8.92093276977539,-1.7338693141937256
1759424284697776600,4.495776611328125,-3.5248069763183594,-8.974663734436035,-1.789235234260559
1759424284707776800,4.50577685546875,-3.3616416454315186,-9.02689266204834,-1.8397496938705444
1759424284717776600,4.515776611328125,-3.197411298751831,-9.076485633850098,-1.8878690004348755
1759424284727776800,4.52577685546875,-3.0388987064361572,-9.121012687683105,-1.9344263076782227
1759424284737776600,4.535776611328125,-2.8901352882385254,-9.15953540802002,-1.979907512664795
1759424284747776800,4.54577685546875,-2.746626853942871,-9.19383716583252,-2.024784803390503
1759424284757776600,4.555776611328125,-2.602647542953491,-9.226667404174805,-2.0651049613952637
1759424284767776800,4.56577685546875,-2.4592528343200684,-9.258232116699219,-2.099325656890869
1759424284777776600,4.575776611328125,-2.3186538219451904,-9.288043975830078,-2.1274261474609375
1759424284787776800,4.58577685546875,-2.1806294918060303,-9.316606521606445,-2.1483795642852783
1759424284797776600,4.595776611328125,-2.042583465576172,-9.345312118530273,-2.1593737602233887
1759424284807776800,4.60577685546875,-1.909103512763977,-9.373000144958496,-2.161559581756592
1759424284817776600,4.615776611328125,-1.782150149345398,-9.39975357055664,-2.153740882873535
1759424284827776800,4.62577685546875,-1.6598337888717651,-9.425918579101562,-2.1370882987976074
1759424284837776600,4.635776611328125,-1.5330870151519775,-9.453703880310059,-2.108830690383911
1759424284847776800,4.64577685546875,-1.4004918336868286,-9.482582092285156,-2.0710856914520264
1759424284857776600,4.655776611328125,-1.2701172828674316,-9.509930610656738,-2.029341220855713
1759424284867776800,4.66577685546875,-1.1553038358688354,-9.532329559326172,-1.992503046989441
1759424284877776600,4.675776611328125,-1.051637053489685,-9.55089282989502,-1.9607393741607666
1759424284887776800,4.68577685546875,-0.9520845413208008,-9.567519187927246,-1.9303382635116577
1759424284897776600,4.695776611328125,-0.8508132696151733,-9.583024024963379,-1.9004782438278198
1759424284907776800,4.70577685546875,-0.7482103705406189,-9.596935272216797,-1.8732563257217407
1759424284917776600,4.715776611328125,-0.6487737894058228,-9.60836410522461,-1.8516144752502441
1759424284927776800,4.72577685546875,-0.5573264956474304,-9.616908073425293,-1.8370529413223267
1759424284937776600,4.735776611328125,-0.4757099747657776,-9.62270736694336,-1.829541802406311
1759424284947776800,4.74577685546875,-0.40453290939331055,-9.626317977905273,-1.8276994228363037
1759424284957776600,4.755776611328125,-0.3444104492664337,-9.62806510925293,-1.8308401107788086
1759424284967776800,4.76577685546875,-0.29304051399230957,-9.628018379211426,-1.8399739265441895
1759424284977776600,4.775776611328125,-0.24743379652500153,-9.626614570617676,-1.8539643287658691
1759424284987776800,4.78577685546875,-0.20730197429656982,-9.625024795532227,-1.867072343826294
1759424284997776600,4.795776611328125,-0.16374658048152924,-9.625073432922363,-1.8712036609649658
1759424285007776800,4.80577685546875,-0.11109575629234314,-9.626708030700684,-1.8666328191757202
1759424285017776600,4.815776611328125,-0.052863817662000656,-9.629270553588867,-1.8558924198150635
1759424285027776800,4.82577685546875,0.005789667367935181,-9.63231372833252,-1.8407553434371948
1759424285037776600,4.835776611328125,0.06324103474617004,-9.635787963867188,-1.8214874267578125
1759424285047776800,4.84577685546875,0.12092599272727966,-9.639303207397461,-1.7998172044754028
1759424285057776600,4.855776611328125,0.1801944226026535,-9.642990112304688,-1.7749605178833008
1759424285067776800,4.86577685546875,0.23920311033725739,-9.646993637084961,-1.745948076248169
1759424285077776600,4.875776611328125,0.2961672246456146,-9.650633811950684,-1.7168962955474854
1759424285087776800,4.88577685546875,0.3454010784626007,-9.652734756469727,-1.6957823038101196
1759424285097776600,4.895776611328125,0.36442872881889343,-9.651637077331543,-1.6980302333831787
1759424285107776800,4.90577685546875,0.34898272156715393,-9.649258613586426,-1.714624285697937
1759424285117776600,4.915776611328125,0.2953227460384369,-9.646886825561523,-1.737949013710022
1759424285127776800,4.92577685546875,0.21267671883106232,-9.64500904083252,-1.7603267431259155
1759424285137776600,4.935776611328125,0.11525192856788635,-9.643545150756836,-1.777322769165039
1759424285147776800,4.94577685546875,0.016950566321611404,-9.641544342041016,-1.7917689085006714
1759424285157776600,4.955776611328125,-0.07739420980215073,-9.63831901550293,-1.807437539100647
1759424285167776800,4.96577685546875,-0.17404045164585114,-9.63378620147705,-1.8248040676116943
1759424285177776600,4.975776611328125,-0.2822067141532898,-9.626537322998047,-1.8493976593017578
1759424285187776800,4.98577685546875,-0.41207337379455566,-9.613834381103516,-1.8906774520874023
1759424285197776600,4.995776611328125,-0.571923017501831,-9.592432975769043,-1.9566303491592407
1759424285207776800,5.00577685546875,-0.7723035216331482,-9.558156967163086,-2.053114652633667
1759424285217776600,5.015776611328125,-1.0508190393447876,-9.49742317199707,-2.2056212425231934
1759424285227776800,5.02577685546875,-1.3784451484680176,-9.41305160522461,-2.379993200302124
1759424285237776600,5.035776611328125,-1.745172381401062,-9.309611320495605,-2.5407938957214355
1759424285247776800,5.04577685546875,-2.1357314586639404,-9.1994047164917,-2.64188814163208
1759424285257776600,5.055776611328125,-2.526177406311035,-9.096380233764648,-2.654092788696289
1759424285267776800,5.06577685546875,-2.8792529106140137,-9.012433052062988,-2.57991099357605
1759424285277776600,5.075776611328125,-3.181159496307373,-8.947763442993164,-2.4469780921936035
1759424285287776800,5.08577685546875,-3.4284908771514893,-8.8930082321167,-2.3086023330688477
1759424285297776600,5.095776611328125,-3.626793146133423,-8.84434986114502,-2.189504384994507
1759424285307776800,5.10577685546875,-3.793966293334961,-8.799528121948242,-2.084210157394409
1759424285317776600,5.115776611328125,-3.9467613697052,-8.75365924835205,-1.9916750192642212
1759424285327776800,5.12577685546875,-4.102735996246338,-8.70012378692627,-1.9093495607376099
1759424285337776600,5.135776611328125,-4.270726680755615,-8.63538646697998,-1.8332903385162354
1759424285347776800,5.14577685546875,-4.44110631942749,-8.561506271362305,-1.774064302444458
1759424285357776600,5.155776611328125,-4.609878063201904,-8.479395866394043,-1.7374078035354614
1759424285367776800,5.16577685546875,-4.779603004455566,-8.388827323913574,-1.7184287309646606
1759424285377776600,5.175776611328125,-4.954358100891113,-8.28850269317627,-1.7103348970413208
1759424285387776800,5.18577685546875,-5.125463962554932,-8.182828903198242,-1.7149919271469116
1759424285397776600,5.195776611328125,-5.296003818511963,-8.069353103637695,-1.7343885898590088
1759424285407776800,5.20577685546875,-5.481456756591797,-7.938841342926025,-1.7602616548538208
1759424285417776600,5.215776611328125,-5.6902546882629395,-7.786130428314209,-1.7795896530151367
1759424285427776800,5.22577685546875,-5.912559986114502,-7.615394115447998,-1.7936776876449585
1759424285437776600,5.235776611328125,-6.122033596038818,-7.444406509399414,-1.8086726665496826
1759424285447776800,5.24577685546875,-6.302593231201172,-7.2857279777526855,-1.8344509601593018
1759424285457776600,5.255776611328125,-6.449102401733398,-7.148423194885254,-1.8652348518371582
1759424285467776800,5.26577685546875,-6.573581218719482,-7.029926300048828,-1.881055235862732
1759424285477776600,5.275776611328125,-6.683047771453857,-6.9246954917907715,-1.885550618171692
1759424285487776800,5.28577685546875,-6.779737949371338,-6.824793338775635,-1.9044872522354126
1759424285497776600,5.295776611328125,-6.867660045623779,-6.725003719329834,-1.9441157579421997
1759424285507776800,5.30577685546875,-6.948184967041016,-6.6229166984558105,-2.007467269897461
1759424285517776600,5.315776611328125,-7.023411273956299,-6.519280910491943,-2.083338737487793
1759424285527776800,5.32577685546875,-7.0935959815979,-6.418336391448975,-2.1577608585357666
1759424285537776600,5.335776611328125,-7.155267715454102,-6.324613094329834,-2.229609251022339
1759424285547776800,5.34577685546875,-7.2064056396484375,-6.2402567863464355,-2.301534414291382
1759424285557776600,5.355776611328125,-7.241189956665039,-6.173495292663574,-2.371317148208618
1759424285567776800,5.36577685546875,-7.267378807067871,-6.11895751953125,-2.4317994117736816
1759424285577776600,5.375776611328125,-7.286984920501709,-6.07757568359375,-2.4764046669006348
1759424285587776800,5.38577685546875,-7.300473213195801,-6.0505690574646,-2.5026872158050537
1759424285597776600,5.395776611328125,-7.308247089385986,-6.037321090698242,-2.5120890140533447
1759424285607776800,5.40577685546875,-7.309936046600342,-6.037015914916992,-2.5078585147857666
1759424285617776600,5.415776611328125,-7.307244300842285,-6.046700954437256,-2.4922640323638916
1759424285627776800,5.42577685546875,-7.302177429199219,-6.062822341918945,-2.467862844467163
1759424285637776600,5.435776611328125,-7.295340061187744,-6.082756519317627,-2.438835859298706
1759424285647776800,5.44577685546875,-7.284329891204834,-6.106790065765381,-2.4115965366363525
1759424285657776600,5.455776611328125,-7.266164302825928,-6.137021064758301,-2.3895628452301025
1759424285667776800,5.46577685546875,-7.23433256149292,-6.1821746826171875,-2.3696746826171875
1759424285677776600,5.475776611328125,-7.1942524909973145,-6.239374160766602,-2.3415181636810303
1759424285687776800,5.48577685546875,-7.1497907638549805,-6.304871082305908,-2.301981210708618
1759424285697776600,5.495776611328125,-7.111720561981201,-6.367281436920166,-2.247509717941284
1759424285707776800,5.50577685546875,-7.080714225769043,-6.426258087158203,-2.1764588356018066
1759424285717776600,5.515776611328125,-7.061005115509033,-6.476912975311279,-2.088486909866333
1759424285727776800,5.52577685546875,-7.0274858474731445,-6.538550853729248,-2.0079472064971924
1759424285737776600,5.535776611328125,-6.958061695098877,-6.627024173736572,-1.959039330482483
1759424285747777500,5.545777587890625,-6.856374740600586,-6.737692832946777,-1.939897060394287
1759424285807776500,5.605776611328125,-5.958266258239746,-7.623358726501465,-1.5979828834533691
1759424285817776600,5.615776611328125,-5.78908109664917,-7.770352363586426,-1.5093348026275635
1759424285827776500,5.625776611328125,-5.610504627227783,-7.915531158447266,-1.4271284341812134
1759424285837776600,5.635776611328125,-5.420281887054443,-8.05981731414795,-1.352824330329895
1759424285847776500,5.645776611328125,-5.228146076202393,-8.195212364196777,-1.2941757440567017
1759424285857776600,5.655776611328125,-5.045895099639893,-8.314497947692871,-1.2562651634216309
1759424285867776500,5.665776611328125,-4.878652095794678,-8.416184425354004,-1.239565372467041
1759424285877776600,5.675776611328125,-4.724025726318359,-8.503754615783691,-1.240801453590393
1759424285887776500,5.685776611328125,-4.576553821563721,-8.58176040649414,-1.2565215826034546
1759424285897776600,5.695776611328125,-4.432575225830078,-8.651979446411133,-1.2905305624008179
1759424285907776500,5.705776611328125,-4.2898993492126465,-8.717320442199707,-1.3322542905807495
1759424285917776600,5.715776611328125,-4.1502909660339355,-8.777594566345215,-1.377987027168274
1759424285927776500,5.725776611328125,-4.013240337371826,-8.833587646484375,-1.4254423379898071
1759424285937776600,5.735776611328125,-3.8771047592163086,-8.886457443237305,-1.4727839231491089
1759424285947776500,5.745776611328125,-3.7393088340759277,-8.938026428222656,-1.5162714719772339
1759424285957776600,5.755776611328125,-3.5967371463775635,-8.989982604980469,-1.5536613464355469
1759424285967776500,5.765776611328125,-3.446972370147705,-9.042553901672363,-1.587581992149353
1759424285977776600,5.775776611328125,-3.2928152084350586,-9.093863487243652,-1.6214275360107422
1759424285987776500,5.785776611328125,-3.1378204822540283,-9.141840934753418,-1.6585564613342285
1759424285997776600,5.795776611328125,-2.983879566192627,-9.185563087463379,-1.7006107568740845
1759424286007776500,5.805776611328125,-2.8305046558380127,-9.225179672241211,-1.7477073669433594
1759424286017776600,5.815776611328125,-2.682910203933716,-9.259003639221191,-1.8008140325546265
1759424286027776500,5.825776611328125,-2.542619466781616,-9.288224220275879,-1.8530879020690918
1759424286037776600,5.835776611328125,-2.40820574760437,-9.314437866210938,-1.9004178047180176
1759424286047775700,5.845775634765625,-2.276589870452881,-9.339802742004395,-1.9378331899642944
1759424286057776600,5.855776611328125,-2.147705554962158,-9.364975929260254,-1.963289499282837
1759424286067776800,5.86577685546875,-2.0184481143951416,-9.391424179077148,-1.9741406440734863
1759424286077776600,5.875776611328125,-1.8869999647140503,-9.41956615447998,-1.9699853658676147
1759424286087776800,5.88577685546875,-1.7509301900863647,-9.4493989944458,-1.9527539014816284
1759424286097776600,5.895776611328125,-1.6128901243209839,-9.47945499420166,-1.9257277250289917
1759424286107776800,5.90577685546875,-1.4785869121551514,-9.508275985717773,-1.8912107944488525
1759424286117776600,5.915776611328125,-1.3528028726577759,-9.534947395324707,-1.8506361246109009
1759424286127776800,5.92577685546875,-1.2330671548843384,-9.559758186340332,-1.8056769371032715
1759424286137776600,5.935776611328125,-1.1211758852005005,-9.581269264221191,-1.7642297744750977
1759424286147776800,5.94577685546875,-1.0224707126617432,-9.598965644836426,-1.7275749444961548
1759424286157776600,5.955776611328125,-0.9407801032066345,-9.612768173217773,-1.696985125541687
1759424286167776800,5.96577685546875,-0.8739379048347473,-9.623491287231445,-1.6717873811721802
1759424286177776600,5.975776611328125,-0.8120338320732117,-9.632896423339844,-1.648611307144165
1759424286187776800,5.98577685546875,-0.7487212419509888,-9.641839981079102,-1.6261738538742065
1759424286197776600,5.995776611328125,-0.6830205321311951,-9.650407791137695,-1.6041148900985718
1759424286207776800,6.00577685546875,-0.6158186793327332,-9.658470153808594,-1.582690715789795
1759424286217776600,6.015776611328125,-0.5499455332756042,-9.665360450744629,-1.5647354125976562
1759424286227776800,6.02577685546875,-0.48954376578330994,-9.670775413513184,-1.5512948036193848
1759424286237776600,6.035776611328125,-0.4360641539096832,-9.674590110778809,-1.5434558391571045
1759424286247776800,6.04577685546875,-0.3940633237361908,-9.676758766174316,-1.5411509275436401
1759424286257776600,6.055776611328125,-0.3568992018699646,-9.678240776062012,-1.540905237197876
1759424286267776800,6.06577685546875,-0.3211364150047302,-9.679328918457031,-1.5419394969940186
1759424286277776600,6.075776611328125,-0.2851153612136841,-9.680062294006348,-1.5443977117538452
1759424286287776800,6.08577685546875,-0.25122740864753723,-9.680506706237793,-1.5475236177444458
1759424286297776600,6.095776611328125,-0.22253213822841644,-9.680597305297852,-1.5513421297073364
1759424286307776800,6.10577685546875,-0.2000984102487564,-9.680509567260742,-1.5549334287643433
1759424286317776600,6.115776611328125,-0.18276505172252655,-9.68053150177002,-1.5568804740905762
1759424286327776800,6.12577685546875,-0.16266517341136932,-9.680904388427734,-1.5567866563796997
1759424286337776600,6.135776611328125,-0.13669200241565704,-9.682188987731934,-1.5513898134231567
1759424286347776800,6.14577685546875,-0.10353690385818481,-9.684453010559082,-1.539736032485962
1759424286357776600,6.155776611328125,-0.06322763860225677,-9.68753719329834,-1.5224480628967285
1759424286367776800,6.16577685546875,-0.02062714844942093,-9.690640449523926,-1.5037407875061035
1759424286377776600,6.175776611328125,0.023226475343108177,-9.693757057189941,-1.4834879636764526
1759424286387776800,6.18577685546875,0.06742902100086212,-9.696885108947754,-1.461477279663086
1759424286397776600,6.195776611328125,0.1111627146601677,-9.699771881103516,-1.4394776821136475
1759424286407776800,6.20577685546875,0.15275289118289948,-9.701693534851074,-1.4226168394088745
1759424286417776600,6.215776611328125,0.1854427009820938,-9.701793670654297,-1.4180452823638916
1759424286427776800,6.22577685546875,0.1974351853132248,-9.699551582336426,-1.431687355041504
1759424286437776600,6.235776611328125,0.17534615099430084,-9.695402145385742,-1.4623771905899048
1759424286447775700,6.245775634765625,0.11424649506807327,-9.690147399902344,-1.5027055740356445
1759424286457775900,6.25577587890625,0.023898739367723465,-9.684520721435547,-1.5425540208816528
1759424286467775700,6.265775634765625,-0.07818696647882462,-9.678328514099121,-1.5792373418807983
1759424286477776000,6.27577587890625,-0.17602790892124176,-9.671796798706055,-1.6110260486602783
1759424286487775700,6.285775634765625,-0.2743576169013977,-9.66421890258789,-1.642491340637207
1759424286497775900,6.29577587890625,-0.38210588693618774,-9.654450416564941,-1.6779992580413818
1759424286507775700,6.305775634765625,-0.5095726847648621,-9.640303611755371,-1.7247575521469116
1759424286517776000,6.31577587890625,-0.6681123971939087,-9.618501663208008,-1.7911057472229004
1759424286527775700,6.325775634765625,-0.8658468723297119,-9.584939002990723,-1.8840117454528809
1759424286537775900,6.33577587890625,-1.1045268774032593,-9.5357027053833,-2.0050742626190186
1759424286547775700,6.345775634765625,-1.3793140649795532,-9.468886375427246,-2.146580219268799
1759424286557776000,6.35577587890625,-1.6798615455627441,-9.385643005371094,-2.293012857437134
1759424286567775700,6.365775634765625,-1.9959501028060913,-9.291658401489258,-2.4189233779907227
1759424286577775900,6.37577587890625,-2.316333055496216,-9.19500732421875,-2.50128173828125
1759424286587775700,6.385775634765625,-2.6353564262390137,-9.109451293945312,-2.4985687732696533
1759424286597776000,6.39577587890625,-2.943344831466675,-9.02871036529541,-2.447197914123535
1759424286607775700,6.405775634765625,-3.2281601428985596,-8.953611373901367,-2.362549304962158
1759424286617775900,6.41577587890625,-3.488093137741089,-8.882323265075684,-2.25991153717041
1759424286627775700,6.425775634765625,-3.7217354774475098,-8.814069747924805,-2.1520004272460938
1759424286637776000,6.43577587890625,-3.9284956455230713,-8.747299194335938,-2.0546486377716064
1759424286647775700,6.445775634765625,-4.1092705726623535,-8.684219360351562,-1.9667807817459106
1759424286657775900,6.45577587890625,-4.272563457489014,-8.623673439025879,-1.8834148645401
1759424286667775700,6.465775634765625,-4.430658340454102,-8.560286521911621,-1.8057464361190796
1759424286677776000,6.47577587890625,-4.587190628051758,-8.491783142089844,-1.737034797668457
1759424286687775700,6.485775634765625,-4.734896183013916,-8.420514106750488,-1.6868337392807007
1759424286697775900,6.49577587890625,-4.873624324798584,-8.343270301818848,-1.6756623983383179
1759424286707775700,6.505775634765625,-5.021945476531982,-8.249863624572754,-1.6999324560165405
1759424286717776000,6.51577587890625,-5.195009231567383,-8.129857063293457,-1.7571086883544922
1759424286727775700,6.525775634765625,-5.405284404754639,-7.975707054138184,-1.827852725982666
1759424286737775900,6.53577587890625,-5.650990962982178,-7.7884979248046875,-1.890953779220581
1759424286747776800,6.54577685546875,-5.912841796875,-7.57965612411499,-1.9382647275924683
1759424286757776600,6.555776611328125,-6.170024394989014,-7.359975337982178,-1.9828033447265625
1759424286767776800,6.56577685546875,-6.3902201652526855,-7.151686191558838,-2.0465087890625
1759424286777776600,6.575776611328125,-6.5487847328186035,-6.980858325958252,-2.1333117485046387
1759424286787776800,6.58577685546875,-6.673120498657227,-6.844658851623535,-2.1886067390441895
1759424286797776600,6.595776611328125,-6.781156063079834,-6.7367329597473145,-2.191429376602173
1759424286807776800,6.60577685546875,-6.872584819793701,-6.646398544311523,-2.1823813915252686
1759424286817776600,6.615776611328125,-6.9551005363464355,-6.552113056182861,-2.205889940261841
1759424286827776800,6.62577685546875,-7.037530422210693,-6.4477410316467285,-2.2516233921051025
1759424286837776600,6.635776611328125,-7.118427753448486,-6.335205078125,-2.315821409225464
1759424286847776800,6.64577685546875,-7.194920539855957,-6.219040393829346,-2.3930108547210693
1759424286857776600,6.655776611328125,-7.261875629425049,-6.107959747314453,-2.475416898727417
1759424286867776800,6.66577685546875,-7.318209648132324,-6.008143424987793,-2.552591562271118
1759424286877776600,6.675776611328125,-7.361753940582275,-5.924692153930664,-2.6214964389801025
1759424286887776800,6.68577685546875,-7.389686107635498,-5.861243724822998,-2.6847965717315674
1759424286897776600,6.695776611328125,-7.405340194702148,-5.817641258239746,-2.7360777854919434
1759424286907776800,6.70577685546875,-7.410369873046875,-5.794233322143555,-2.7718796730041504
1759424286917776600,6.715776611328125,-7.405672550201416,-5.7915825843811035,-2.7898247241973877
1759424286927776800,6.72577685546875,-7.386898994445801,-5.818210124969482,-2.784273862838745
1759424286937776600,6.735776611328125,-7.359278202056885,-5.863679885864258,-2.7618966102600098
1759424286947776800,6.74577685546875,-7.3215250968933105,-5.928653717041016,-2.7233223915100098
1759424286957776600,6.755776611328125,-7.275106430053711,-6.0096516609191895,-2.6695871353149414
1759424286967776800,6.76577685546875,-7.228222846984863,-6.097134113311768,-2.597621202468872
1759424286977776600,6.775776611328125,-7.190398693084717,-6.181214809417725,-2.502164602279663
1759424286987776500,6.785776611328125,-7.152385711669922,-6.2710041999816895,-2.384890556335449
1759424286997776600,6.795776611328125,-7.0950846672058105,-6.378570556640625,-2.2679760456085205
1759424287007776500,6.805776611328125,-7.013680458068848,-6.49884033203125,-2.177975654602051
1759424287017776600,6.815776611328125,-6.913268089294434,-6.626157760620117,-2.1143546104431152
1759424287027776800,6.82577685546875,-6.79446268081665,-6.763470649719238,-2.0642049312591553
1759424287037776600,6.835776611328125,-6.648318767547607,-6.921417236328125,-2.0159287452697754
1759424287047776800,6.84577685546875,-6.492491722106934,-7.08627986907959,-1.9498579502105713
1759424287057776600,6.855776611328125,-6.31245756149292,-7.264317035675049,-1.8847458362579346
1759424287067776800,6.86577685546875,-6.120752811431885,-7.443686008453369,-1.8159067630767822
1759424287077776600,6.875776611328125,-5.941323757171631,-7.6059160232543945,-1.737922191619873
1759424287087776500,6.885776611328125,-5.784229755401611,-7.744158744812012,-1.6555125713348389
1759424287097776600,6.895776611328125,-5.643115997314453,-7.8642096519470215,-1.5746949911117554
1759424287107776500,6.905776611328125,-5.509054183959961,-7.973236083984375,-1.4992276430130005
1759424287117776600,6.915776611328125,-5.375073432922363,-8.07565975189209,-1.4359697103500366
1759424287127776500,6.925776611328125,-5.236968994140625,-8.173677444458008,-1.3910807371139526
1759424287137776600,6.935776611328125,-5.0945658683776855,-8.267380714416504,-1.3659178018569946
1759424287147776500,6.945776611328125,-4.948182582855225,-8.357234001159668,-1.3573529720306396
1759424287157776600,6.955776611328125,-4.796089172363281,-8.443309783935547,-1.3703899383544922
1759424287167776500,6.965776611328125,-4.6379570960998535,-8.526739120483398,-1.3978503942489624
1759424287177776600,6.975776611328125,-4.472475051879883,-8.608266830444336,-1.4368491172790527
1759424287187776500,6.985776611328125,-4.300630569458008,-8.687406539916992,-1.484310507774353
1759424287197816000,6.995816162109375,-4.128728866577148,-8.761898040771484,-1.5338959693908691
1759424287207816200,7.005816162109375,-3.963970422744751,-8.829120635986328,-1.5822323560714722
1759424287217816000,7.015816162109375,-3.8081183433532715,-8.888647079467773,-1.630975365638733
1759424287227816200,7.025816162109375,-3.6584200859069824,-8.942049026489258,-1.6810375452041626
1759424287237816000,7.035816162109375,-3.509547233581543,-8.991899490356445,-1.7317672967910767
1759424287247816200,7.045816162109375,-3.3575708866119385,-9.039643287658691,-1.7837185859680176
1759424287257816000,7.055816162109375,-3.2006335258483887,-9.085929870605469,-1.8362842798233032
1759424287267816200,7.065816162109375,-3.0388894081115723,-9.130363464355469,-1.8898835182189941
1759424287277816000,7.075816162109375,-2.875845432281494,-9.172318458557129,-1.9411238431930542
1759424287287816200,7.085816162109375,-2.7196006774902344,-9.209725379943848,-1.9887293577194214
1759424287297816000,7.095816162109375,-2.573070764541626,-9.24254035949707,-2.031033754348755
1759424287307816200,7.105816162109375,-2.436170816421509,-9.271567344665527,-2.067101240158081
1759424287317816000,7.115816162109375,-2.3053698539733887,-9.29849910736084,-2.09598445892334
1759424287327816200,7.125816162109375,-2.176604747772217,-9.32562255859375,-2.1131069660186768
1759424287337816000,7.135816162109375,-2.0459322929382324,-9.353948593139648,-2.1185052394866943
1759424287347816200,7.145816162109375,-1.9095832109451294,-9.383796691894531,-2.113774299621582
1759424287357816000,7.155816162109375,-1.7672104835510254,-9.414117813110352,-2.10276460647583
1759424287367816200,7.165816162109375,-1.6222816705703735,-9.443474769592285,-2.0878186225891113
1759424287377816000,7.175816162109375,-1.4814083576202393,-9.470349311828613,-2.0707523822784424
1759424287387816200,7.185816162109375,-1.3524008989334106,-9.49429702758789,-2.0492146015167236
1759424287397816300,7.19581640625,-1.2285170555114746,-9.516439437866211,-2.0243804454803467
1759424287407816200,7.205816162109375,-1.1123064756393433,-9.536276817321777,-1.99801766872406
1759424287417816300,7.21581640625,-1.0073994398117065,-9.553292274475098,-1.9722665548324585
1759424287427816200,7.225816162109375,-0.9133262038230896,-9.56814193725586,-1.945963978767395
1759424287437816300,7.23581640625,-0.8295845985412598,-9.580533027648926,-1.9222569465637207
1759424287447816200,7.245816162109375,-0.7545412182807922,-9.590997695922852,-1.9009555578231812
1759424287457816300,7.25581640625,-0.686713695526123,-9.600419044494629,-1.8788998126983643
1759424287467816200,7.265816162109375,-0.6262215971946716,-9.608970642089844,-1.8561980724334717
1759424287477816300,7.27581640625,-0.572192370891571,-9.61650276184082,-1.8345351219177246
1759424287487816200,7.285816162109375,-0.5214992761611938,-9.623180389404297,-1.814488410949707
1759424287497816000,7.295816162109375,-0.4709722399711609,-9.62924861907959,-1.7960410118103027
1759424287507816000,7.30581591796875,-0.41919419169425964,-9.6333646774292,-1.7867989540100098
1759424287517816000,7.315816162109375,-0.3703133165836334,-9.636317253112793,-1.7816767692565918
1759424287527816000,7.32581591796875,-0.3246628940105438,-9.6384916305542,-1.7787606716156006
1759424287537816000,7.335816162109375,-0.28169143199920654,-9.640094757080078,-1.7774112224578857
1759424287547816000,7.34581591796875,-0.23910872638225555,-9.641214370727539,-1.7775551080703735
1759424287557816000,7.355816162109375,-0.19790948927402496,-9.64202880859375,-1.778276801109314
1759424287567816000,7.36581591796875,-0.16016995906829834,-9.642626762390137,-1.778847098350525
1759424287577816000,7.375816162109375,-0.11905108392238617,-9.642396926879883,-1.7832446098327637
1759424287587816000,7.38581591796875,-0.06915800273418427,-9.641361236572266,-1.7915067672729492
1759424287597816000,7.395816162109375,-0.014257466420531273,-9.6409912109375,-1.7947746515274048
1759424287607816000,7.40581591796875,0.046656347811222076,-9.641724586486816,-1.790313720703125
1759424287617816000,7.415816162109375,0.11789409071207047,-9.643230438232422,-1.7788410186767578
1759424287627816000,7.42581591796875,0.1870674341917038,-9.644508361816406,-1.7659544944763184
1759424287637816000,7.435816162109375,0.241604745388031,-9.645352363586426,-1.7546768188476562
1759424287647816000,7.44581591796875,0.26790300011634827,-9.645052909851074,-1.7525177001953125
1759424287657816000,7.455816162109375,0.2563484311103821,-9.64399528503418,-1.7600500583648682
1759424287667816000,7.46581591796875,0.20739538967609406,-9.643587112426758,-1.7687008380889893
1759424287677816000,7.475816162109375,0.13078942894935608,-9.64323902130127,-1.777891755104065
1759424287687816000,7.48581591796875,0.042888350784778595,-9.642718315124512,-1.7850004434585571
1759424287697816000,7.495816162109375,-0.04009335860610008,-9.642637252807617,-1.7854759693145752
1759424287707816000,7.50581591796875,-0.108911894261837,-9.643349647521973,-1.7787717580795288
1759424287717816000,7.515816162109375,-0.16069653630256653,-9.644379615783691,-1.7692110538482666
1759424287727816000,7.52581591796875,-0.20094025135040283,-9.644266128540039,-1.7656763792037964
1759424287737816000,7.535816162109375,-0.2779321074485779,-9.6367826461792,-1.7958885431289673
1759424287747816000,7.54581591796875,-0.4090922176837921,-9.620489120483398,-1.857069492340088
1759424287757816000,7.555816162109375,-0.5947942733764648,-9.59131145477295,-1.9552456140518188
1759424287767816000,7.56581591796875,-0.825427770614624,-9.545477867126465,-2.091041088104248
1759424287777816000,7.575816162109375,-1.0886447429656982,-9.480873107910156,-2.2578728199005127
1759424287787816000,7.58581591796875,-1.3727601766586304,-9.39975643157959,-2.435180425643921
1759424287797816000,7.595816162109375,-1.6709800958633423,-9.30920124053955,-2.591670036315918
1759424287807816000,7.60581591796875,-1.9795485734939575,-9.219465255737305,-2.6931183338165283
1759424287817816000,7.615816162109375,-2.2894835472106934,-9.139873504638672,-2.7186026573181152
1759424287827816000,7.62581591796875,-2.5955355167388916,-9.070268630981445,-2.676494836807251
1759424287837816000,7.635816162109375,-2.8883659839630127,-9.005602836608887,-2.5935475826263428
1759424287847816000,7.64581591796875,-3.1518712043762207,-8.94364070892334,-2.4994335174560547
1759424287857816000,7.655816162109375,-3.379861354827881,-8.887288093566895,-2.400550365447998
1759424287867816000,7.66581591796875,-3.575255870819092,-8.83288860321045,-2.3167500495910645
1759424287877816000,7.675816162109375,-3.7444705963134766,-8.778857231140137,-2.2540135383605957
1759424287887816000,7.68581591796875,-3.899564027786255,-8.722224235534668,-2.2104077339172363
1759424287897816000,7.695816162109375,-4.050260543823242,-8.6607666015625,-2.180957794189453
1759424287907816000,7.70581591796875,-4.203810691833496,-8.591601371765137,-2.163869857788086
1759424287917816000,7.715816162109375,-4.363632678985596,-8.514690399169922,-2.151475667953491
1759424287927816000,7.72581591796875,-4.530999183654785,-8.429956436157227,-2.139153480529785
1759424287937816000,7.735816162109375,-4.698928356170654,-8.339177131652832,-2.132659435272217
1759424287947816000,7.74581591796875,-4.861021995544434,-8.243030548095703,-2.143040418624878
1759424287957816000,7.755816162109375,-5.018033504486084,-8.140371322631836,-2.173353433609009
1759424287967816000,7.76581591796875,-5.190526962280273,-8.021401405334473,-2.210364580154419
1759424287977816000,7.775816162109375,-5.380488872528076,-7.888306140899658,-2.2348875999450684
1759424287987816000,7.78581591796875,-5.5836381912231445,-7.743127822875977,-2.244278907775879
1759424287997816000,7.795816162109375,-5.788186550140381,-7.5914998054504395,-2.2441093921661377
1759424288007816000,7.80581591796875,-5.980101108551025,-7.440676212310791,-2.2460432052612305
1759424288017816000,7.815816162109375,-6.146734714508057,-7.299067974090576,-2.2607743740081787
1759424288027816000,7.82581591796875,-6.283164024353027,-7.174872398376465,-2.2831220626831055
1759424288037816000,7.835816162109375,-6.396754741668701,-7.068003177642822,-2.3010828495025635
1759424288047816000,7.84581591796875,-6.498712062835693,-6.9687957763671875,-2.3178389072418213
1759424288057816000,7.855816162109375,-6.592947959899902,-6.87101411819458,-2.343581438064575
1759424288067816000,7.86581591796875,-6.684747695922852,-6.769725322723389,-2.3780529499053955
1759424288077816000,7.875816162109375,-6.76959228515625,-6.664069652557373,-2.435682773590088
1759424288087816000,7.88581591796875,-6.842244625091553,-6.560826301574707,-2.5118041038513184
1759424288097816000,7.895816162109375,-6.902055263519287,-6.465222358703613,-2.5947208404541016
1759424288107816000,7.90581591796875,-6.948983192443848,-6.3815178871154785,-2.6753664016723633
1759424288117816000,7.915816162109375,-6.985958576202393,-6.310134410858154,-2.7474496364593506
1759424288127816000,7.92581591796875,-7.017503261566162,-6.250174522399902,-2.803563356399536
1759424288137816000,7.935816162109375,-7.043051719665527,-6.202295303344727,-2.8455142974853516
1759424288147816000,7.94581591796875,-7.059418201446533,-6.166074275970459,-2.883444309234619
1759424288157816000,7.955816162109375,-7.067101955413818,-6.139955997467041,-2.9200451374053955
1759424288167816000,7.96581591796875,-7.067037105560303,-6.124899864196777,-2.951737642288208
1759424288177816000,7.975816162109375,-7.058960437774658,-6.124499320983887,-2.971749782562256
1759424288187816000,7.98581591796875,-7.039930820465088,-6.153564453125,-2.9568161964416504
1759424288197816000,7.995816162109375,-7.015325546264648,-6.2024431228637695,-2.9128451347351074
1759424288207816000,8.00581591796875,-6.986331462860107,-6.2676472663879395,-2.8421595096588135
1759424288217816000,8.015816162109376,-6.954578876495361,-6.342911720275879,-2.7515628337860107
1759424288227816000,8.02581591796875,-6.921615123748779,-6.4216084480285645,-2.6502983570098877
1759424288237816000,8.035816162109375,-6.889708995819092,-6.496865272521973,-2.548036575317383
1759424288247816000,8.04581591796875,-6.868058204650879,-6.556648254394531,-2.451589822769165
1759424288257816000,8.055816162109375,-6.854099750518799,-6.6044769287109375,-2.360485792160034
1759424288267816000,8.06581591796875,-6.823816299438477,-6.664811611175537,-2.2771706581115723
1759424288277816000,8.075816162109374,-6.760072708129883,-6.749137878417969,-2.218231678009033
1759424288287816000,8.08581591796875,-6.666347980499268,-6.853243827819824,-2.1823296546936035
1759424288297816000,8.095816162109376,-6.5689921379089355,-6.9614434242248535,-2.134626865386963
1759424288307816000,8.10581591796875,-6.454559803009033,-7.086389064788818,-2.0715932846069336
1759424288317816000,8.115816162109375,-6.319665431976318,-7.22383451461792,-2.0120480060577393
1759424288327816000,8.12581591796875,-6.181665897369385,-7.358761310577393,-1.9507921934127808
1759424288337816000,8.135816162109375,-6.049238204956055,-7.484279155731201,-1.8873580694198608
1759424288347816000,8.14581591796875,-5.918315887451172,-7.6042399406433105,-1.8217428922653198
1759424288357816000,8.155816162109375,-5.782009601593018,-7.724076747894287,-1.7541011571884155
1759424288367816000,8.16581591796875,-5.634815692901611,-7.846976280212402,-1.686306118965149
1759424288377816000,8.175816162109374,-5.479964256286621,-7.969680309295654,-1.6198805570602417
1759424288387816000,8.18581591796875,-5.322126388549805,-8.088216781616211,-1.5573925971984863
1759424288397816000,8.195816162109375,-5.1614766120910645,-8.201736450195312,-1.5035157203674316
1759424288407816000,8.20581591796875,-5.000411033630371,-8.308587074279785,-1.4606289863586426
1759424288417816000,8.215816162109375,-4.844935894012451,-8.404863357543945,-1.4335318803787231
1759424288427816000,8.22581591796875,-4.689600467681885,-8.494857788085938,-1.4196254014968872
1759424288437816000,8.235816162109375,-4.530255317687988,-8.580663681030273,-1.4208788871765137
1759424288447816000,8.24581591796875,-4.364166736602783,-8.663421630859375,-1.4385111331939697
1759424288457816000,8.255816162109374,-4.188806533813477,-8.744002342224121,-1.471763014793396
1759424288467816000,8.26581591796875,-4.008692741394043,-8.820009231567383,-1.5190529823303223
1759424288477816000,8.275816162109376,-3.829444169998169,-8.889328002929688,-1.5764273405075073
1759424288487816000,8.28581591796875,-3.659149408340454,-8.949468612670898,-1.6394041776657104
1759424288497816000,8.295816162109375,-3.498333692550659,-9.00150203704834,-1.7043157815933228
1759424288507816000,8.30581591796875,-3.341874837875366,-9.048206329345703,-1.76973295211792
1759424288517816000,8.315816162109375,-3.1840360164642334,-9.091886520385742,-1.835611343383789
1759424288527816000,8.32581591796875,-3.0219647884368896,-9.133635520935059,-1.9011927843093872
1759424288537816000,8.335816162109374,-2.861114025115967,-9.171435356140137,-1.9669448137283325
1759424288547816000,8.34581591796875,-2.709667921066284,-9.203937530517578,-2.0286874771118164
1759424288557816000,8.355816162109376,-2.5736143589019775,-9.230267524719238,-2.085369348526001
1759424288567816000,8.36581591796875,-2.4527649879455566,-9.251199722290039,-2.137599468231201
1759424288577816000,8.375816162109375,-2.34161639213562,-9.269721031188965,-2.1815638542175293
1759424288587816000,8.38581591796875,-2.2347488403320312,-9.287549018859863,-2.217560291290283
1759424288597816000,8.395816162109375,-2.126537799835205,-9.305803298950195,-2.2472424507141113
1759424288607816000,8.40581591796875,-2.01375675201416,-9.325151443481445,-2.2707905769348145
1759424288617816000,8.415816162109374,-1.8968020677566528,-9.345963478088379,-2.2858517169952393
1759424288627816000,8.42581591796875,-1.7766286134719849,-9.369407653808594,-2.286414623260498
1759424288637816000,8.435816162109376,-1.6517051458358765,-9.396098136901855,-2.270536184310913
1759424288647816000,8.44581591796875,-1.523221492767334,-9.426104545593262,-2.2357265949249268
1759424288657816000,8.455816162109375,-1.3960553407669067,-9.455049514770508,-2.196113348007202
1759424288667816000,8.46581591796875,-1.2706440687179565,-9.482255935668945,-2.1546032428741455
1759424288677816000,8.475816162109375,-1.1469345092773438,-9.5072021484375,-2.113680839538574
1759424288687816000,8.48581591796875,-1.0262974500656128,-9.529411315917969,-2.0753724575042725
1759424288697816000,8.495816162109374,-0.909970760345459,-9.549093246459961,-2.038879632949829
1759424288707816000,8.50581591796875,-0.8030200004577637,-9.565901756286621,-2.0046865940093994
1759424288717816000,8.515816162109376,-0.7103815078735352,-9.579377174377441,-1.9751049280166626
1759424288727816000,8.52581591796875,-0.631816565990448,-9.589911460876465,-1.9504913091659546
1759424288737816000,8.535816162109375,-0.5605003833770752,-9.599023818969727,-1.927358627319336
1759424288747816000,8.54581591796875,-0.4922504127025604,-9.607074737548828,-1.9057077169418335
1759424288757816000,8.555816162109375,-0.4255285859107971,-9.61377239227295,-1.8879302740097046
1759424288767816000,8.56581591796875,-0.35801947116851807,-9.618354797363281,-1.8786178827285767
1759424288777816000,8.575816162109374,-0.29401788115501404,-9.6216402053833,-1.8728657960891724
1759424288787816000,8.58581591796875,-0.23879092931747437,-9.624041557312012,-1.868424892425537
1759424288797816000,8.595816162109376,-0.19453193247318268,-9.625760078430176,-1.8646554946899414
1759424288807816000,8.60581591796875,-0.15741536021232605,-9.627174377441406,-1.8608570098876953
1759424288817816000,8.615816162109375,-0.12149897962808609,-9.628445625305176,-1.8569574356079102
1759424288827816000,8.62581591796875,-0.08365170657634735,-9.628708839416504,-1.8577035665512085
1759424288837816000,8.635816162109375,-0.043851662427186966,-9.62822437286377,-1.8615374565124512
1759424288847816000,8.64581591796875,-0.0006659074570052326,-9.627462387084961,-1.8660417795181274
1759424288857816000,8.655816162109375,0.045768409967422485,-9.626461029052734,-1.8706108331680298
1759424288867816000,8.66581591796875,0.09583436697721481,-9.625444412231445,-1.8739157915115356
1759424288877816000,8.675816162109374,0.15054629743099213,-9.625997543334961,-1.8675135374069214
1759424288887816000,8.68581591796875,0.20638296008110046,-9.627511978149414,-1.8542863130569458
1759424288897816000,8.695816162109375,0.26467084884643555,-9.629207611083984,-1.8380614519119263
1759424288907816000,8.70581591796875,0.3270511031150818,-9.630494117736816,-1.8211995363235474
1759424288917816000,8.715816162109375,0.38989269733428955,-9.631389617919922,-1.8040050268173218
1759424288927816000,8.72581591796875,0.44675710797309875,-9.631987571716309,-1.7875480651855469
1759424288937816000,8.735816162109375,0.4950624406337738,-9.632060050964355,-1.7743898630142212
1759424288947816000,8.74581591796875,0.5317022800445557,-9.63145923614502,-1.7669965028762817
1759424288957816000,8.755816162109374,0.5531634092330933,-9.630338668823242,-1.7665303945541382
1759424288967816000,8.76581591796875,0.5574501156806946,-9.629036903381348,-1.7723140716552734
1759424288977816000,8.775816162109376,0.5452426671981812,-9.628263473510742,-1.7802916765213013
1759424288987816000,8.78581591796875,0.5209684371948242,-9.629256248474121,-1.782223105430603
1759424288997816000,8.795816162109375,0.49144020676612854,-9.631478309631348,-1.7784955501556396
1759424289007816000,8.80581591796875,0.4667840003967285,-9.633001327514648,-1.776968240737915
1759424289017816000,8.815816162109375,0.44348618388175964,-9.633954048156738,-1.7777537107467651
1759424289027816000,8.82581591796875,0.4111000895500183,-9.6346435546875,-1.7817806005477905
1759424289037816000,8.835816162109374,0.3653998374938965,-9.634713172912598,-1.791294813156128
1759424289047816000,8.84581591796875,0.3080804944038391,-9.63363265991211,-1.807868480682373
1759424289057816000,8.855816162109376,0.24176084995269775,-9.6310396194458,-1.83164381980896
1759424289067816000,8.86581591796875,0.16593286395072937,-9.626538276672363,-1.8633955717086792
1759424289077816000,8.875816162109375,0.0777805969119072,-9.619443893432617,-1.9053245782852173
1759424289087816000,8.88581591796875,-0.027123570442199707,-9.609075546264648,-1.9583066701889038
1759424289097816000,8.895816162109375,-0.1524214893579483,-9.594748497009277,-2.02180552482605
1759424289107816000,8.90581591796875,-0.3131609261035919,-9.57468318939209,-2.097032070159912
1759424289117816000,8.915816162109374,-0.4967932105064392,-9.54864501953125,-2.178743362426758
1759424289127816000,8.92581591796875,-0.7055091857910156,-9.51537036895752,-2.2649664878845215
1759424289137816000,8.935816162109376,-0.9407516121864319,-9.47378158569336,-2.3521008491516113
1759424289147816000,8.94581591796875,-1.200351357460022,-9.423762321472168,-2.4335432052612305
1759424289157816000,8.955816162109375,-1.47346031665802,-9.366242408752441,-2.5044987201690674
1759424289177816000,8.975816162109375,-1.9996076822280884,-9.244020462036133,-2.592285633087158
1759424289187816000,8.98581591796875,-2.2279744148254395,-9.188846588134766,-2.602193832397461
1759424289197816000,8.995816162109374,-2.4347519874572754,-9.139447212219238,-2.5908331871032715
1759424289207816000,9.00581591796875,-2.630605697631836,-9.091887474060059,-2.5665969848632812
1759424289217816000,9.015816162109376,-2.818856954574585,-9.04214859008789,-2.542351722717285
1759424289227816000,9.02581591796875,-2.992445230484009,-8.990461349487305,-2.5272750854492188
1759424289237816000,9.035816162109375,-3.148348569869995,-8.941115379333496,-2.5128345489501953
1759424289247816000,9.04581591796875,-3.2855215072631836,-8.895319938659668,-2.499753713607788
1759424289257816000,9.055816162109375,-3.4033985137939453,-8.853134155273438,-2.4918291568756104
1759424289267816000,9.06581591796875,-3.5055458545684814,-8.812788009643555,-2.493173837661743
1759424289277816000,9.075816162109374,-3.5919058322906494,-8.773249626159668,-2.5096278190612793
1759424289287816000,9.08581591796875,-3.6739001274108887,-8.732157707214355,-2.534196376800537
1759424289297816000,9.095816162109376,-3.7664129734039307,-8.686797142028809,-2.554165840148926
1759424289307816000,9.10581591796875,-3.8759782314300537,-8.636863708496094,-2.559570074081421
1759424289317816000,9.115816162109375,-3.997978925704956,-8.584378242492676,-2.5484073162078857
1759424289327816000,9.12581591796875,-4.113903045654297,-8.535011291503906,-2.5296378135681152
1759424289337816000,9.135816162109375,-4.1945109367370605,-8.500035285949707,-2.515007734298706
1759424289347816000,9.14581591796875,-4.251140594482422,-8.475704193115234,-2.5020477771759033
1759424289357816000,9.155816162109375,-4.295682430267334,-8.458626747131348,-2.4837474822998047
1759424289367816000,9.16581591796875,-4.333660125732422,-8.446441650390625,-2.459137439727783
1759424289377816000,9.175816162109374,-4.369772911071777,-8.435308456420898,-2.4332683086395264
1759424289387816000,9.18581591796875,-4.40991735458374,-8.42142105102539,-2.408824920654297
1759424289397816000,9.195816162109375,-4.457234859466553,-8.40234661102295,-2.388218879699707
1759424289407816000,9.20581591796875,-4.502471923828125,-8.381950378417969,-2.3749895095825195
1759424289417816000,9.215816162109375,-4.542370319366455,-8.361701965332031,-2.370435953140259
1759424289427816000,9.22581591796875,-4.5783538818359375,-8.341322898864746,-2.3729546070098877
1759424289437816000,9.235816162109375,-4.613708972930908,-8.319897651672363,-2.379723310470581
1759424289447816000,9.24581591796875,-4.645083427429199,-8.296576499938965,-2.3999831676483154
1759424289457816000,9.255816162109374,-4.673427104949951,-8.272482872009277,-2.4279251098632812
1759424289467816000,9.26581591796875,-4.698305130004883,-8.248827934265137,-2.460205316543579
1759424289477816000,9.275816162109376,-4.71896505355835,-8.227391242980957,-2.4922215938568115
1759424289487816000,9.28581591796875,-4.733757972717285,-8.209680557250977,-2.5224673748016357
1759424289497816000,9.295816162109375,-4.741199016571045,-8.197309494018555,-2.548504590988159
1759424289507816000,9.30581591796875,-4.740959167480469,-8.190977096557617,-2.5692949295043945
1759424289517816000,9.315816162109375,-4.73184871673584,-8.191068649291992,-2.5857760906219482
1759424289527816000,9.32581591796875,-4.713428497314453,-8.197198867797852,-2.599886417388916
1759424289537816000,9.335816162109374,-4.685808181762695,-8.208422660827637,-2.6143226623535156
1759424289547816000,9.34581591796875,-4.650184154510498,-8.223349571228027,-2.631042957305908
1759424289557816000,9.355816162109376,-4.607803821563721,-8.240931510925293,-2.650441884994507
1759424289567816000,9.36581591796875,-4.557324409484863,-8.260138511657715,-2.6778147220611572
1759424289577816000,9.375816162109375,-4.500022888183594,-8.280882835388184,-2.710461139678955
1759424289587816000,9.38581591796875,-4.434749603271484,-8.304364204406738,-2.7460126876831055
1759424289597816000,9.395816162109375,-4.360908508300781,-8.33152961730957,-2.7817251682281494
1759424289607816000,9.40581591796875,-4.278450012207031,-8.363520622253418,-2.8135640621185303
1759424289617816000,9.415816162109374,-4.19072961807251,-8.399818420410156,-2.8374195098876953
1759424289627816000,9.42581591796875,-4.10204553604126,-8.439494132995605,-2.84917950630188
1759424289637816000,9.435816162109376,-4.0213446617126465,-8.47976016998291,-2.8447117805480957
1759424289647816000,9.44581591796875,-3.9536116123199463,-8.51833438873291,-2.8242945671081543
1759424289657816000,9.455816162109375,-3.89579701423645,-8.55489444732666,-2.7939798831939697
1759424289667816000,9.46581591796875,-3.844651222229004,-8.589253425598145,-2.7592215538024902
1759424289677816000,9.475816162109375,-3.8110549449920654,-8.61751937866211,-2.717345952987671
1759424289687816000,9.48581591796875,-3.7891130447387695,-8.640910148620605,-2.673403739929199
1759424289697816000,9.495816162109374,-3.774116039276123,-8.659972190856934,-2.632664442062378
1759424289707816000,9.50581591796875,-3.7669951915740967,-8.675556182861328,-2.5911777019500732
1759424289717816000,9.515816162109376,-3.767584800720215,-8.68807601928711,-2.54803729057312
1759424289727816000,9.52581591796875,-3.773015260696411,-8.699166297912598,-2.501772165298462
1759424289737816000,9.535816162109375,-3.7830631732940674,-8.70909595489502,-2.451540946960449
1759424289747816000,9.54581591796875,-3.802210807800293,-8.71636962890625,-2.3953540325164795
1759424289757816000,9.555816162109375,-3.8298513889312744,-8.720534324645996,-2.3355143070220947
1759424289767816000,9.56581591796875,-3.8574018478393555,-8.725590705871582,-2.2703261375427246
1759424289777816000,9.575816162109374,-3.860008716583252,-8.743016242980957,-2.1977076530456543
1759424289787816000,9.58581591796875,-3.811429738998413,-8.785029411315918,-2.1133387088775635
1759424289797816000,9.595816162109376,-3.678867816925049,-8.861747741699219,-2.0261013507843018
1759424289807816000,9.60581591796875,-3.5294647216796875,-8.944412231445312,-1.9262049198150635
1759424289817816000,9.615816162109375,-3.3949015140533447,-9.022377014160156,-1.8003849983215332
1759424289827816000,9.62581591796875,-3.2844951152801514,-9.090020179748535,-1.659375548362732
1759424289837816000,9.635816162109375,-3.3051493167877197,-9.095793724060059,-1.5850214958190918
1759424289847816000,9.64581591796875,-3.460785150527954,-9.018651962280273,-1.6901708841323853
1759424289857816000,9.655816162109375,-3.6177494525909424,-8.912270545959473,-1.911363124847412
1759424289867816000,9.66581591796875,-3.7168362140655518,-8.821793556213379,-2.128598213195801
1759424289877816000,9.675816162109374,-3.743129014968872,-8.778848648071289,-2.2562053203582764
1759424289887816000,9.68581591796875,-3.7037618160247803,-8.791947364807129,-2.270195484161377
1759424289897816000,9.695816162109375,-3.6137428283691406,-8.846367835998535,-2.2028961181640625
1759424289907816000,9.70581591796875,-3.501131296157837,-8.914665222167969,-2.107326030731201
1759424289917816000,9.715816162109375,-3.4039697647094727,-8.970067024230957,-2.0299837589263916
1759424289927816000,9.72581591796875,-3.3257431983947754,-9.011873245239258,-1.9736446142196655
1759424289937815800,9.73581591796875,-3.242628335952759,-9.049643516540527,-1.938850998878479
1759424289947816000,9.74581591796875,-3.1373517513275146,-9.090070724487305,-1.9228435754776
1759424289957815800,9.75581591796875,-3.0062568187713623,-9.136619567871094,-1.9115897417068481
1759424289967816000,9.76581591796875,-2.8575949668884277,-9.189742088317871,-1.8848458528518677
1759424289977815800,9.77581591796875,-2.701932907104492,-9.247304916381836,-1.8321646451950073
1759424289987816000,9.78581591796875,-2.5429060459136963,-9.307122230529785,-1.7552157640457153
1759424289997815800,9.79581591796875,-2.3809871673583984,-9.366473197937012,-1.6643636226654053
1759424290017815800,9.81581591796875,-2.04801082611084,-9.476744651794434,-1.4720380306243896
1759424290027816000,9.82581591796875,-1.8827780485153198,-9.524218559265137,-1.3835662603378296
1759424290037816000,9.835816162109374,-1.723879337310791,-9.565291404724121,-1.3051494359970093
1759424290047816000,9.84581591796875,-1.5738552808761597,-9.599752426147461,-1.2399743795394897
1759424290057816000,9.855816162109376,-1.4327592849731445,-9.628239631652832,-1.1891993284225464
1759424290067816000,9.86581591796875,-1.3027797937393188,-9.650827407836914,-1.1550596952438354
1759424290077815800,9.87581591796875,-1.1860262155532837,-9.668564796447754,-1.1324436664581299
1759424290087816000,9.88581591796875,-1.082916498184204,-9.682109832763672,-1.1198471784591675
1759424290097815800,9.89581591796875,-0.9870368242263794,-9.693114280700684,-1.1132041215896606
1759424290107816000,9.90581591796875,-0.8994801044464111,-9.701860427856445,-1.11128568649292
1759424290117815800,9.91581591796875,-0.8251599073410034,-9.708406448364258,-1.1117150783538818
1759424290127816000,9.92581591796875,-0.7624340057373047,-9.713591575622559,-1.1112194061279297
1759424290137815800,9.93581591796875,-0.701398491859436,-9.718643188476562,-1.1072365045547485
1759424290147816000,9.94581591796875,-0.6325175762176514,-9.72445297241211,-1.097703456878662
1759424290157815800,9.95581591796875,-0.5529091954231262,-9.731060028076172,-1.0820900201797485
1759424290167816000,9.96581591796875,-0.4609326422214508,-9.737966537475586,-1.0627628564834595
1759424290177815800,9.97581591796875,-0.3584992587566376,-9.744433403015137,-1.042806625366211
1759424290187816000,9.98581591796875,-0.2507254183292389,-9.749677658081055,-1.025068759918213
1759424290197815800,9.99581591796875,-0.14261223375797272,-9.753351211547852,-1.0108680725097656
1759424290207816000,10.00581591796875,-0.038977090269327164,-9.755219459533691,-1.0021390914916992
1759424290217815800,10.01581591796875,0.05760550871491432,-9.755148887634277,-1.0018036365509033
1759424290227816000,10.02581591796875,0.14585983753204346,-9.753135681152344,-1.0124887228012085
1759424290237816000,10.035816162109375,0.2246776521205902,-9.749471664428711,-1.0330328941345215
1759424290247816000,10.04581591796875,0.29479485750198364,-9.7444486618042,-1.0624550580978394
1759424290257816000,10.055816162109375,0.35279813408851624,-9.73786449432373,-1.1043366193771362
1759424290267816000,10.06581591796875,0.4042816460132599,-9.730137825012207,-1.1535913944244385
1759424290277816000,10.075816162109374,0.45064592361450195,-9.721413612365723,-1.208741545677185
1759424290287816000,10.08581591796875,0.49267101287841797,-9.711872100830078,-1.2676023244857788
1759424290297816000,10.095816162109376,0.5338064432144165,-9.701842308044434,-1.3263956308364868
1759424290307816000,10.10581591796875,0.577944278717041,-9.691383361816406,-1.3831760883331299
1759424290317816000,10.115816162109375,0.6258835196495056,-9.680522918701172,-1.4373235702514648
1759424290327816000,10.12581591796875,0.677367091178894,-9.669419288635254,-1.4878528118133545
1759424290337816000,10.135816162109375,0.7314441204071045,-9.658187866210938,-1.5344599485397339
1759424290347816000,10.14581591796875,0.787747859954834,-9.646893501281738,-1.5770243406295776
1759424290357816000,10.155816162109375,0.8459244966506958,-9.635576248168945,-1.615576982498169
1759424290367816000,10.16581591796875,0.9009695053100586,-9.625177383422852,-1.6474796533584595
1759424290377816000,10.175816162109374,0.9454127550125122,-9.616232872009277,-1.6745944023132324
1759424290387816000,10.18581591796875,0.9772270917892456,-9.609192848205566,-1.696569800376892
1759424290397816000,10.195816162109375,0.9979583024978638,-9.604227066040039,-1.7125439643859863
1759424290407816000,10.20581591796875,1.0114467144012451,-9.600944519042969,-1.7230579853057861
1759424290417816000,10.215816162109375,1.0192886590957642,-9.598880767822266,-1.7298825979232788
1759424290427816000,10.22581591796875,1.024855136871338,-9.596548080444336,-1.7395544052124023
1759424290437816000,10.235816162109375,1.0252104997634888,-9.593609809875488,-1.7554305791854858
1759424290447816000,10.24581591796875,1.014670968055725,-9.590728759765625,-1.7771891355514526
1759424290457816000,10.255816162109374,0.9875029921531677,-9.588775634765625,-1.8028478622436523
1759424290467816000,10.26581591796875,0.9453414082527161,-9.587800979614258,-1.830371618270874
1759424290477816000,10.275816162109376,0.89496910572052,-9.587047576904297,-1.859470009803772
1759424290487816000,10.28581591796875,0.8389537334442139,-9.587054252624512,-1.8853590488433838
1759424290497816000,10.295816162109375,0.778870165348053,-9.588561058044434,-1.9034268856048584
1759424290507816000,10.30581591796875,0.7088456153869629,-9.592284202575684,-1.9120157957077026
1759424290517816000,10.315816162109375,0.6174936294555664,-9.598182678222656,-1.9140675067901611
1759424290527816000,10.32581591796875,0.4875234067440033,-9.605975151062012,-1.9124232530593872
1759424290537816000,10.335816162109374,0.3003939986228943,-9.614930152893066,-1.9060180187225342
1759424290547816000,10.34581591796875,0.06059446185827255,-9.622326850891113,-1.8913445472717285
1759424290557816000,10.355816162109376,-0.21014322340488434,-9.624122619628906,-1.8714406490325928
1759424290567816000,10.36581591796875,-0.5008504986763,-9.617186546325684,-1.8517510890960693
1759424290577816000,10.375816162109375,-0.8031740188598633,-9.599284172058105,-1.8380720615386963
1759424290587816000,10.38581591796875,-1.1144436597824097,-9.567745208740234,-1.840181589126587
1759424290597816000,10.395816162109375,-1.437825083732605,-9.519031524658203,-1.8683456182479858
1759424290607816000,10.40581591796875,-1.7676801681518555,-9.45806884765625,-1.8947689533233643
1759424290617816000,10.415816162109374,-2.1009459495544434,-9.38624382019043,-1.9117463827133179
1759424290627816000,10.42581591796875,-2.4297068119049072,-9.305164337158203,-1.918451189994812
1759424290637816000,10.435816162109376,-2.7432239055633545,-9.218688011169434,-1.9131907224655151
1759424290657816000,10.455816162109375,-3.2887003421783447,-9.051907539367676,-1.8486475944519043
1759424290667816000,10.46581591796875,-3.5317842960357666,-8.97124195098877,-1.79245924949646
1759424290687816000,10.48581591796875,-3.977400302886963,-8.80951976776123,-1.656108021736145
1759424290697815800,10.49581591796875,-4.1789350509643555,-8.731561660766602,-1.570330023765564
1759424290707816000,10.50581591796875,-4.365042209625244,-8.65443229675293,-1.4889333248138428
1759424290717815800,10.51581591796875,-4.540595531463623,-8.574867248535156,-1.4227864742279053
1759424290727816000,10.52581591796875,-4.720370769500732,-8.484138488769531,-1.3810490369796753
1759424290737815800,10.53581591796875,-4.931024551391602,-8.366609573364258,-1.361826777458191
1759424290747816000,10.54581591796875,-5.171538829803467,-8.218846321105957,-1.3695391416549683
1759424290757815800,10.55581591796875,-5.425258636474609,-8.048321723937988,-1.4003536701202393
1759424290767816000,10.56581591796875,-5.671316146850586,-7.867424964904785,-1.4525389671325684
1759424290777816000,10.575816162109374,-5.894937992095947,-7.688445091247559,-1.5189926624298096
1759424290787816000,10.58581591796875,-6.100500106811523,-7.510461807250977,-1.5958582162857056
1759424290797816000,10.595816162109376,-6.294208526611328,-7.331211566925049,-1.6751184463500977
1759424290807816000,10.60581591796875,-6.4766693115234375,-7.150219440460205,-1.7598158121109009
1759424290817816000,10.615816162109375,-6.647140979766846,-6.968917369842529,-1.8491569757461548
1759424290827816000,10.62581591796875,-6.798007965087891,-6.80009126663208,-1.9276100397109985
1759424290837815800,10.63581591796875,-6.931013584136963,-6.645026206970215,-1.9936703443527222
1759424290847816000,10.64581591796875,-7.0476460456848145,-6.504247665405273,-2.0482890605926514
1759424290857815800,10.65581591796875,-7.1505208015441895,-6.376696586608887,-2.092327833175659
1759424290867816000,10.66581591796875,-7.242861747741699,-6.261285781860352,-2.122962713241577
1759424290877815800,10.67581591796875,-7.3261284828186035,-6.157817363739014,-2.1398186683654785
1759424290887816000,10.68581591796875,-7.401742458343506,-6.064304828643799,-2.14673113822937
1759424290897815800,10.69581591796875,-7.472797870635986,-5.9752516746521,-2.150240182876587
1759424290907816000,10.70581591796875,-7.540210723876953,-5.8850226402282715,-2.16371750831604
1759424290917815800,10.71581591796875,-7.603484630584717,-5.792266368865967,-2.1924002170562744
1759424290927816000,10.72581591796875,-7.663152694702148,-5.696943283081055,-2.234023094177246
1759424290937815800,10.73581591796875,-7.714369297027588,-5.604005336761475,-2.291992664337158
1759424290947816000,10.74581591796875,-7.756313800811768,-5.519074440002441,-2.3556969165802
1759424290957815800,10.75581591796875,-7.786748886108398,-5.445947647094727,-2.424511432647705
1759424290967816000,10.76581591796875,-7.805095195770264,-5.387026309967041,-2.4960639476776123
1759424290977816000,10.775816162109376,-7.813530921936035,-5.3420538902282715,-2.5652995109558105
1759424290987816000,10.78581591796875,-7.816484451293945,-5.308330535888672,-2.6256330013275146
1759424290997816000,10.795816162109375,-7.817739009857178,-5.282893180847168,-2.672844409942627
1759424291007816000,10.80581591796875,-7.817944049835205,-5.261631011962891,-2.713792085647583
1759424291017816000,10.815816162109375,-7.816953182220459,-5.241980075836182,-2.7544572353363037
1759424291027816000,10.82581591796875,-7.813298225402832,-5.223572731018066,-2.7993390560150146
1759424291037816000,10.835816162109374,-7.808243274688721,-5.206636905670166,-2.84464955329895
1759424291047816000,10.84581591796875,-7.803796291351318,-5.1894402503967285,-2.887953281402588
1759424291057816000,10.855816162109376,-7.799030303955078,-5.173791408538818,-2.9286327362060547
1759424291067816000,10.86581591796875,-7.792339324951172,-5.161962509155273,-2.9670681953430176
1759424291077816000,10.875816162109375,-7.781719207763672,-5.156182765960693,-3.0046823024749756
1759424291087816000,10.88581591796875,-7.771488666534424,-5.158359050750732,-3.027406692504883
1759424291097816000,10.895816162109375,-7.762639999389648,-5.168087959289551,-3.033440113067627
1759424291107816000,10.90581591796875,-7.752824306488037,-5.185867786407471,-3.028240442276001
1759424291117816000,10.915816162109374,-7.741018295288086,-5.210933208465576,-3.015458345413208
1759424291127816000,10.92581591796875,-7.725361347198486,-5.242802619934082,-3.000333309173584
1759424291137816000,10.935816162109376,-7.704584121704102,-5.281668186187744,-2.9854607582092285
1759424291147816000,10.94581591796875,-7.681240081787109,-5.325244903564453,-2.9681293964385986
1759424291157816000,10.955816162109375,-7.662031173706055,-5.367259502410889,-2.942103862762451
1759424291167816000,10.96581591796875,-7.668292999267578,-5.3847246170043945,-2.8934080600738525
1759424291177816000,10.975816162109375,-7.70093297958374,-5.373236179351807,-2.827338218688965
1759424291187816000,10.98581591796875,-7.749743461608887,-5.341701984405518,-2.7527122497558594
1759424291197816000,10.995816162109374,-7.800278663635254,-5.298785209655762,-2.69228196144104
1759424291207816000,11.00581591796875,-7.842305660247803,-5.253057479858398,-2.6596310138702393
1759424291217816000,11.015816162109376,-7.875213146209717,-5.213773250579834,-2.6395373344421387
1759424291227816000,11.02581591796875,-7.89005184173584,-5.20420503616333,-2.6140573024749756
1759424291237816000,11.035816162109375,-7.876789093017578,-5.239424228668213,-2.5834529399871826
1759424291247816000,11.04581591796875,-7.843774795532227,-5.307430744171143,-2.544821262359619
1759424291257816000,11.055816162109375,-7.800699710845947,-5.393453598022461,-2.495863437652588
1759424291267816000,11.06581591796875,-7.746601104736328,-5.49322509765625,-2.4462833404541016
1759424291277816000,11.075816162109374,-7.670873165130615,-5.618092060089111,-2.400998115539551
1759424291287816000,11.08581591796875,-7.571883201599121,-5.7864909172058105,-2.3136777877807617
1759424291297816000,11.095816162109376,-7.465829372406006,-5.967833518981934,-2.1945974826812744
1759424291307816000,11.10581591796875,-7.352662563323975,-6.149569034576416,-2.0713820457458496
1759424291317816000,11.115816162109375,-7.229187488555908,-6.328846454620361,-1.9632015228271484
1759424291327816000,11.12581591796875,-7.092094421386719,-6.508617877960205,-1.873457908630371
1759424291337816000,11.135816162109375,-6.941320896148682,-6.691439628601074,-1.7923351526260376
1759424291347816000,11.14581591796875,-6.7774763107299805,-6.878402233123779,-1.709742784500122
1759424291357816000,11.155816162109375,-6.600481986999512,-7.069012641906738,-1.6224195957183838
1759424291367816000,11.16581591796875,-6.412086009979248,-7.260211944580078,-1.531190037727356
1759424291377816000,11.175816162109374,-6.215083599090576,-7.447671890258789,-1.4403427839279175
1759424291387816000,11.18581591796875,-6.013120174407959,-7.627695083618164,-1.3528167009353638
1759424291397816000,11.195816162109375,-5.810676574707031,-7.7964768409729,-1.2729361057281494
1759424291407816000,11.20581591796875,-5.604808807373047,-7.955483436584473,-1.2109068632125854
1759424291417816000,11.215816162109375,-5.399791717529297,-8.102011680603027,-1.1703253984451294
1759424291427816000,11.22581591796875,-5.199594020843506,-8.234402656555176,-1.1526222229003906
1759424291437816000,11.235816162109375,-5.008397579193115,-8.351469993591309,-1.157030701637268
1759424291447816000,11.24581591796875,-4.830803394317627,-8.452325820922852,-1.1796098947525024
1759424291457816000,11.255816162109374,-4.6672797203063965,-8.53880500793457,-1.2146868705749512
1759424291467816000,11.26581591796875,-4.514503479003906,-8.614585876464844,-1.256245493888855
1759424291477816000,11.275816162109376,-4.366877555847168,-8.684027671813965,-1.2993075847625732
1759424291487816000,11.28581591796875,-4.218788146972656,-8.750645637512207,-1.3408981561660767
1759424291497816000,11.295816162109375,-4.064531326293945,-8.817097663879395,-1.381474494934082
1759424291507816000,11.30581591796875,-3.900181531906128,-8.884973526000977,-1.4197198152542114
1759424291517816000,11.315816162109375,-3.7212984561920166,-8.957025527954102,-1.446930170059204
1759424291527816000,11.32581591796875,-3.536564350128174,-9.028807640075684,-1.4640289545059204
1759424291537816000,11.335816162109374,-3.352362871170044,-9.097246170043945,-1.473634123802185
1759424291547816000,11.34581591796875,-3.17014217376709,-9.161514282226562,-1.478857398033142
1759424291557816000,11.355816162109376,-2.988208055496216,-9.221755981445312,-1.4831585884094238
1759424291567816000,11.36581591796875,-2.8050551414489746,-9.277889251708984,-1.4907801151275635
1759424291577816000,11.375816162109375,-2.622093915939331,-9.329211235046387,-1.5034663677215576
1759424291587816000,11.38581591796875,-2.4437012672424316,-9.374788284301758,-1.5204241275787354
1759424291597816000,11.395816162109375,-2.2756173610687256,-9.413901329040527,-1.5394699573516846
1759424291607816000,11.40581591796875,-2.121284246444702,-9.446497917175293,-1.5600781440734863
1759424291617816000,11.415816162109374,-1.9808149337768555,-9.473499298095703,-1.5808628797531128
1759424291627816000,11.42581591796875,-1.856130599975586,-9.496731758117676,-1.5926806926727295
1759424291637816000,11.435816162109376,-1.737680196762085,-9.519512176513672,-1.5903156995773315
1759424291647816000,11.44581591796875,-1.6211048364639282,-9.543044090270996,-1.5723040103912354
1759424291657816000,11.455816162109375,-1.5016332864761353,-9.567755699157715,-1.5405138731002808
1759424291667816000,11.46581591796875,-1.3768863677978516,-9.593082427978516,-1.4990195035934448
1759424291677816000,11.475816162109375,-1.2485995292663574,-9.618230819702148,-1.4493732452392578
1759424291687816000,11.48581591796875,-1.122452735900879,-9.641650199890137,-1.396039366722107
1759424291697816000,11.495816162109374,-1.0028197765350342,-9.66215705871582,-1.3442679643630981
1759424291707816000,11.50581591796875,-0.893250584602356,-9.67911434173584,-1.2988067865371704
1759424291717816000,11.515816162109376,-0.7980465888977051,-9.692151069641113,-1.2630997896194458
1759424291727816000,11.52581591796875,-0.7186819314956665,-9.701547622680664,-1.2383333444595337
1759424291737816000,11.535816162109375,-0.6542325615882874,-9.707950592041016,-1.2236933708190918
1759424291747816000,11.54581591796875,-0.61012864112854,-9.711127281188965,-1.22144615650177
1759424291757816000,11.555816162109375,-0.5780933499336243,-9.712491989135742,-1.2260761260986328
1759424291767816000,11.56581591796875,-0.5561801791191101,-9.712240219116211,-1.2382158041000366
1759424291777816000,11.575816162109374,-0.5400397777557373,-9.710816383361816,-1.2563269138336182
1759424291787816000,11.58581591796875,-0.5258528590202332,-9.708572387695312,-1.279561161994934
1759424291797816000,11.595816162109376,-0.510342538356781,-9.7057523727417,-1.3068623542785645
1759424291807816000,11.60581591796875,-0.4937824606895447,-9.702543258666992,-1.3367162942886353
1759424291817816000,11.615816162109375,-0.4759662449359894,-9.699254035949707,-1.366721510887146
1759424291827816000,11.62581591796875,-0.45704877376556396,-9.696365356445312,-1.3934897184371948
1759424291837816000,11.635816162109375,-0.43517830967903137,-9.694369316101074,-1.4141587018966675
1759424291847816000,11.64581591796875,-0.40829381346702576,-9.693780899047852,-1.4261478185653687
1759424291857816000,11.655816162109375,-0.36905544996261597,-9.695695877075195,-1.4237991571426392
1759424291867816000,11.66581591796875,-0.32053661346435547,-9.699585914611816,-1.409001111984253
1759424291877816000,11.675816162109374,-0.259265273809433,-9.70444107055664,-1.3880480527877808
1759424291887816000,11.68581591796875,-0.1842997521162033,-9.710100173950195,-1.3601914644241333
1759424291897816000,11.695816162109375,-0.09556582570075989,-9.716782569885254,-1.3210399150848389
1759424291907816000,11.70581591796875,0.006881576497107744,-9.723944664001465,-1.2707587480545044
1759424291917816000,11.715816162109375,0.1249532476067543,-9.730138778686523,-1.216024398803711
1759424291927816000,11.72581591796875,0.2544476389884949,-9.734126091003418,-1.1627581119537354
1759424291937816000,11.735816162109375,0.3816080391407013,-9.735124588012695,-1.1187968254089355
1759424291947816000,11.74581591796875,0.48597151041030884,-9.7333402633667,-1.093469500541687
1759424291957816000,11.755816162109374,0.5449714064598083,-9.730414390563965,-1.0917863845825195
1759424291967816000,11.76581591796875,0.505263090133667,-9.730124473571777,-1.113226056098938
1759424291977816000,11.775816162109376,0.4052104651927948,-9.731730461120605,-1.139812707901001
1759424291987816000,11.78581591796875,0.26903966069221497,-9.733318328857422,-1.1663284301757812
1759424291997816000,11.795816162109375,0.12207856774330139,-9.733267784118652,-1.1910030841827393
1759424292007816000,11.80581591796875,-0.019000468775629997,-9.731287956237793,-1.2130519151687622
1759424292017816000,11.815816162109375,-0.1518874317407608,-9.72763442993164,-1.2329226732254028
1759424292027816000,11.82581591796875,-0.28371816873550415,-9.722034454345703,-1.2536677122116089
1759424292037816000,11.835816162109374,-0.42325523495674133,-9.714115142822266,-1.2754817008972168
1759424292047816000,11.84581591796875,-0.5790612697601318,-9.702353477478027,-1.303463101387024
1759424292057816000,11.855816162109376,-0.7662281394004822,-9.683218002319336,-1.348401665687561
1759424292067816000,11.86581591796875,-1.0015209913253784,-9.651199340820312,-1.4217220544815063
1759424292077816000,11.875816162109375,-1.2838730812072754,-9.601899147033691,-1.5248907804489136
1759424292087816000,11.88581591796875,-1.6169302463531494,-9.53032398223877,-1.6517747640609741
1759424292097816000,11.895816162109375,-1.9702502489089966,-9.442920684814453,-1.7661925554275513
1759424292107816000,11.90581591796875,-2.3354005813598633,-9.345311164855957,-1.8387376070022583
1759424292117816000,11.915816162109374,-2.704317569732666,-9.243424415588379,-1.8481769561767578
1759424292127816000,11.92581591796875,-3.0555520057678223,-9.14478588104248,-1.790624976158142
1759424292137816000,11.935816162109376,-3.3660926818847656,-9.055761337280273,-1.6830072402954102
1759424292147816000,11.94581591796875,-3.6204240322113037,-8.98137092590332,-1.5483155250549316
1759424292157816000,11.955816162109375,-3.821225881576538,-8.918302536010742,-1.4254016876220703
1759424292167816000,11.96581591796875,-3.977778434753418,-8.86205768585205,-1.3457388877868652
1759424292177816000,11.975816162109375,-4.139625072479248,-8.794747352600098,-1.29835844039917
1759424292187816000,11.98581591796875,-4.332860946655273,-8.70918083190918,-1.2435659170150757
1759424292197816000,11.995816162109374,-4.557014465332031,-8.604571342468262,-1.1682175397872925
1759424292207816000,12.00581591796875,-4.7766194343566895,-8.495172500610352,-1.0890861749649048
1759424292217816000,12.015816162109376,-4.9820404052734375,-8.38353443145752,-1.032374382019043
1759424292227816000,12.02581591796875,-5.17164421081543,-8.269508361816406,-1.0194716453552246
1759424292237816000,12.035816162109375,-5.361234664916992,-8.144722938537598,-1.0442781448364258
1759424292247816000,12.04581591796875,-5.570401191711426,-7.998325347900391,-1.080280065536499
1759424292257816000,12.055816162109375,-5.8019609451293945,-7.827489852905273,-1.1122583150863647
1759424292267816000,12.06581591796875,-6.039791107177734,-7.641788005828857,-1.1375874280929565
1759424292277816000,12.075816162109374,-6.268162727355957,-7.4510345458984375,-1.1670283079147339
1759424292287816000,12.08581591796875,-6.4838385581970215,-7.256875991821289,-1.211380958557129
1759424292297816000,12.095816162109376,-6.690524101257324,-7.056832790374756,-1.2679779529571533
1759424292307816000,12.10581591796875,-6.888974189758301,-6.851728439331055,-1.3286808729171753
1759424292317816000,12.115816162109375,-7.0478010177612305,-6.675346851348877,-1.3921072483062744
1759424292327816000,12.12581591796875,-7.178630828857422,-6.523899078369141,-1.4406805038452148
1759424292337816000,12.135816162109375,-7.290205478668213,-6.391153812408447,-1.475062370300293
1759424292347816000,12.14581591796875,-7.3870463371276855,-6.269265174865723,-1.5158638954162598
1759424292357816000,12.155816162109375,-7.472563743591309,-6.154155254364014,-1.5673742294311523
1759424292367816000,12.16581591796875,-7.5475263595581055,-6.043717861175537,-1.6365123987197876
1759424292377816000,12.175816162109374,-7.613613605499268,-5.937019348144531,-1.71892249584198
1759424292397816000,12.195816162109375,-7.714180946350098,-5.747868537902832,-1.9035571813583374
1759424292407816000,12.20581591796875,-7.742716312408447,-5.677829265594482,-1.9955604076385498
1759424292417816000,12.215816162109375,-7.755300998687744,-5.631399631500244,-2.0766549110412598
1759424292427816000,12.22581591796875,-7.7517828941345215,-5.619223594665527,-2.122281074523926
1759424292437816000,12.235816162109375,-7.743316650390625,-5.623666286468506,-2.1412851810455322
1759424292447816000,12.24581591796875,-7.731609344482422,-5.640378952026367,-2.1396613121032715
1759424292457816000,12.255816162109374,-7.7136430740356445,-5.6691412925720215,-2.128495693206787
1759424292467816000,12.26581591796875,-7.684572219848633,-5.714433193206787,-2.1124510765075684
1759424292477816000,12.275816162109376,-7.645523548126221,-5.775810718536377,-2.086987257003784
1759424292487816000,12.28581591796875,-7.599223613739014,-5.852529048919678,-2.041921854019165
1759424292497816000,12.295816162109375,-7.5398945808410645,-5.953093528747559,-1.9699679613113403
1759424292507816000,12.30581591796875,-7.46503210067749,-6.07614278793335,-1.8771003484725952
1759424292517816000,12.315816162109375,-7.383511543273926,-6.204125881195068,-1.7784119844436646
1759424292527816000,12.32581591796875,-7.301066875457764,-6.325913429260254,-1.687305212020874
1759424292537816000,12.335816162109374,-7.207897186279297,-6.445188522338867,-1.635719656944275
1759424292547816000,12.34581591796875,-7.088090896606445,-6.585867881774902,-1.598469853401184
1759424292557816000,12.355816162109376,-6.956597328186035,-6.73984956741333,-1.5328373908996582
1759424292567816000,12.36581591796875,-6.805508613586426,-6.908234119415283,-1.4599246978759766
1759424292577816000,12.375816162109375,-6.649362564086914,-7.073550224304199,-1.385955810546875
1759424292587816000,12.38581591796875,-6.519327640533447,-7.208062171936035,-1.3084192276000977
1759424292597816000,12.395816162109375,-6.415445327758789,-7.313786029815674,-1.233178973197937
1759424292607816000,12.40581591796875,-6.31732702255249,-7.410271644592285,-1.1615666151046753
1759424292617816000,12.415816162109374,-6.213433265686035,-7.507263660430908,-1.0972729921340942
1759424292627816000,12.42581591796875,-6.097227573394775,-7.609479904174805,-1.043806791305542
1759424292637816000,12.435816162109376,-5.962072372436523,-7.7207136154174805,-1.0070438385009766
1759424292647816000,12.44581591796875,-5.804473876953125,-7.84222412109375,-0.988592267036438
1759424292657816000,12.455816162109375,-5.625524520874023,-7.971349716186523,-0.9904896020889282
1759424292667816000,12.46581591796875,-5.43939208984375,-8.09766960144043,-1.0053411722183228
1759424292677816000,12.475816162109375,-5.251455307006836,-8.217355728149414,-1.0328996181488037
1759424292687816000,12.48581591796875,-5.066069602966309,-8.327911376953125,-1.0727993249893188
1759424292697816000,12.495816162109374,-4.888687610626221,-8.427499771118164,-1.1169415712356567
1759424292707816000,12.50581591796875,-4.725183486938477,-8.514118194580078,-1.1629747152328491
1759424292717816000,12.515816162109376,-4.5742363929748535,-8.589603424072266,-1.2104030847549438
1759424292727816000,12.52581591796875,-4.427347183227539,-8.659899711608887,-1.2548519372940063
1759424292737816000,12.535816162109375,-4.283947467803955,-8.72632884979248,-1.2917659282684326
1759424292747816000,12.54581591796875,-4.144903182983398,-8.789334297180176,-1.3180080652236938
1759424292757816000,12.555816162109375,-4.009908676147461,-8.849066734313965,-1.335851788520813
1759424292767816000,12.56581591796875,-3.8764820098876953,-8.906508445739746,-1.3478665351867676
1759424292777816000,12.575816162109374,-3.7392098903656006,-8.963963508605957,-1.35484778881073
1759424292787816000,12.58581591796875,-3.595090866088867,-9.021385192871094,-1.3637784719467163
1759424292797816000,12.595816162109376,-3.4438750743865967,-9.078049659729004,-1.3779147863388062
1759424292807816000,12.60581591796875,-3.291002035140991,-9.131454467773438,-1.3985110521316528
1759424292817816000,12.615816162109375,-3.1408274173736572,-9.180206298828125,-1.4244433641433716
1759424292827816000,12.62581591796875,-2.997250556945801,-9.223302841186523,-1.454953908920288
1759424292837815800,12.63581591796875,-2.8634376525878906,-9.26046085357666,-1.4880770444869995
1759424292847816000,12.64581591796875,-2.740119457244873,-9.292482376098633,-1.5203425884246826
1759424292857816000,12.655816162109375,-2.6261861324310303,-9.320939064025879,-1.5469573736190796
1759424292867816000,12.66581591796875,-2.5164082050323486,-9.348272323608398,-1.564460039138794
1759424292877815800,12.67581591796875,-2.4064853191375732,-9.376374244689941,-1.5692945718765259
1759424292887816000,12.68581591796875,-2.2896454334259033,-9.407572746276855,-1.5572563409805298
1759424292897816000,12.695816162109375,-2.1681578159332275,-9.439434051513672,-1.5382330417633057
1759424292907816000,12.70581591796875,-2.0432915687561035,-9.471017837524414,-1.5147583484649658
1759424292917815800,12.71581591796875,-1.919388771057129,-9.501012802124023,-1.4887269735336304
1759424292927816000,12.72581591796875,-1.7995792627334595,-9.528474807739258,-1.4628695249557495
1759424292937816000,12.735816162109375,-1.6859891414642334,-9.553021430969238,-1.4377222061157227
1759424292947816000,12.74581591796875,-1.5799959897994995,-9.574790000915527,-1.4131263494491577
1759424292957815800,12.75581591796875,-1.4821569919586182,-9.593964576721191,-1.388817310333252
1759424292967816000,12.76581591796875,-1.3922686576843262,-9.61075210571289,-1.365654706954956
1759424292977816000,12.775816162109376,-1.310238242149353,-9.625419616699219,-1.3434417247772217
1759424292987816000,12.78581591796875,-1.2354360818862915,-9.63814926147461,-1.3227695226669312
1759424292997815800,12.79581591796875,-1.1675126552581787,-9.649311065673828,-1.3029913902282715
1759424293007816000,12.80581591796875,-1.1091761589050293,-9.659065246582031,-1.281474232673645
1759424293017816000,12.815816162109375,-1.0550611019134521,-9.667862892150879,-1.2605922222137451
1759424293027816000,12.82581591796875,-1.0059127807617188,-9.675074577331543,-1.2453978061676025
1759424293037816000,12.835816162109374,-0.9606255292892456,-9.680581092834473,-1.2383164167404175
1759424293047816000,12.84581591796875,-0.9173001646995544,-9.684770584106445,-1.2384835481643677
