time,seconds_elapsed,z,y,x
1759424280264657200,0.0626572265625,0.036651913076639175,-0.7153995633125305,-0.020005837082862854
1759424280297484800,0.09548486328125,0.036651913076639175,-0.7153995633125305,-0.020005837082862854
1759424280307484400,0.105484375,0.07880161702632904,-0.5956699848175049,0.036193765699863434
1759424280317484300,0.115484375,0.04459316283464432,-0.539470374584198,0.03436116874217987
1759424280327484200,0.125484130859375,0.07757988572120667,-0.4698317348957062,0.04596760869026184
1759424280337484000,0.135484130859375,0.11362093687057495,-0.39041924476623535,0.04963280260562897
1759424280347484000,0.14548388671875,0.11423180252313614,-0.3287218511104584,0.035582900047302246
1759424280357483800,0.15548388671875,0.08735372871160507,-0.3226132094860077,0.044135015457868576
1759424280367483600,0.165483642578125,0.0555887371301651,-0.3733150362968445,0.08994990587234497
1759424280377483500,0.1754833984375,0.021991148591041565,-0.3836997449398041,0.11010845750570297
1759424280387483400,0.1854833984375,-0.004886921960860491,-0.28473955392837524,0.07162395119667053
1759424280397483300,0.195483154296875,-0.018936822190880775,-0.2010510265827179,0.021532999351620674
1759424280407483400,0.2054833984375,-0.04092797264456749,-0.16195565462112427,-0.010842857882380486
1759424280417483300,0.215483154296875,-0.059864792972803116,-0.18211419880390167,-0.004123340360820293
1759424280427483100,0.225483154296875,-0.05619960278272629,-0.21693351864814758,0.02886338345706463
1759424280437483300,0.235483154296875,-0.03848451003432274,-0.23770293593406677,0.059406645596027374
1759424280447483100,0.245483154296875,-0.010995574295520782,-0.2706896662712097,0.07223481684923172
1759424280457483000,0.25548291015625,0.006719517521560192,-0.3519347310066223,0.08017606288194656
1759424280467481600,0.265481689453125,0.015271631069481373,-0.49182286858558655,0.09911288321018219
1759424280477481500,0.2754814453125,0.022602014243602753,-0.6866888999938965,0.10705413669347763
1759424280487481600,0.285481689453125,0.06414084881544113,-0.8406269550323486,0.16325373947620392
1759424280497481500,0.2954814453125,0.15454891324043274,-0.9163742065429688,0.18341228365898132
1759424280507481300,0.3054814453125,0.18997909128665924,-0.9414197206497192,0.1339322030544281
1759424280517481500,0.3154814453125,0.18570303916931152,-0.9273697733879089,0.09422596544027328
1759424280527481300,0.3254814453125,0.16859880089759827,-0.9585239291191101,0.09972374886274338
1759424280537481200,0.335481201171875,0.1569923609495163,-1.0055605173110962,0.1699732542037964
1759424280547515400,0.345515380859375,0.1820378452539444,-1.0012844800949097,0.21090123057365417
1759424280557515300,0.355515380859375,0.21807889640331268,-0.9780716300010681,0.22617286443710327
1759424280567515100,0.36551513671875,0.2626720666885376,-0.9120981693267822,0.21762074530124664
1759424280577515300,0.375515380859375,0.30054569244384766,-0.8387943506240845,0.17852537333965302
1759424280587515100,0.38551513671875,0.27550023794174194,-0.9377545118331909,0.1693623960018158
1759424280597515300,0.395515380859375,0.2321287989616394,-1.0006736516952515,0.1992947906255722
1759424280607515100,0.40551513671875,0.19120082259178162,-1.0189995765686035,0.20234911143779755
1759424280617515300,0.415515380859375,0.15271630883216858,-0.8925504684448242,0.19624045491218567
1759424280627515100,0.42551513671875,0.1563815027475357,-0.730060338973999,0.16264286637306213
1759424280637515000,0.435514892578125,0.14782938361167908,-0.5907830595970154,0.13087788224220276
1759424280647518200,0.445518310546875,0.11362093687057495,-0.47105345129966736,0.14004085958003998
1759424280657518000,0.45551806640625,0.09285151958465576,-0.40141481161117554,0.13454307615756989
1759424280667517200,0.46551708984375,0.05253441259264946,-0.4081343412399292,0.19685132801532745
1759424280677517300,0.475517333984375,0.01771509274840355,-0.51992267370224,0.2854267954826355
1759424280687517200,0.48551708984375,-0.024434609338641167,-0.7331146597862244,0.4106541574001312
1759424280697517300,0.495517333984375,-0.06230825558304787,-1.0910817384719849,0.5908594131469727
1759424280707517200,0.50551708984375,-0.08552113175392151,-1.528461217880249,0.7814493775367737
1759424280717517300,0.515517333984375,-0.13744467496871948,-1.7862462997436523,0.8449793457984924
1759424280727517200,0.52551708984375,-0.08491026610136032,-1.8742109537124634,0.7105889916419983
1759424280737517300,0.535517333984375,0.0659734457731247,-1.6860644817352295,0.3831652104854584
1759424280747517200,0.54551708984375,0.1270599663257599,-1.687286138534546,0.20784689486026764
1759424280757517300,0.555517333984375,0.09651670604944229,-1.8070157766342163,0.25793784856796265
1759424280767518000,0.56551806640625,0.025045474991202354,-2.0324249267578125,0.4723515510559082
1759424280777518000,0.57551806640625,-0.11911872029304504,-2.3024275302886963,0.6934847831726074
1759424280787518200,0.585518310546875,-0.37201693654060364,-2.592588424682617,0.8907942175865173
1759424280797518000,0.59551806640625,-0.6591235995292664,-3.0953304767608643,1.0441213846206665
1759424280807518200,0.605518310546875,-0.8820894360542297,-3.6261725425720215,1.2713632583618164
1759424280817518000,0.61551806640625,-1.0152580738067627,-3.960315704345703,1.5444200038909912
1759424280827517200,0.62551708984375,-1.083064079284668,-4.111199378967285,1.761277198791504
1759424280837517300,0.635517333984375,-1.0885618925094604,-4.131968975067139,1.819920301437378
1759424280847517200,0.64551708984375,-1.0005972385406494,-3.78438663482666,1.6653714179992676
1759424280857517300,0.655517333984375,-0.9010262489318848,-3.1600823402404785,1.4729487895965576
1759424280867516400,0.665516357421875,-0.7874053120613098,-2.362903118133545,1.2151637077331543
1759424280877516300,0.675516357421875,-0.6615670323371887,-1.6286431550979614,0.8712465763092041
1759424280887516400,0.685516357421875,-0.5473352670669556,-1.0727556943893433,0.39477166533470154
1759424280897516300,0.695516357421875,-0.3689626157283783,-0.6115524768829346,-0.027947084978222847
1759424280907516400,0.705516357421875,-0.1313360333442688,-0.39408445358276367,-0.35353827476501465
1759424280917516300,0.715516357421875,0.05314527451992035,-0.4386776089668274,-0.5691736936569214
1759424280927516400,0.725516357421875,0.07330382615327835,-0.7245625257492065,-0.536797821521759
1759424280937516500,0.7355166015625,0.04459316283464432,-1.2199742794036865,-0.2545780837535858
1759424280947513300,0.745513427734375,0.028099801391363144,-1.7941875457763672,0.1999056488275528
1759424280957513500,0.755513427734375,0.07208210229873657,-2.087402820587158,0.6354525685310364
1759424280967514400,0.765514404296875,0.33719760179519653,-1.9395735263824463,0.8651378750801086
1759424280977514200,0.77551416015625,0.5192354321479797,-1.461266040802002,0.5975789427757263
1759424280987514400,0.785514404296875,0.6597344875335693,-0.7697665691375732,0.16081027686595917
1759424280997514200,0.79551416015625,0.7324274182319641,-0.11919508129358292,-0.19898934662342072
1759424281007514400,0.805514404296875,0.7489207983016968,0.1428661048412323,-0.34804046154022217
1759424281017514200,0.81551416015625,0.7324274182319641,-0.09659306704998016,-0.2893974184989929
1759424281027513300,0.825513427734375,0.7391469478607178,-0.58772873878479,-0.0731511116027832
1759424281037513500,0.835513427734375,0.8222246170043945,-0.7282277345657349,0.11499538272619247
1759424281047513300,0.845513427734375,0.8985827565193176,-0.31528282165527344,0.07528914511203766
1759424281057513500,0.855513427734375,0.9083566069602966,0.47334420680999756,-0.13118331134319305
1759424281067512600,0.8655126953125,0.8808676600456238,1.021901249885559,-0.30711251497268677
1759424281077512400,0.875512451171875,0.8955284357070923,1.077489972114563,-0.31810808181762695
1759424281087512600,0.8855126953125,0.8747590184211731,0.8459720015525818,-0.24297164380550385
1759424281097512400,0.895512451171875,0.7104362845420837,0.5154939293861389,0.0019853119738399982
1759424281107512600,0.9055126953125,0.45142942667007446,-0.04894557595252991,0.3917173445224762
1759424281117512400,0.915512451171875,0.26083946228027344,-0.700127899646759,0.7722864151000977
1759424281127513300,0.925513427734375,0.19608774781227112,-1.1772136688232422,1.0355693101882935
1759424281137513500,0.935513427734375,0.1966986060142517,-1.3256539106369019,1.1394164562225342
1759424281147514000,0.94551416015625,0.20830504596233368,-1.2572370767593384,1.1210904121398926
1759424281157514000,0.955513916015625,0.2571742534637451,-1.0312168598175049,1.021519422531128
1759424281167515000,0.965514892578125,0.28527405858039856,-0.6701955199241638,0.9024006724357605
1759424281177514800,0.9755146484375,0.3127630054950714,-0.36415204405784607,0.8193230032920837
1759424281187514400,0.985514404296875,0.3127630054950714,-0.36415204405784607,0.8193230032920837
1759424281207514400,1.005514404296875,0.3127630054950714,-0.36415204405784607,0.8193230032920837
1759424281217514000,1.015513916015625,0.3127630054950714,-0.36415204405784607,0.8193230032920837
1759424281237514000,1.035513916015625,-0.3744603991508484,-0.8577311635017395,0.23655757308006287
1759424281247513900,1.045513916015625,-0.3237585723400116,0.28153252601623535,-0.244804248213768
1759424281257514000,1.055513916015625,-0.12889257073402405,1.2076042890548706,-0.5893322229385376
1759424281267513900,1.065513916015625,0.10018189996480942,1.5307519435882568,-0.7365507483482361
1759424281277514000,1.075513916015625,0.2816088795661926,1.2778537273406982,-0.6082690954208374
1759424281287513900,1.085513916015625,0.294437050819397,0.3542254865169525,-0.2906191349029541
1759424281297514000,1.095513916015625,0.18814650177955627,-1.0935251712799072,0.17180584371089935
1759424281307513900,1.105513916015625,0.022602014243602753,-2.789897918701172,0.7985535860061646
1759424281317514000,1.115513916015625,0.036651913076639175,-3.144199848175049,0.9390525817871094
1759424281327514600,1.1255146484375,0.09407325088977814,-2.8980209827423096,0.9091202020645142
1759424281337514800,1.1355146484375,0.14049901068210602,-2.3677899837493896,0.6531676650047302
1759424281347514400,1.145514404296875,0.2064724564552307,-1.6769014596939087,0.2964223623275757
1759424281367515100,1.16551513671875,0.47708576917648315,-0.51992267370224,-0.2961169183254242
1759424281377515300,1.175515380859375,0.7379252314567566,-0.29390254616737366,-0.4671591818332672
1759424281387515100,1.18551513671875,1.0238101482391357,-0.1863902509212494,-0.5557346343994141
1759424281397515300,1.195515380859375,1.207069754600525,-0.08376489579677582,-0.5294674634933472
1759424281407515100,1.20551513671875,1.2119566202163696,-0.04894557595252991,-0.34315356612205505
1759424281417515300,1.215515380859375,0.8875871896743774,-0.1906663179397583,0.12476922571659088
1759424281427515100,1.22551513671875,0.5900958180427551,-0.3427717685699463,0.3764457106590271
1759424281437515300,1.235515380859375,0.3683517575263977,-0.39103010296821594,0.5523748993873596
1759424281447514600,1.2455146484375,0.27122417092323303,-0.2254856377840042,0.6165157556533813
1759424281457514500,1.255514404296875,0.3280346393585205,0.1624137908220291,0.584139883518219
1759424281467514600,1.2655146484375,0.39706242084503174,0.723798930644989,0.5322163701057434
1759424281477514800,1.2755146484375,0.29565876722335815,1.324890375137329,0.5517640113830566
1759424281487515100,1.28551513671875,0.06902777403593063,1.8789451122283936,0.6427829265594482
1759424281497515300,1.295515380859375,-0.2015855312347412,2.4562127590179443,0.7496843934059143
1759424281507515100,1.30551513671875,-0.5027421116828918,3.054860830307007,0.7038694620132446
1759424281517515500,1.315515625,-0.7232644557952881,3.30959153175354,0.25244006514549255
1759424281527515600,1.325515625,-0.807563841342926,3.359071731567383,-0.37430769205093384
1759424281537515800,1.335515869140625,-0.7024950385093689,2.6070964336395264,-1.0743592977523804
1759424281547515600,1.345515625,-0.5821545720100403,1.5863406658172607,-1.028544306755066
1759424281557515300,1.355515380859375,-0.6963863968849182,0.3646101951599121,-0.4885394871234894
1759424281567515400,1.365515380859375,-1.027475357055664,-0.7221190929412842,0.2591595947742462
1759424281577515300,1.375515380859375,-1.3072515726089478,-1.3061062097549438,0.8376489877700806
1759424281587515400,1.385515380859375,-1.3756685256958008,-1.31038236618042,1.13758385181427
1759424281597515300,1.395515380859375,-1.3994922637939453,-0.672028124332428,1.240820050239563
1759424281607515400,1.405515380859375,-1.4257594347000122,0.47456592321395874,1.3800972700119019
1759424281617515300,1.415515380859375,-1.3243558406829834,1.0591639280319214,1.450346827507019
1759424281627515400,1.425515380859375,-1.072068452835083,0.7262424230575562,1.1094839572906494
1759424281637515300,1.435515380859375,-0.8717046976089478,0.33773213624954224,0.8810204267501831
1759424281647515600,1.445515625,-0.6420193910598755,-0.7166212797164917,0.8950703144073486
1759424281657515500,1.455515625,-0.675006091594696,-1.1161271333694458,1.1009318828582764
1759424281667515600,1.465515625,-0.6640105247497559,-1.4099533557891846,1.257924199104309
1759424281677515500,1.475515625,-0.5839871764183044,-1.5638914108276367,1.3098478317260742
1759424281687515600,1.485515625,-0.4801400899887085,-1.5638914108276367,1.3104586601257324
1759424281697515500,1.495515625,-0.3029891550540924,-1.6463582515716553,1.2945761680603027
1759424281707515600,1.505515625,-0.030543262138962746,-1.8571066856384277,1.279915452003479
1759424281717515500,1.515515625,0.1875356286764145,-2.1307742595672607,1.2194397449493408
1759424281727515600,1.525515625,0.31520646810531616,-2.704376697540283,1.070388674736023
1759424281737515500,1.535515625,0.6731734871864319,-3.0715067386627197,0.888961672782898
1759424281747515600,1.545515625,1.043968677520752,-3.1161000728607178,0.5963571667671204
1759424281757515500,1.555515625,1.3170254230499268,-2.8870255947113037,0.14798210561275482
1759424281767515600,1.565515625,1.4373658895492554,-1.9084193706512451,-0.47448956966400146
1759424281777515800,1.575515869140625,1.1942415237426758,-1.0281625986099243,-0.7451028823852539
1759424281787515600,1.585515625,0.6939429044723511,-0.3275001347064972,-0.9863946437835693
1759424281797515800,1.595515869140625,0.45692721009254456,-0.06238461285829544,-1.2203559875488281
1759424281807515600,1.605515625,0.50335294008255,-0.1350775808095932,-1.3303117752075195
1759424281817515800,1.615515869140625,0.6352998614311218,-0.6512587070465088,-1.3687963485717773
1759424281827515600,1.625515625,0.779464066028595,-1.4295010566711426,-1.3645201921463013
1759424281837515500,1.635515625,0.9040805697441101,-1.9646190404891968,-1.1928671598434448
1759424281847515600,1.645515625,1.0751228332519531,-2.402609348297119,-0.964403510093689
1759424281857516000,1.65551611328125,1.19607412815094,-2.4484243392944336,-0.7457137703895569
1759424281867516000,1.665515869140625,1.1331549882888794,-1.9108628034591675,-0.5606215596199036
1759424281877516000,1.67551611328125,1.0958921909332275,-0.9310349822044373,-0.6143777370452881
1759424281887516000,1.685515869140625,0.9755517840385437,-0.09781479835510254,-0.7347181439399719
1759424281897516000,1.69551611328125,0.788016140460968,0.753120481967926,-0.803135097026825
1759424281907516000,1.705515869140625,0.7715228199958801,1.448896050453186,-0.8171849846839905
1759424281917516000,1.71551611328125,0.9388998746871948,1.951027274131775,-0.6876815557479858
1759424281927516000,1.725515869140625,1.1020009517669678,2.1251237392425537,-0.4329507350921631
1759424281937516000,1.73551611328125,1.1484266519546509,2.050598382949829,-0.0328340083360672
1759424281947516200,1.74551611328125,1.0793988704681396,1.761659026145935,0.4363104999065399
1759424281957516000,1.75551611328125,0.8741481900215149,1.3371076583862305,0.8052731156349182
1759424281967516200,1.76551611328125,0.49296826124191284,1.1660653352737427,1.114981770515442
1759424281977516000,1.77551611328125,0.0757472887635231,1.3016774654388428,1.3709343671798706
1759424281987516200,1.78551611328125,-0.20341812074184418,1.4299591779708862,1.4369077682495117
1759424281997516000,1.79551611328125,-0.32559117674827576,1.9559141397476196,1.1913399696350098
1759424282007516200,1.80551611328125,-0.0708603709936142,2.0958023071289062,0.8559749126434326
1759424282017516000,1.81551611328125,0.23396138846874237,2.016389846801758,0.49128836393356323
1759424282027516200,1.82551611328125,0.5497786998748779,1.6407077312469482,0.08017606288194656
1759424282037516000,1.83551611328125,0.8674286603927612,1.3590987920761108,-0.3260493278503418
1759424282047516200,1.84551611328125,0.9181304574012756,1.321835994720459,-0.6717990636825562
1759424282057516000,1.85551611328125,0.12034045159816742,1.855121374130249,-0.4665483236312866
1759424282067516200,1.86551611328125,-0.46731191873550415,1.1850022077560425,-0.0884227454662323
1759424282077516000,1.87551611328125,-0.5314527750015259,0.49900054931640625,-0.004123340360820293
1759424282087516200,1.88551611328125,-0.3237585723400116,0.9913579225540161,-0.027947084978222847
1759424282097516000,1.89551611328125,-0.5681046843528748,2.553340435028076,-0.046273041516542435
1759424282107516200,1.90551611328125,-1.0641272068023682,2.814790725708008,-0.31261029839515686
1759424282117516000,1.91551611328125,-0.9999864101409912,2.996217727661133,-0.11468994617462158
1759424282127516200,1.92551611328125,-1.5998560190200806,3.6382369995117188,0.554818332195282
1759424282137516000,1.93551611328125,-1.2980886697769165,1.1294134855270386,0.5542075037956238
1759424282147516200,1.94551611328125,-0.4801400899887085,0.17402023077011108,0.5975789427757263
1759424282157516000,1.95551611328125,0.7086036801338196,0.4757876694202423,0.7948883771896362
1759424282167516200,1.96551611328125,1.6682729721069336,0.4458552598953247,0.33918291330337524
1759424282177516000,1.97551611328125,1.623068928718567,1.3664292097091675,-0.021838432177901268
1759424282187516200,1.98551611328125,1.1826350688934326,1.7017942667007446,-0.16294831037521362
1759424282197516000,1.99551611328125,0.6579018831253052,1.0390053987503052,-0.08170322328805923
1759424282207516200,2.00551611328125,0.21502456068992615,-0.0794888436794281,0.03375030308961868
1759424282217516000,2.01551611328125,-0.10934487730264664,-0.8387943506240845,0.3104722499847412
1759424282227516200,2.02551611328125,-0.3335324227809906,-1.1149054765701294,0.8596401214599609
1759424282237516000,2.03551611328125,-0.1875356286764145,-1.25051748752594,0.351400226354599
1759424282247516200,2.04551611328125,0.14782938361167908,-1.0751992464065552,-0.08781187981367111
1759424282257516000,2.05551611328125,0.37629300355911255,-0.9102655649185181,-0.20265454053878784
1759424282267516200,2.06551611328125,0.4911356568336487,-0.9627999663352966,-0.05421429127454758
1759424282277516000,2.07551611328125,0.5864306092262268,-1.0532079935073853,0.1944078654050827
1759424282287516200,2.08551611328125,0.5528330206871033,-1.0238865613937378,0.3721696436405182
1759424282297516000,2.09551611328125,0.4398229718208313,-0.8540659546852112,0.4583016633987427
1759424282307516200,2.10551611328125,0.25534167885780334,-0.6640868782997131,0.3520110845565796
1759424282317516000,2.11551611328125,0.12950342893600464,-0.6311001777648926,0.09728029370307922
1759424282327516200,2.12551611328125,0.22479841113090515,-0.6078872680664062,-0.10980302840471268
1759424282337516000,2.13551611328125,0.5180137157440186,-0.5571854710578918,-0.3119994103908539
1759424282347516200,2.14551611328125,0.6591235995292664,-0.5235878825187683,-0.4531092941761017
1759424282357516000,2.15551611328125,0.6059783101081848,-0.5596289038658142,-0.35414913296699524
1759424282367516200,2.16551611328125,0.19120082259178162,-0.5608506798744202,-0.16172657907009125
1759424282377516000,2.17551611328125,-0.2571742534637451,-0.6378196477890015,-0.07559457421302795
1759424282387516200,2.18551611328125,-0.48258355259895325,-0.9554696083068848,-0.0328340083360672
1759424282397516000,2.19551611328125,-0.513126790523529,-1.2554044723510742,-0.02428189292550087
1759424282407516200,2.20551611328125,-0.4349360466003418,-1.3116040229797363,-0.0377209298312664
1759424282417516000,2.21551611328125,-0.43737950921058655,-1.422170639038086,-0.02428189292550087
1759424282427516200,2.22551611328125,-0.5082398653030396,-1.5364024639129639,0.044135015457868576
1759424282437516000,2.23551611328125,-0.5381723046302795,-1.3934600353240967,0.18280142545700073
1759424282447516200,2.24551611328125,-0.46670106053352356,-1.1845440864562988,0.2591595947742462
1759424282457516000,2.25551611328125,-0.29138273000717163,-0.6512587070465088,0.08261952549219131
1759424282467516200,2.26551611328125,-0.04092797264456749,-0.4429536461830139,-0.05115996301174164
1759424282477516000,2.27551611328125,0.25595253705978394,-0.43562328815460205,-0.19776763021945953
1759424282487516200,2.28551611328125,0.4642575979232788,-0.34093916416168213,-0.3376557528972626
1759424282497516000,2.29551611328125,0.5125159621238708,-0.17417295277118683,-0.4231768846511841
1759424282507516200,2.30551611328125,0.5076290369033813,0.14408783614635468,-0.3462078869342804
1759424282517516000,2.31551611328125,0.46670106053352356,0.31085404753685,-0.08781187981367111
1759424282527516200,2.32551611328125,0.4050036668777466,0.27786731719970703,0.20601430535316467
1759424282537516000,2.33551611328125,0.21868975460529327,-0.12835806608200073,0.38866302371025085
1759424282547516200,2.34551611328125,0.11972958594560623,-0.6359871029853821,0.4882340431213379
1759424282557516000,2.35551611328125,0.313373863697052,-0.843070387840271,0.6244570016860962
1759424282567516200,2.36551611328125,0.8949176073074341,-0.8681158423423767,0.8553640842437744
1759424282577516000,2.37551611328125,1.4343116283416748,-0.8485682010650635,0.9207266569137573
1759424282587516000,2.385515869140625,2.040900707244873,-0.6115524768829346,0.7863363027572632
1759424282597516000,2.39551611328125,2.7739391326904297,-0.3079524338245392,0.4986187517642975
1759424282607516000,2.405515869140625,3.5631768703460693,0.04207334294915199,0.17791450023651123
1759424282617516000,2.41551611328125,4.1160101890563965,0.7158576846122742,-0.03344487398862839
1759424282627516000,2.425515869140625,4.134946823120117,1.2980122566223145,-0.11163562536239624
1759424282637516000,2.43551611328125,4.117231845855713,1.464167594909668,0.03436116874217987
1759424282647516000,2.445515869140625,4.161824703216553,1.601001501083374,0.17119498550891876
1759424282657516000,2.45551611328125,3.9962804317474365,1.3566553592681885,0.21090123057365417
1759424282667516000,2.465515869140625,3.8008036613464355,1.0310641527175903,0.22067506611347198
1759424282677516000,2.47551611328125,3.2449162006378174,0.38232529163360596,0.1290452778339386
1759424282687516000,2.485515869140625,2.7262916564941406,-0.09170614182949066,0.055741455405950546
1759424282697516000,2.49551611328125,2.1453588008880615,-0.4398993253707886,0.1992947906255722
1759424282707516000,2.505515869140625,1.6255123615264893,-0.7966446280479431,0.432034432888031
1759424282717516000,2.51551611328125,1.2009611129760742,-0.9774607419967651,0.6366742849349976
1759424282727516000,2.525515869140625,0.9040805697441101,-1.0800861120224,0.6550002694129944
1759424282737516000,2.53551611328125,0.7031059265136719,-0.9145416021347046,0.5560401082038879
1759424282747516000,2.545515869140625,0.5925393104553223,-0.467999130487442,0.40943244099617004
1759424282757516000,2.55551611328125,0.4355469346046448,0.06834054738283157,0.2860376536846161
1759424282767516000,2.565515869140625,0.2541199326515198,0.30108019709587097,0.16814066469669342
1759424282777516000,2.57551611328125,0.20402899384498596,-0.04466952010989189,0.0887281745672226
1759424282787516200,2.58551611328125,0.0910189226269722,-0.8839983940124512,0.12232576310634613
1759424282797516000,2.59551611328125,-0.8814785480499268,-2.5479953289031982,0.3550654351711273
1759424282807516200,2.60551611328125,-1.7201964855194092,-3.0763938426971436,0.4057672321796417
1759424282817516000,2.61551611328125,-2.032959461212158,-3.541262149810791,0.48517972230911255
1759424282827516000,2.625515869140625,-1.9346102476119995,-3.6157877445220947,0.5395467281341553
1759424282837516000,2.63551611328125,-1.5369369983673096,-3.2944726943969727,0.5071708559989929
1759424282847516000,2.645515869140625,-1.0225883722305298,-2.734920024871826,0.30741792917251587
1759424282857516000,2.65551611328125,-0.5253441333770752,-1.3201560974121094,-0.2955060601234436
1759424282867516000,2.665515869140625,-0.03848451003432274,0.7195228934288025,-0.8202393054962158
1759424282877516000,2.67551611328125,0.5308418869972229,1.988900899887085,-1.2264647483825684
1759424282887516200,2.68551611328125,0.9193521738052368,2.3694698810577393,-1.5276212692260742
1759424282897516000,2.69551611328125,1.1178834438323975,2.1855995655059814,-1.6052011251449585
1759424282927776800,2.72577685546875,1.4025466442108154,0.9711993932723999,-1.232573390007019
1759424282937776600,2.735776611328125,1.3817771673202515,0.8905651569366455,-1.1855367422103882
1759424282947776800,2.74577685546875,1.281595230102539,0.9828058481216431,-1.0780243873596191
1759424282957776600,2.755776611328125,1.1716395616531372,0.8270351886749268,-1.0138835906982422
1759424282967776800,2.76577685546875,1.1215485334396362,0.582078218460083,-0.9607383012771606
1759424282977776600,2.775776611328125,1.1704177856445312,0.2595413625240326,-0.9613491892814636
1759424282987776800,2.78577685546875,1.2773191928863525,-0.004963280167430639,-0.5587889552116394
1759424282997776600,2.795776611328125,1.084285855293274,0.11598803848028183,0.18829920887947083
1759424283007776800,2.80577685546875,0.8594874143600464,-0.5810092091560364,0.12660181522369385
1759424283017776600,2.815776611328125,0.6249151229858398,-0.17905987799167633,0.17058411240577698
1759424283027776800,2.82577685546875,0.43188172578811646,0.2033417671918869,0.15531249344348907
1759424283037776600,2.835776611328125,0.4434881806373596,0.28703030943870544,0.2041817009449005
1759424283047776800,2.84577685546875,0.4807509481906891,0.21739166975021362,0.2646573781967163
1759424283057776600,2.855776611328125,0.46242499351501465,-0.03000875562429428,0.3599523603916168
1759424283067776800,2.86577685546875,0.403781920671463,-0.3720932900905609,0.45891252160072327
1759424283077776600,2.875776611328125,0.3995058834552765,-0.6280458569526672,0.5542075037956238
1759424283087776800,2.88577685546875,0.44287729263305664,-0.7367798686027527,0.6598871946334839
1759424283097776600,2.895776611328125,0.5381723046302795,-0.8131380081176758,0.7392996549606323
1759424283107776800,2.90577685546875,0.6114761233329773,-1.0269408226013184,0.7307475209236145
1759424283117776600,2.915776611328125,0.7055493593215942,-0.681801974773407,0.5835290551185608
1759424283127776800,2.92577685546875,0.8032878041267395,-0.21449005603790283,0.3959933817386627
1759424283137776600,2.935776611328125,1.007927656173706,-0.14179709553718567,0.006261368747800589
1759424283147776800,2.94577685546875,1.3103059530258179,-0.8980482816696167,-0.5813909769058228
1759424283157776600,2.955776611328125,1.531439185142517,-1.0580949783325195,-0.7689266204833984
1759424283167776800,2.96577685546875,1.5057828426361084,-0.29878947138786316,-0.24908030033111572
1759424283177776600,2.975776611328125,1.6175711154937744,-0.13141238689422607,0.023976460099220276
1759424283187776800,2.98577685546875,1.76723313331604,-0.22976168990135193,0.12171489745378494
1759424283197776600,2.995776611328125,1.9065104722976685,-0.23770293593406677,0.1797471046447754
1759424283207776800,3.00577685546875,2.0396790504455566,-0.21937698125839233,0.15164729952812195
1759424283217776600,3.015776611328125,2.144136905670166,-0.17172949016094208,0.11133018881082535
1759424283227776800,3.02577685546875,2.2211060523986816,-0.07338018715381622,0.07284568250179291
1759424283237776600,3.035776611328125,2.275473117828369,-0.025732697919011116,0.10155634582042694
1759424283247776800,3.04577685546875,2.313957452774048,-0.017180584371089935,0.1644754707813263
1759424283257776600,3.055776611328125,2.3548855781555176,-0.037950001657009125,0.16691893339157104
1759424283267776800,3.06577685546875,2.3359487056732178,0.009086620062589645,0.14065171778202057
1759424283277776600,3.075776611328125,2.299907684326172,0.07628180086612701,0.1235474944114685
1759424283287776800,3.08577685546875,2.230268955230713,0.04329507425427437,0.006872233934700489
1759424283297776600,3.095776611328125,2.116647958755493,-0.15890131890773773,-0.11652254313230515
1759424283307776800,3.10577685546875,2.0024163722991943,-0.23281601071357727,-0.048716504126787186
1759424283317776600,3.115776611328125,2.1844542026519775,-0.5248095989227295,-0.05421429127454758
1759424283327776800,3.12577685546875,3.0250046253204346,-0.9627999663352966,-0.6748533844947815
1759424283337776600,3.135776611328125,3.706730365753174,-1.2969433069229126,-1.0926852226257324
1759424283347776800,3.14577685546875,3.579059362411499,-1.9365191459655762,-0.6192646622657776
1759424283357776600,3.155776611328125,3.219259738922119,-2.4820218086242676,0.15347988903522491
1759424283367776800,3.16577685546875,2.5308146476745605,-2.617633819580078,0.8541423082351685
1759424283377776600,3.175776611328125,1.948660135269165,-2.2889883518218994,0.9127854108810425
1759424283387776800,3.18577685546875,1.3878858089447021,-1.698892593383789,0.6995934247970581
1759424283397776600,3.195776611328125,0.9480628371238708,-0.8375726342201233,0.3269656300544739
1759424283407776800,3.20577685546875,0.6725626587867737,0.13492485880851746,-0.007177666760981083
1759424283417776600,3.215776611328125,0.5161811113357544,0.886289119720459,-0.1898263692855835
1759424283427776800,3.22577685546875,0.4899139404296875,1.1868348121643066,-0.1892155110836029
1759424283437776600,3.235776611328125,0.5112941861152649,1.2363148927688599,-0.10186178237199783
1759424283447776800,3.24577685546875,0.5900958180427551,1.0909289121627808,0.0019853119738399982
1759424283457776600,3.255776611328125,0.6224716901779175,0.8936194777488708,0.05696318298578262
1759424283467776800,3.26577685546875,0.588874101638794,0.7470118403434753,0.056352317333221436
1759424283477776600,3.275776611328125,0.53328537940979,0.6553820371627808,0.021532999351620674
1759424283487776800,3.28577685546875,0.4196644127368927,0.5606979131698608,-0.019394971430301666
1759424283497776600,3.295776611328125,0.14416420459747314,0.553978443145752,-0.0377209298312664
1759424283507776800,3.30577685546875,-0.3072652220726013,0.491670161485672,-0.04932736977934837
1759424283517776600,3.315776611328125,-0.4758640229701996,0.4568508565425873,0.01970040425658226
1759424283527776800,3.32577685546875,-0.33719760179519653,0.4049273133277893,0.13026700913906097
1759424283537776600,3.335776611328125,-0.19914206862449646,0.27114781737327576,0.19135354459285736
1759424283547776800,3.34577685546875,-0.15027284622192383,0.19051359593868256,0.16569720208644867
1759424283557776600,3.355776611328125,-0.1466076523065567,0.2082286924123764,0.13820825517177582
1759424283567776800,3.36577685546875,-0.1368338167667389,0.31635183095932007,0.1485929638147354
1759424283577776600,3.375776611328125,-0.12767083942890167,0.4348596930503845,0.18829920887947083
1759424283587776800,3.38577685546875,-0.1215621829032898,0.5393176674842834,0.2396118938922882
1759424283597776600,3.395776611328125,-0.13866640627384186,0.6346126198768616,0.31902438402175903
1759424283607776800,3.40577685546875,-0.11972958594560623,0.6364452242851257,0.361174076795578
1759424283617776600,3.415776611328125,-0.07819075137376785,0.5332090258598328,0.3617849349975586
1759424283627776800,3.42577685546875,-0.03481931984424591,0.39759692549705505,0.35934147238731384
1759424283637776600,3.435776611328125,0.01160643994808197,0.24549147486686707,0.35934147238731384
1759424283647776800,3.44577685546875,0.05925392732024193,0.08666650950908661,0.3520110845565796
1759424283657776600,3.455776611328125,0.1014036312699318,-0.05749769136309624,0.34162637591362
1759424283667776800,3.46577685546875,0.13377949595451355,-0.18272507190704346,0.3251330256462097
1759424283677776600,3.475776611328125,0.1618792861700058,-0.2816852331161499,0.2964223623275757
1759424283687776800,3.48577685546875,0.18020524084568024,-0.3537673354148865,0.2603813111782074
1759424283697776600,3.495776611328125,0.1814269721508026,-0.4020256996154785,0.22372940182685852
1759424283707776800,3.50577685546875,0.1771509200334549,-0.4484514594078064,0.20234911143779755
1759424283717776600,3.515776611328125,0.16859880089759827,-0.5504659414291382,0.19013181328773499
1759424283727776800,3.52577685546875,0.16920967400074005,-0.6127741932868958,0.16630806028842926
1759424283737776600,3.535776611328125,0.17776179313659668,-0.6500369906425476,0.13454307615756989
1759424283747776800,3.54577685546875,0.19364428520202637,-0.6646977663040161,0.10033461451530457
1759424283757776600,3.555776611328125,0.22296582162380219,-0.6506478190422058,0.07895433157682419
1759424283767776800,3.56577685546875,0.251676470041275,-0.6084981560707092,0.06979135423898697
1759424283777776600,3.575776611328125,0.26145032048225403,-0.5468007326126099,0.06551529467105865
1759424283787776800,3.58577685546875,0.2626720666885376,-0.4637230932712555,0.0630718395113945
1759424283797776600,3.595776611328125,0.21380282938480377,-0.4124104082584381,0.08384125679731369
1759424283807776800,3.60577685546875,0.14782938361167908,-0.5022075772285461,0.16142113506793976
1759424283817776600,3.615776611328125,0.10445795953273773,-0.6598108410835266,0.2292271852493286
1759424283827776800,3.62577685546875,0.056810468435287476,-0.901102602481842,0.2402227520942688
1759424283837776600,3.635776611328125,0.007941247895359993,-1.0483211278915405,0.25182920694351196
1759424283847776800,3.64577685546875,0.051312681287527084,-1.0599275827407837,0.22128593921661377
1759424283857776600,3.655776611328125,0.313373863697052,-0.9120981693267822,0.026419922709465027
1759424283867776800,3.66577685546875,0.7073819637298584,-0.5968917012214661,-0.40424007177352905
1759424283877776600,3.675776611328125,1.0384708642959595,-0.09537133574485779,-1.0633636713027954
1759424283887776800,3.68577685546875,1.2040153741836548,0.41897720098495483,-1.8348864316940308
1759424283897776600,3.695776611328125,1.2082914113998413,0.6944774389266968,-2.5673139095306396
1759424283907776800,3.70577685546875,1.0848966836929321,0.8276460766792297,-3.0633363723754883
1759424283917776600,3.715776611328125,0.8118399381637573,0.9406561255455017,-3.187952995300293
1759424283927776800,3.72577685546875,0.48685958981513977,0.9864709973335266,-2.9998064041137695
1759424283937776600,3.735776611328125,0.18509216606616974,0.8606327772140503,-2.6308438777923584
1759424283947776800,3.74577685546875,-0.029932396486401558,0.46906813979148865,-2.043191432952881
1759424283957776600,3.755776611328125,0.06108652427792549,0.26259568333625793,-1.8452712297439575
1759424283967776800,3.76577685546875,0.3323107063770294,0.1734093725681305,-1.8703166246414185
1759424283977776600,3.775776611328125,0.6805039048194885,0.1880701333284378,-2.1849122047424316
1759424283987776800,3.78577685546875,0.8900306820869446,0.4421900808811188,-2.701704263687134
1759424283997776600,3.795776611328125,1.0396926403045654,0.9180541038513184,-3.0663907527923584
1759424284007776800,3.80577685546875,1.2064588069915771,1.6016123294830322,-3.1897854804992676
1759424284017776600,3.815776611328125,1.3243558406829834,2.2589032649993896,-3.1757357120513916
1759424284027776800,3.82577685546875,1.2834278345108032,2.5289058685302734,-2.9778153896331787
1759424284037776600,3.835776611328125,1.0561859607696533,2.5851054191589355,-2.6705501079559326
1759424284047776800,3.84577685546875,0.7275404930114746,2.7298803329467773,-2.415208578109741
1759424284057776600,3.855776611328125,0.11423180252313614,2.759812831878662,-2.079843521118164
1759424284067776300,3.8657763671875,-0.192422553896904,2.036548376083374,-1.9552268981933594
1759424284077776000,3.87577587890625,-0.3390302062034607,1.0445032119750977,-1.9943222999572754
1759424284087775700,3.885775634765625,-0.4660901725292206,0.4458552598953247,-1.9931005239486694
1759424284097775900,3.89577587890625,-0.5858197808265686,-0.20838139951229095,-2.0254764556884766
1759424284107775700,3.905775634765625,-0.6475171446800232,-0.4741078019142151,-2.171473264694214
1759424284117776000,3.91577587890625,-0.7067710757255554,-0.4741078019142151,-2.409099817276001
1759424284127775700,3.925775634765625,-0.7623597979545593,-0.5278639197349548,-2.6363415718078613
1759424284137775900,3.93577587890625,-0.8051204085350037,-0.6256023645401001,-2.8660271167755127
1759424284147775700,3.945775634765625,-0.8576548099517822,-0.6940192580223083,-3.0779972076416016
1759424284157776000,3.95577587890625,-0.8833111524581909,-0.7441102266311646,-3.204446315765381
1759424284167775700,3.965775634765625,-0.7837401032447815,-1.02327561378479,-3.151301145553589
1759424284177775900,3.97577587890625,-0.6798930168151855,-1.3403147459030151,-3.0407345294952393
1759424284187775700,3.985775634765625,-0.6243042945861816,-1.5162439346313477,-2.853198766708374
1759424284197776000,3.99577587890625,-0.5650503635406494,-1.3794100284576416,-2.6302330493927
1759424284207775700,4.005775634765625,-0.48197266459465027,-1.0452667474746704,-2.4133758544921875
1759424284217775900,4.01577587890625,-0.4043927788734436,-0.739223301410675,-2.182468891143799
1759424284227775700,4.025775634765625,-0.3243694305419922,-0.5626832246780396,-1.9766072034835815
1759424284237776000,4.03577587890625,-0.24923302233219147,-0.549244225025177,-1.8012888431549072
1759424284247775700,4.045775634765625,-0.17348572611808777,-0.5730679631233215,-1.6632333993911743
1759424284257775900,4.05577587890625,-0.12461651116609573,-0.500985860824585,-1.5013540983200073
1759424284267775700,4.065775634765625,-0.08918632566928864,-0.4221842288970947,-1.3156510591506958
1759424284277776000,4.07577587890625,-0.0659734457731247,-0.3372739851474762,-1.1146763563156128
1759424284287776000,4.08577587890625,-0.07819075137376785,-0.27496573328971863,-0.8177958726882935
1759424284297775900,4.09577587890625,-0.0959058403968811,-0.23953554034233093,-0.6345362663269043
1759424284307776000,4.10577587890625,-0.10751228034496307,-0.18455766141414642,-0.4885394871234894
1759424284317776000,4.11577587890625,-0.11789698898792267,-0.16317738592624664,-0.36453384160995483
1759424284327775700,4.125775634765625,-0.12950342893600464,-0.19005544483661652,-0.2600758671760559
1759424284337775900,4.13577587890625,-0.15882496535778046,-0.23770293593406677,-0.16844609379768372
1759424284347775700,4.145775634765625,-0.19486601650714874,-0.2603049576282501,-0.07864890247583389
1759424284357776000,4.15577587890625,-0.24373523890972137,-0.2755765914916992,0.02886338345706463
1759424284367776300,4.1657763671875,-0.29077184200286865,-0.23403774201869965,0.16630806028842926
1759424284377776600,4.175776611328125,-0.34208452701568604,-0.1356884390115738,0.32757648825645447
1759424284387776800,4.18577685546875,-0.4092797040939331,-0.03550654277205467,0.5230533480644226
1759424284397776600,4.195776611328125,-0.5552765130996704,0.0768926590681076,0.7820602059364319
1759424284407776800,4.20577685546875,-0.6517932415008545,0.17402023077011108,0.9256135821342468
1759424284417776600,4.215776611328125,-0.7220427393913269,0.25526532530784607,1.0960450172424316
1759424284427776800,4.22577685546875,-0.7623597979545593,0.25160011649131775,1.2524265050888062
1759424284437776600,4.235776611328125,-0.7660250067710876,0.22655464708805084,1.333060622215271
1759424284447776800,4.24577685546875,-0.7293730974197388,0.2680934965610504,1.279915452003479
1759424284457776600,4.255776611328125,-0.7312057018280029,0.45257478952407837,1.1302534341812134
1759424284467776800,4.26577685546875,-0.750142514705658,0.6346126198768616,1.088714599609375
1759424284477776600,4.275776611328125,-0.6743952035903931,0.3701079785823822,1.3629931211471558
1759424284487776800,4.28577685546875,-0.5290092825889587,-0.1295797973871231,1.7038558721542358
1759424284497776600,4.295776611328125,-0.4801400899887085,-0.43623414635658264,1.9243782758712769
1759424284507776800,4.30577685546875,-0.5607742667198181,-0.3574325144290924,1.951256275177002
1759424284517776600,4.315776611328125,-0.475253164768219,0.23449589312076569,1.916437029838562
1759424284527776800,4.32577685546875,-0.38179078698158264,0.3047454059123993,1.9952386617660522
1759424284537776600,4.335776611328125,-0.3903428912162781,0.1630246639251709,1.9769126176834106
1759424284547776800,4.34577685546875,-0.44287729263305664,0.13920091092586517,1.9341521263122559
1759424284557776600,4.355776611328125,-0.4697553813457489,0.1776854246854782,1.9811886548995972
1759424284567776800,4.36577685546875,-0.485027015209198,0.12637275457382202,2.0984747409820557
1759424284577776600,4.375776611328125,-0.48258355259895325,-0.028787024319171906,2.1699459552764893
1759424284587776800,4.38577685546875,-0.44776421785354614,-0.13629931211471558,2.1516201496124268
1759424284597776600,4.395776611328125,-0.33108896017074585,-0.07765624672174454,2.0532708168029785
1759424284607776800,4.40577685546875,-0.15332718193531036,0.05978843569755554,1.8718438148498535
1759424284617776600,4.415776611328125,0.04092797264456749,0.11293371021747589,1.6830865144729614
1759424284627776800,4.42577685546875,0.3579670190811157,-0.012293662875890732,1.5560264587402344
1759424284637776600,4.435776611328125,0.5265658497810364,-0.14118622243404388,1.5468635559082031
1759424284647776800,4.44577685546875,0.655458390712738,-0.22243130207061768,1.581682801246643
1759424284657776600,4.455776611328125,0.7605272531509399,-0.13935363292694092,1.6336064338684082
1759424284667776800,4.46577685546875,0.7941248416900635,-0.014737123623490334,1.7172949314117432
1759424284677776600,4.475776611328125,0.789237916469574,0.16607898473739624,1.7918205261230469
1759424284687776800,4.48577685546875,0.7507534027099609,0.32795828580856323,1.8571830987930298
1759424284697776600,4.495776611328125,0.7147123217582703,0.40248385071754456,1.8938349485397339
1759424284707776800,4.50577685546875,0.6914994716644287,0.4666246771812439,1.9078848361968994
1759424284717776600,4.515776611328125,0.6841690540313721,0.534430742263794,1.8504635095596313
1759424284727776800,4.52577685546875,0.6768386960029602,0.5570327639579773,1.7411186695098877
1759424284737776600,4.535776611328125,0.6322455406188965,0.40920335054397583,1.6360498666763306
1759424284747776800,4.54577685546875,0.46547931432724,-0.028176158666610718,1.5377005338668823
1759424284757776600,4.555776611328125,0.3194825351238251,-0.3525456190109253,1.4582880735397339
1759424284767776800,4.56577685546875,0.1814269721508026,-0.6518695950508118,1.3605495691299438
1759424284777776600,4.575776611328125,0.06719517707824707,-0.8839983940124512,1.2768610715866089
1759424284787776800,4.58577685546875,-0.04948008432984352,-1.0947468280792236,1.2279918193817139
1759424284797776600,4.595776611328125,-0.12828169763088226,-1.2224177122116089,1.152855396270752
1759424284807776800,4.60577685546875,-0.22052235901355743,-1.279839038848877,1.0746647119522095
1759424284817776600,4.615776611328125,-0.33108896017074585,-1.3042736053466797,1.0160216093063354
1759424284827776800,4.62577685546875,-0.47280970215797424,-1.3586406707763672,1.048397421836853
1759424284837776600,4.635776611328125,-0.5674937963485718,-1.2877802848815918,1.1271990537643433
1759424284847776800,4.64577685546875,-0.5723807215690613,-1.0043388605117798,1.1614075899124146
1759424284857776600,4.655776611328125,-0.45692721009254456,-0.549244225025177,1.0899362564086914
1759424284867776800,4.66577685546875,-0.37690386176109314,-0.38064539432525635,1.0074695348739624
1759424284877776600,4.675776611328125,-0.35185837745666504,-0.3232240676879883,0.9757044911384583
1759424284887776800,4.68577685546875,-0.34208452701568604,-0.32078060507774353,0.9934195876121521
1759424284897776600,4.695776611328125,-0.31459560990333557,-0.36903896927833557,0.9970847964286804
1759424284907776800,4.70577685546875,-0.26083946228027344,-0.4881576895713806,0.9408851861953735
1759424284917776600,4.715776611328125,-0.18814650177955627,-0.5840635299682617,0.8394815921783447
1759424284927776800,4.72577685546875,-0.1111774742603302,-0.6170502305030823,0.7307475209236145
1759424284937776600,4.735776611328125,-0.05192354694008827,-0.7141778469085693,0.603687584400177
1759424284947776800,4.74577685546875,0.0012217304902151227,-0.8082510828971863,0.471129834651947
1759424284957776600,4.755776611328125,0.06780604273080826,-0.8198575377464294,0.3770565688610077
1759424284967776800,4.76577685546875,0.12339477986097336,-0.7777078151702881,0.3245221674442291
1759424284977776600,4.775776611328125,0.14294247329235077,-0.5932264924049377,0.3397938013076782
1759424284987776800,4.78577685546875,0.08979719132184982,-0.43073636293411255,0.4564690589904785
1759424284997776600,4.795776611328125,-0.0024434609804302454,-0.35559993982315063,0.5505422949790955
1759424285007776800,4.80577685546875,-0.08979719132184982,-0.3537673354148865,0.5700899958610535
1759424285017776600,4.815776611328125,-0.15515977144241333,-0.3763693571090698,0.5407684445381165
1759424285027776800,4.82577685546875,-0.19853121042251587,-0.4026365578174591,0.5199990272521973
1759424285037776600,4.835776611328125,-0.22052235901355743,-0.46066874265670776,0.5120577812194824
1759424285047776800,4.84577685546875,-0.24923302233219147,-0.5468007326126099,0.5132794976234436
1759424285057776600,4.855776611328125,-0.2871066629886627,-0.6298784017562866,0.4967861473560333
1759424285067776800,4.86577685546875,-0.2828305959701538,-0.6610325574874878,0.4717406928539276
1759424285077776600,4.875776611328125,-0.1966986060142517,-0.6634759902954102,0.3929390609264374
1759424285087776800,4.88577685546875,0.04642575979232788,-0.6298784017562866,0.08628471940755844
1759424285097776600,4.895776611328125,0.192422553896904,-0.5510768294334412,-0.25763240456581116
1759424285107776800,4.90577685546875,0.25534167885780334,-0.4075234830379486,-0.6290385127067566
1759424285117776600,4.915776611328125,0.2382374405860901,-0.24014639854431152,-0.9002626538276672
1759424285127776800,4.92577685546875,0.1771509200334549,-0.05077817291021347,-1.0193814039230347
1759424285137776600,4.935776611328125,0.14905111491680145,0.10621419548988342,-0.9998337030410767
1759424285147776800,4.94577685546875,0.16310101747512817,0.14958561956882477,-0.9509644508361816
1759424285157776600,4.955776611328125,0.18020524084568024,-0.0031306843739002943,-1.003498911857605
1759424285167776800,4.96577685546875,0.24678955972194672,-0.35926511883735657,-1.1916453838348389
1759424285177776600,4.975776611328125,0.4001167416572571,-0.8009206652641296,-1.5056301355361938
1759424285187776800,4.98577685546875,0.6279694437980652,-1.1491138935089111,-1.8947513103485107
1759424285197776600,4.995776611328125,0.9230173826217651,-1.2040917873382568,-2.344959020614624
1759424285207776800,5.00577685546875,1.539380431175232,-0.6408740282058716,-3.0663907527923584
1759424285217776600,5.015776611328125,1.8613064289093018,0.1324813961982727,-3.4329099655151367
1759424285227776800,5.02577685546875,1.9309450387954712,1.2784645557403564,-3.581350326538086
1759424285237776600,5.035776611328125,1.6646077632904053,2.729269504547119,-3.456122875213623
1759424285247776800,5.04577685546875,1.2107349634170532,4.22772216796875,-3.0443997383117676
1759424285257776600,5.055776611328125,0.7110471725463867,5.126304626464844,-2.417651891708374
1759424285267776800,5.06577685546875,0.30482175946235657,5.290627479553223,-1.8813122510910034
1759424285277776600,5.075776611328125,0.16004669666290283,4.618675708770752,-1.5416711568832397
1759424285287776800,5.08577685546875,0.029932396486401558,3.451923131942749,-1.3602441549301147
1759424285297776600,5.095776611328125,-0.19364428520202637,2.377411127090454,-1.3193162679672241
1759424285307776800,5.10577685546875,-0.33047810196876526,1.6413185596466064,-1.3596333265304565
1759424285317776600,5.115776611328125,-0.42760565876960754,1.1184178590774536,-1.5373951196670532
1759424285327776800,5.12577685546875,-0.4001167416572571,0.9883036017417908,-1.724930763244629
1759424285337776600,5.135776611328125,-0.36713001132011414,0.6700428128242493,-1.887420892715454
1759424285347776800,5.14577685546875,-0.31642818450927734,0.29252809286117554,-2.012037515640259
1759424285357776600,5.155776611328125,-0.27550023794174194,-0.0012980886967852712,-2.107332468032837
1759424285367776800,5.16577685546875,-0.21807889640331268,-0.1607339233160019,-2.1794145107269287
1759424285377776600,5.175776611328125,-0.21135938167572021,-0.42584943771362305,-2.1812469959259033
1759424285387776800,5.18577685546875,-0.22479841113090515,-0.7227299213409424,-2.2521073818206787
1759424285397776600,5.195776611328125,-0.23579397797584534,-0.8302422165870667,-2.498286247253418
1759424285407776800,5.20577685546875,-0.251676470041275,-0.700127899646759,-2.8134925365448
1759424285417776600,5.215776611328125,-0.24007004499435425,-0.5614615082740784,-3.0169107913970947
1759424285427776800,5.22577685546875,-0.27977627515792847,-0.5993351340293884,-2.925281047821045
1759424285437776600,5.235776611328125,-0.27550023794174194,-0.7416667938232422,-2.635119915008545
1759424285447776800,5.24577685546875,-0.25961771607398987,-0.7764860987663269,-2.2288944721221924
1759424285457776600,5.255776611328125,-0.2174680233001709,-0.4796055853366852,-1.8825340270996094
1759424285467776800,5.26577685546875,-0.1722639948129654,-0.24930937588214874,-1.6363552808761597
1759424285477776600,5.275776611328125,-0.06780604273080826,-0.35071301460266113,-1.5031867027282715
1759424285487776800,5.28577685546875,0.05925392732024193,-0.5217552781105042,-1.4457653760910034
1759424285497776600,5.295776611328125,0.21502456068992615,-0.7092909216880798,-1.4164438247680664
1759424285507776800,5.30577685546875,0.35124751925468445,-0.7557166814804077,-1.380402684211731
1759424285517776600,5.315776611328125,0.44226643443107605,-0.6488152742385864,-1.2973250150680542
1759424285527776800,5.32577685546875,0.5094616413116455,-0.5529094338417053,-1.1586586236953735
1759424285537776600,5.335776611328125,0.5448917746543884,-0.5248095989227295,-1.0028879642486572
1759424285547776800,5.34577685546875,0.49724429845809937,-0.538859486579895,-0.7634288668632507
1759424285557776600,5.355776611328125,0.4129449129104614,-0.4838816225528717,-0.6149885654449463
1759424285567776800,5.36577685546875,0.3188716471195221,-0.34582608938217163,-0.46105054020881653
1759424285577776600,5.375776611328125,0.21563543379306793,-0.1808924674987793,-0.2967278063297272
1759424285587776800,5.38577685546875,0.13255776464939117,-0.0190131813287735,-0.13607023656368256
1759424285597776600,5.395776611328125,0.06719517707824707,0.11354457587003708,0.019089538604021072
1759424285607776800,5.40577685546875,0.01466076634824276,0.22533291578292847,0.13759739696979523
1759424285617776600,5.415776611328125,-0.021380282938480377,0.31635183095932007,0.21334469318389893
1759424285627776800,5.42577685546875,-0.01771509274840355,0.38293614983558655,0.26710084080696106
1759424285637776600,5.435776611328125,-0.003054326167330146,0.37132972478866577,0.32879820466041565
1759424285647776800,5.44577685546875,0.00427605677396059,0.30657798051834106,0.4167627990245819
1759424285657776600,5.455776611328125,-0.07696902006864548,0.208839550614357,0.5975789427757263
1759424285667776800,5.46577685546875,-0.17959438264369965,0.23571762442588806,0.7344127297401428
1759424285677776600,5.475776611328125,-0.27061331272125244,0.3145192563533783,0.8254316449165344
1759424285687776800,5.48577685546875,-0.34513887763023376,0.4104250967502594,0.8431467413902283
1759424285697776600,5.495776611328125,-0.4129449129104614,0.6144540905952454,0.727082371711731
1759424285707776800,5.50577685546875,-0.4691445231437683,0.8160396218299866,0.574976921081543
1759424285717776600,5.515776611328125,-0.494189977645874,0.6871470212936401,0.7423539757728577
1759424285727776800,5.52577685546875,-0.513126790523529,0.27603474259376526,1.1846203804016113
1759424285737776600,5.535776611328125,-0.5571091175079346,-0.1503492146730423,1.507768154144287
1759424285747777500,5.545777587890625,-0.6126978397369385,-0.2853504419326782,1.7087428569793701
1759424285777776600,5.575776611328125,-0.3640756905078888,0.5753586888313293,2.5089762210845947
1759424285807776500,5.605776611328125,-0.3500257730484009,1.0506118535995483,2.4100160598754883
1759424285817776600,5.615776611328125,-0.28955012559890747,1.0438923835754395,2.4723243713378906
1759424285827776500,5.625776611328125,-0.2076941877603531,1.0744355916976929,2.568230152130127
1759424285837776600,5.635776611328125,-0.13866640627384186,0.9846383929252625,2.5138630867004395
1759424285847776500,5.645776611328125,-0.0806342139840126,0.734794557094574,2.303725481033325
1759424285857776600,5.655776611328125,-0.003054326167330146,0.4611268937587738,2.0477731227874756
1759424285867776500,5.665776611328125,0.11239920556545258,0.2986367344856262,1.846798300743103
1759424285877776600,5.675776611328125,0.24068090319633484,0.22044599056243896,1.7282904386520386
1759424285887776500,5.685776611328125,0.37751471996307373,0.06039930135011673,1.6488779783248901
1759424285897776600,5.695776611328125,0.42699480056762695,-0.04222606122493744,1.612226128578186
1759424285907776500,5.705776611328125,0.46303585171699524,-0.08865182101726532,1.5676329135894775
1759424285917776600,5.715776611328125,0.47769662737846375,-0.12041681259870529,1.5322027206420898
1759424285927776500,5.725776611328125,0.4893030524253845,-0.10086912661790848,1.5199854373931885
1759424285937776600,5.735776611328125,0.48747047781944275,-0.0012980886967852712,1.5456417798995972
1759424285947776500,5.745776611328125,0.4642575979232788,0.12148582190275192,1.609171748161316
1759424285957776600,5.755776611328125,0.4453207552433014,0.19601137936115265,1.6885842084884644
1759424285967776500,5.765776611328125,0.44776421785354614,0.22472205758094788,1.7343991994857788
1759424285977776600,5.775776611328125,0.4758640229701996,0.2131156176328659,1.735010027885437
1759424285987776500,5.785776611328125,0.49846604466438293,0.1269836127758026,1.6995798349380493
1759424285997776600,5.795776611328125,0.48747047781944275,-0.08743008971214294,1.641547679901123
1759424286007776500,5.805776611328125,0.45265114307403564,-0.48021644353866577,1.487609624862671
1759424286017776600,5.815776611328125,0.4147774875164032,-0.6866888999938965,1.353830099105835
1759424286027776500,5.825776611328125,0.3341432809829712,-0.9524152874946594,1.2176071405410767
1759424286037776600,5.835776611328125,0.19975294172763824,-1.2572370767593384,1.1143709421157837
1759424286047775700,5.845775634765625,0.039095375686883926,-1.4771485328674316,1.0459539890289307
1759424286057776600,5.855776611328125,-0.1160643994808197,-1.5797739028930664,1.0367910861968994
1759424286067776800,5.86577685546875,-0.2535090744495392,-1.5913803577423096,1.0673342943191528
1759424286077776600,5.875776611328125,-0.38179078698158264,-1.5461763143539429,1.1381946802139282
1759424286087776800,5.88577685546875,-0.45631635189056396,-1.3543646335601807,1.2060006856918335
1759424286097776600,5.895776611328125,-0.48869219422340393,-1.0153343677520752,1.2359330654144287
1759424286107776800,5.90577685546875,-0.49724429845809937,-0.6103307604789734,1.2194397449493408
1759424286117776600,5.915776611328125,-0.5021312236785889,-0.2908482253551483,1.2096658945083618
1759424286127776800,5.92577685546875,-0.455705463886261,-0.20899227261543274,1.13758385181427
1759424286137776600,5.935776611328125,-0.39767327904701233,-0.1509600728750229,1.0074695348739624
1759424286147776800,5.94577685546875,-0.32498031854629517,-0.064217209815979,0.8400924205780029
1759424286157776600,5.955776611328125,-0.2571742534637451,0.050014592707157135,0.7038694620132446
1759424286167776800,5.96577685546875,-0.23029619455337524,0.12026409804821014,0.6635523438453674
1759424286177776600,5.975776611328125,-0.21930062770843506,0.16730071604251862,0.6855435371398926
1759424286187776800,5.98577685546875,-0.21441370248794556,0.19112446904182434,0.7130324840545654
1759424286197776600,5.995776611328125,-0.21013765037059784,0.17646369338035583,0.7252497673034668
1759424286207776800,6.00577685546875,-0.1771509200334549,0.14408783614635468,0.7050912380218506
1759424286217776600,6.015776611328125,-0.13316862285137177,0.1074359267950058,0.64217209815979
1759424286227776800,6.02577685546875,-0.07635815441608429,0.09644035249948502,0.5682573914527893
1759424286237776600,6.035776611328125,-0.02626720629632473,-0.055054228752851486,0.42531493306159973
1759424286247776800,6.04577685546875,-0.009773843921720982,-0.18883371353149414,0.35384368896484375
1759424286257776600,6.055776611328125,-0.0006108652451075613,-0.3177262842655182,0.31902438402175903
1759424286267776800,6.06577685546875,0.012217304669320583,-0.4240168333053589,0.3043636083602905
1759424286277776600,6.075776611328125,0.025656340643763542,-0.49548807740211487,0.2860376536846161
1759424286287776800,6.08577685546875,0.04581489413976669,-0.5632941126823425,0.251218318939209
1759424286297776600,6.095776611328125,0.05619960278272629,-0.632932722568512,0.21090123057365417
1759424286307776800,6.10577685546875,0.0507018156349659,-0.7056257128715515,0.1742493063211441
1759424286317776600,6.115776611328125,0.015882495790719986,-0.7752643823623657,0.15103642642498016
1759424286327776800,6.12577685546875,-0.05375614017248154,-0.7874816656112671,0.1699732542037964
1759424286337776600,6.135776611328125,-0.12889257073402405,-0.6860780119895935,0.23289237916469574
1759424286347776800,6.14577685546875,-0.1820378452539444,-0.4172973334789276,0.3501785099506378
1759424286357776600,6.155776611328125,-0.19425514340400696,-0.2212095707654953,0.40515637397766113
1759424286367776800,6.16577685546875,-0.20891591906547546,-0.09659306704998016,0.4375322461128235
1759424286377776600,6.175776611328125,-0.22663100063800812,-0.064217209815979,0.4460843503475189
1759424286387776800,6.18577685546875,-0.22602014243602753,-0.09720393270254135,0.4363104999065399
1759424286397776600,6.195776611328125,-0.1716531366109848,-0.15645785629749298,0.4057672321796417
1759424286407776800,6.20577685546875,-0.042760565876960754,-0.246865913271904,0.3006984293460846
1759424286417776600,6.215776611328125,0.1472185254096985,-0.3336087763309479,0.07467827945947647
1759424286427776800,6.22577685546875,0.3237585723400116,-0.3879757821559906,-0.2857322096824646
1759424286437776600,6.235776611328125,0.42149701714515686,-0.35559993982315063,-0.6846272349357605
1759424286447775700,6.245775634765625,0.4129449129104614,-0.21754439175128937,-0.9668469429016113
1759424286457775900,6.25577587890625,0.3787364661693573,0.005421428941190243,-1.0535898208618164
1759424286467775700,6.265775634765625,0.3323107063770294,0.2803107798099518,-0.9650143980979919
1759424286477776000,6.27577587890625,0.33292156457901,0.3200170397758484,-0.9631817936897278
1759424286487775700,6.285775634765625,0.375071257352829,0.22166772186756134,-1.077413558959961
1759424286497775900,6.29577587890625,0.485027015209198,0.0017562375869601965,-1.3211487531661987
1759424286507775700,6.305775634765625,0.6707300543785095,-0.296956866979599,-1.7004960775375366
1759424286517776000,6.31577587890625,0.9248499870300293,-0.5351943373680115,-2.1616992950439453
1759424286527775700,6.325775634765625,1.2131783962249756,-0.5150357484817505,-2.601522445678711
1759424286537775900,6.33577587890625,1.4752395153045654,-0.10636691004037857,-2.914896249771118
1759424286547775700,6.345775634765625,1.6548339128494263,0.6260605454444885,-3.0407345294952393
1759424286557776000,6.35577587890625,1.6462818384170532,1.514258623123169,-3.0028607845306396
1759424286567775700,6.365775634765625,1.4453071355819702,2.3755786418914795,-2.833651065826416
1759424286577775900,6.37577587890625,0.9743300676345825,3.711540937423706,-2.4720189571380615
1759424286587775700,6.385775634765625,0.7379252314567566,4.2405500411987305,-2.2398900985717773
1759424286597776000,6.39577587890625,0.5155702829360962,4.245437145233154,-2.032196044921875
1759424286607775700,6.405775634765625,0.33536502718925476,3.9473347663879395,-1.8916969299316406
1759424286617775900,6.41577587890625,0.1514945775270462,3.365180253982544,-1.8012888431549072
1759424286627775700,6.425775634765625,0.012217304669320583,2.5734989643096924,-1.7383698225021362
1759424286637776000,6.43577587890625,-0.14294247329235077,1.8765016794204712,-1.6412421464920044
1759424286647775700,6.445775634765625,-0.2431243658065796,1.486769676208496,-1.5563318729400635
1759424286657775900,6.45577587890625,-0.3029891550540924,1.1868348121643066,-1.5850425958633423
1759424286667775700,6.465775634765625,-0.3579670190811157,0.8588001728057861,-1.6833919286727905
1759424286677776000,6.47577587890625,-0.3604104816913605,0.47884199023246765,-1.7408132553100586
1759424286687775700,6.485775634765625,-0.3078760802745819,-0.2462550550699234,-1.7866281270980835
1759424286697775900,6.49577587890625,-0.20952677726745605,-0.8326857089996338,-1.969276785850525
1759424286707775700,6.505775634765625,-0.048258353024721146,-1.1967613697052002,-2.3657283782958984
1759424286717776000,6.51577587890625,0.10690141469240189,-1.1723268032073975,-2.872135639190674
1759424286727775700,6.525775634765625,0.16371189057826996,-0.9078221321105957,-3.3315062522888184
1759424286737775900,6.53577587890625,0.1215621829032898,-0.6567565202713013,-3.5715763568878174
1759424286747776800,6.54577685546875,0.07330382615327835,-0.6463717818260193,-3.612504243850708
1759424286757776600,6.555776611328125,0.006719517521560192,-1.0067822933197021,-3.3144021034240723
1759424286767776800,6.56577685546875,0.00733038317412138,-1.3335951566696167,-2.638174295425415
1759424286777776600,6.575776611328125,0.08368854224681854,-0.748997151851654,-2.032806873321533
1759424286787776800,6.58577685546875,0.09712757170200348,0.056123245507478714,-1.572825312614441
1759424286797776600,6.595776611328125,0.12828169763088226,0.2583196461200714,-1.2820534706115723
1759424286807776800,6.60577685546875,0.2877175211906433,-0.06543894112110138,-1.2722796201705933
1759424286817776600,6.615776611328125,0.3793473243713379,-0.3012329339981079,-1.3712397813796997
1759424286827776800,6.62577685546875,0.46181413531303406,-0.4899902939796448,-1.4408783912658691
1759424286837776600,6.635776611328125,0.5351179838180542,-0.6091089844703674,-1.4469870328903198
1759424286847776800,6.64577685546875,0.5638286471366882,-0.6591999530792236,-1.3468050956726074
1759424286857776600,6.655776611328125,0.5613851547241211,-0.5920047760009766,-1.1757628917694092
1759424286867776800,6.66577685546875,0.5100724697113037,-0.5241987109184265,-0.9570731520652771
1759424286877776600,6.675776611328125,0.4086688458919525,-0.5315291285514832,-0.7133378982543945
1759424286887776800,6.68577685546875,0.2938261926174164,-0.46127963066101074,-0.4818199574947357
1759424286897776600,6.695776611328125,0.19120082259178162,-0.3336087763309479,-0.244804248213768
1759424286907776800,6.70577685546875,0.09712757170200348,-0.16623170673847198,0.0007635815418325365
1759424286917776600,6.715776611328125,-0.010995574295520782,0.06650795042514801,0.3556762933731079
1759424286927776800,6.72577685546875,-0.08857546001672745,0.2332741618156433,0.5835290551185608
1759424286937776600,6.735776611328125,-0.17470745742321014,0.3853796124458313,0.8199338912963867
1759424286947776800,6.74577685546875,-0.28038713335990906,0.5069417953491211,1.0062477588653564
1759424286957776600,6.755776611328125,-0.3891211748123169,0.6675993800163269,1.0648908615112305
1759424286967776800,6.76577685546875,-0.4917465150356293,0.8923977613449097,1.0575604438781738
1759424286977776600,6.775776611328125,-0.5595525503158569,1.1324677467346191,1.1418598890304565
1759424286987776500,6.785776611328125,-0.5595525503158569,1.1459068059921265,1.3813190460205078
1759424286997776600,6.795776611328125,-0.50335294008255,0.8282569050788879,1.579850196838379
1759424287007776500,6.805776611328125,-0.47342056035995483,0.48800498247146606,1.7148514986038208
1759424287017776600,6.815776611328125,-0.4789183437824249,0.3352886736392975,1.954310655593872
1759424287027776800,6.82577685546875,-0.484416127204895,0.2332741618156433,2.219426155090332
1759424287037776600,6.835776611328125,-0.375071257352829,0.6059019565582275,2.3959662914276123
1759424287047776800,6.84577685546875,-0.2632829248905182,0.7219663858413696,2.702009677886963
1759424287057776600,6.855776611328125,-0.2590068578720093,0.8007679581642151,2.808300256729126
1759424287067776800,6.86577685546875,-0.37751471996307373,0.8221482634544373,2.5786149501800537
1759424287077776600,6.875776611328125,-0.484416127204895,0.7714464664459229,2.2175936698913574
1759424287087776500,6.885776611328125,-0.5277875661849976,0.6938665509223938,1.9518672227859497
1759424287097776600,6.895776611328125,-0.5070181488990784,0.6333909034729004,1.8156442642211914
1759424287107776500,6.905776611328125,-0.42088615894317627,0.5869651436805725,1.7557793855667114
1759424287117776600,6.915776611328125,-0.29993483424186707,0.5087743997573853,1.7478381395339966
1759424287127776500,6.925776611328125,-0.16371189057826996,0.42264237999916077,1.763109803199768
1759424287137776600,6.935776611328125,-0.00733038317412138,0.36155587434768677,1.8009834289550781
1759424287147776500,6.945776611328125,0.27611109614372253,0.4318053722381592,1.868789553642273
1759424287157776600,6.955776611328125,0.4795292317867279,0.5301546454429626,1.93293035030365
1759424287167776500,6.965776611328125,0.637132465839386,0.5674174427986145,1.9946277141571045
1759424287177776600,6.975776611328125,0.7086036801338196,0.48495063185691833,2.029447078704834
1759424287187776500,6.985776611328125,0.6921103000640869,0.359112411737442,2.001347303390503
1759424287197816000,6.995816162109375,0.6591235995292664,0.28703030943870544,1.9072740077972412
1759424287207816200,7.005816162109375,0.6517932415008545,0.24243713915348053,1.799150824546814
1759424287217816000,7.015816162109375,0.665232241153717,0.2540435791015625,1.724014401435852
1759424287227816200,7.025816162109375,0.6792821288108826,0.3004693388938904,1.7087428569793701
1759424287237816000,7.035816162109375,0.6798930168151855,0.2906954884529114,1.724014401435852
1759424287247816200,7.045816162109375,0.646906316280365,0.1929570585489273,1.7411186695098877
1759424287257816000,7.055816162109375,0.5937610268592834,-0.002519819187000394,1.7405078411102295
1759424287267816200,7.065816162109375,0.46670106053352356,-0.33910655975341797,1.6757560968399048
1759424287277816000,7.075816162109375,0.3952298164367676,-0.49609893560409546,1.564578652381897
1759424287287816200,7.085816162109375,0.3286454975605011,-0.5932264924049377,1.4356859922409058
1759424287297816000,7.095816162109375,0.2565633952617645,-0.6970735788345337,1.3037391901016235
1759424287307816200,7.105816162109375,0.16065755486488342,-0.8449029922485352,1.2035572528839111
1759424287317816000,7.115816162109375,0.03176499158143997,-0.9682977795600891,1.1522445678710938
1759424287327816200,7.125816162109375,-0.08918632566928864,-1.090470790863037,1.1436924934387207
1759424287337816000,7.135816162109375,-0.18814650177955627,-1.232802391052246,1.1717922687530518
1759424287347816200,7.145816162109375,-0.2840523421764374,-1.353753685951233,1.2133311033248901
1759424287357816000,7.155816162109375,-0.3378084897994995,-1.3720797300338745,1.2414308786392212
1759424287367816200,7.165816162109375,-0.3500257730484009,-1.263345718383789,1.2231049537658691
1759424287377816000,7.175816162109375,-0.35735616087913513,-0.9707412123680115,1.155909776687622
1759424287387816200,7.185816162109375,-0.3683517575263977,-0.7923685908317566,1.1339186429977417
1759424287397816300,7.19581640625,-0.3536909818649292,-0.6268240809440613,1.087492823600769
1759424287407816200,7.205816162109375,-0.32498031854629517,-0.49732068181037903,0.9958630800247192
1759424287417816300,7.21581640625,-0.31642818450927734,-0.40996694564819336,0.8999572396278381
1759424287427816200,7.225816162109375,-0.2767219543457031,-0.3213914632797241,0.8095491528511047
1759424287437816300,7.23581640625,-0.24190263450145721,-0.23709207773208618,0.735634446144104
1759424287447816200,7.245816162109375,-0.242513507604599,-0.1698969006538391,0.6733261942863464
1759424287457816300,7.25581640625,-0.24190263450145721,-0.08071056753396988,0.6140722632408142
1759424287467816200,7.265816162109375,-0.22479841113090515,0.009697485715150833,0.5639813542366028
1759424287477816300,7.27581640625,-0.20463985204696655,0.06650795042514801,0.5395467281341553
1759424287487816200,7.285816162109375,-0.18631389737129211,0.10377073287963867,0.5444336533546448
1759424287497816000,7.295816162109375,-0.08857546001672745,0.15874861180782318,0.5670356750488281
1759424287507816000,7.30581591796875,-0.04886921867728233,0.1074359267950058,0.5273294448852539
1759424287517816000,7.315816162109375,-0.030543262138962746,-0.00985020212829113,0.4717406928539276
1759424287527816000,7.32581591796875,-0.018936822190880775,-0.15401439368724823,0.4173736870288849
1759424287537816000,7.335816162109375,-0.00733038317412138,-0.33055445551872253,0.380721777677536
1759424287547816000,7.34581591796875,0.009773843921720982,-0.5180900692939758,0.35445454716682434
1759424287557816000,7.355816162109375,0.04153883829712868,-0.6958518624305725,0.3410155177116394
1759424287567816000,7.36581591796875,0.07513642311096191,-0.8748353719711304,0.3361285924911499
1759424287577816000,7.375816162109375,0.08002334833145142,-1.014723539352417,0.3367394804954529
1759424287587816000,7.38581591796875,0.02932153269648552,-1.0837513208389282,0.36789360642433167
1759424287597816000,7.395816162109375,-0.04459316283464432,-1.0849729776382446,0.43020185828208923
1759424287607816000,7.40581591796875,-0.11056660860776901,-0.9835693836212158,0.5566509366035461
1759424287617816000,7.415816162109375,-0.12034045159816742,-0.8406269550323486,0.5627595782279968
1759424287627816000,7.42581591796875,-0.10201449692249298,-0.6671411991119385,0.44364088773727417
1759424287637816000,7.435816162109375,-0.01038470957428217,-0.4545601010322571,0.19013181328773499
1759424287647816000,7.44581591796875,0.08246681094169617,-0.1656208336353302,-0.15012013912200928
1759424287657816000,7.455816162109375,0.08857546001672745,0.043905939906835556,-0.49953505396842957
1759424287667816000,7.46581591796875,0.09162978827953339,0.21494820713996887,-0.7548767328262329
1759424287677816000,7.475816162109375,0.07024950534105301,0.3743840456008911,-0.8422304391860962
1759424287687816000,7.48581591796875,0.004886921960860491,0.5093852281570435,-0.7664831876754761
1759424287697816000,7.495816162109375,-0.06536258012056351,0.5399284958839417,-0.6137668490409851
1759424287707816000,7.50581591796875,-0.09285151958465576,0.43913576006889343,-0.456163614988327
1759424287717816000,7.515816162109375,-0.0354301854968071,0.06528622657060623,-0.4054618179798126
1759424287727816000,7.52581591796875,0.29138273000717163,-0.8846092224121094,-0.9619600176811218
1759424287737816000,7.535816162109375,0.588263213634491,-1.3225996494293213,-1.6131423711776733
1759424287747816000,7.54581591796875,0.9486737251281738,-1.4038447141647339,-2.2117903232574463
1759424287757816000,7.555816162109375,1.3237450122833252,-1.2859476804733276,-2.682156562805176
1759424287767816000,7.56581591796875,1.6658295392990112,-0.872391939163208,-2.9662089347839355
1759424287777816000,7.575816162109375,1.8820757865905762,0.029856039211153984,-3.0022499561309814
1759424287787816000,7.58581591796875,1.872912883758545,1.229595422744751,-2.8574748039245605
1759424287797816000,7.595816162109375,1.5937473773956299,2.5313491821289062,-2.6088528633117676
1759424287807816000,7.60581591796875,1.1447614431381226,3.7292559146881104,-2.2771530151367188
1759424287817816000,7.615816162109375,0.7507534027099609,4.522769927978516,-2.02120041847229
1759424287827816000,7.62581591796875,0.5088507533073425,4.702364444732666,-1.869094967842102
1759424287837816000,7.635816162109375,0.2834414839744568,3.9583303928375244,-1.8128952980041504
1759424287847816000,7.64581591796875,-0.00855211354792118,3.004769802093506,-1.7316502332687378
1759424287857816000,7.655816162109375,-0.14355333149433136,2.0438787937164307,-1.6614007949829102
1759424287867816000,7.66581591796875,-0.21868975460529327,1.1880565881729126,-1.6131423711776733
1759424287877816000,7.675816162109375,-0.22540926933288574,0.6248387694358826,-1.6131423711776733
1759424287887816000,7.68581591796875,-0.1973094791173935,0.3200170397758484,-1.688889741897583
1759424287897816000,7.695816162109375,-0.13500121235847473,0.16913332045078278,-1.8141170740127563
1759424287907816000,7.70581591796875,-0.06536258012056351,0.23021984100341797,-1.9204076528549194
1759424287917816000,7.715816162109375,-0.031154127791523933,0.2992476224899292,-2.009593963623047
1759424287927816000,7.72581591796875,-0.06475171446800232,0.09033169597387314,-2.0639610290527344
1759424287937816000,7.735816162109375,-0.08185594528913498,-0.3079524338245392,-2.0975584983825684
1759424287947816000,7.74581591796875,-0.0861319974064827,-0.7184538841247559,-2.1537580490112305
1759424287957816000,7.755816162109375,-0.0757472887635231,-0.8155814409255981,-2.395049810409546
1759424287967816000,7.76581591796875,-0.10384709388017654,-0.5944482684135437,-2.592970132827759
1759424287977816000,7.775816162109375,-0.15454891324043274,-0.368428111076355,-2.7456865310668945
1759424287987816000,7.78581591796875,-0.192422553896904,-0.2364812046289444,-2.7786731719970703
1759424287997816000,7.795816162109375,-0.21319197118282318,-0.28962647914886475,-2.677269697189331
1759424288007816000,7.80581591796875,-0.21563543379306793,-0.49609893560409546,-2.434145212173462
1759424288017816000,7.815816162109375,-0.1466076523065567,-0.530307412147522,-2.051743745803833
1759424288027816000,7.82581591796875,-0.021991148591041565,-0.3079524338245392,-1.6937766075134277
1759424288037816000,7.835816162109375,0.10567969083786011,-0.144851416349411,-1.5007431507110596
1759424288047816000,7.84581591796875,0.20891591906547546,-0.17234036326408386,-1.419498085975647
1759424288057816000,7.855816162109375,0.29016098380088806,-0.2212095707654953,-1.422552466392517
1759424288067816000,7.86581591796875,0.4031710624694824,-0.4539492428302765,-1.4262176752090454
1759424288077816000,7.875816162109375,0.4599815309047699,-0.671417236328125,-1.3498594760894775
1759424288087816000,7.88581591796875,0.4758640229701996,-0.7557166814804077,-1.2142473459243774
1759424288097816000,7.895816162109375,0.44593164324760437,-0.7508297562599182,-1.0389291048049927
1759424288107816000,7.90581591796875,0.3744603991508484,-0.6934084296226501,-0.8788823485374451
1759424288117816000,7.915816162109375,0.2840523421764374,-0.5468007326126099,-0.7438811659812927
1759424288127816000,7.92581591796875,0.19914206862449646,-0.42035165429115295,-0.6009386777877808
1759424288137816000,7.935816162109375,0.12828169763088226,-0.42523857951164246,-0.4616613984107971
1759424288147816000,7.94581591796875,0.059864792972803116,-0.46616652607917786,-0.3449861407279968
1759424288157816000,7.955816162109375,-0.012828170321881771,-0.4594470262527466,-0.21853704750537872
1759424288167816000,7.96581591796875,-0.0910189226269722,-0.3623194396495819,-0.04382958263158798
1759424288177816000,7.975816162109375,-0.2217440903186798,0.0188604649156332,0.31902438402175903
1759424288187816000,7.98581591796875,-0.31093040108680725,0.35239288210868835,0.5658139586448669
1759424288197816000,7.995816162109375,-0.39095374941825867,0.6614906787872314,0.7704538106918335
1759424288207816000,8.00581591796875,-0.46853363513946533,0.875904381275177,0.8920159935951233
1759424288217816000,8.015816162109376,-0.5216789245605469,0.979751467704773,0.9311113357543945
1759424288227816000,8.02581591796875,-0.5369505286216736,0.9785297513008118,0.887739896774292
1759424288237816000,8.035816162109375,-0.5180137157440186,0.9082802534103394,0.7484626173973083
1759424288247816000,8.04581591796875,-0.4660901725292206,0.8868999481201172,0.6495024561882019
1759424288257816000,8.055816162109375,-0.41233405470848083,0.856967568397522,0.8431467413902283
1759424288267816000,8.06581591796875,-0.3732386529445648,0.5881868600845337,1.2078332901000977
1759424288277816000,8.075816162109374,-0.42149701714515686,0.14164437353610992,1.457066297531128
1759424288287816000,8.08581591796875,-0.5601634383201599,0.13614659011363983,1.4521794319152832
1759424288297816000,8.095816162109376,-0.6200281977653503,0.2992476224899292,1.7185167074203491
1759424288307816000,8.10581591796875,-0.6157521605491638,0.24243713915348053,1.9549214839935303
1759424288317816000,8.115816162109375,-0.6450737118721008,0.22777637839317322,1.954310655593872
1759424288327816000,8.12581591796875,-0.6206390857696533,0.2839759886264801,1.857793927192688
1759424288337816000,8.135816162109375,-0.5375614166259766,0.41897720098495483,1.83824622631073
1759424288347816000,8.14581591796875,-0.423329621553421,0.601625919342041,1.9188804626464844
1759424288357816000,8.155816162109375,-0.3188716471195221,0.7525096535682678,2.056936025619507
1759424288367816000,8.16581591796875,-0.2382374405860901,0.8563567399978638,2.1369593143463135
1759424288377816000,8.175816162109374,-0.1820378452539444,0.886289119720459,2.1412353515625
1759424288387816000,8.18581591796875,-0.1160643994808197,0.8899543285369873,2.133294105529785
1759424288397816000,8.195816162109375,-0.04153883829712868,0.8691849112510681,2.093587875366211
1759424288407816000,8.20581591796875,0.10018189996480942,0.847804605960846,1.991573452949524
1759424288417816000,8.215816162109375,0.24068090319633484,0.866741418838501,1.9701931476593018
1759424288427816000,8.22581591796875,0.40683624148368835,0.8923977613449097,1.9976820945739746
1759424288437816000,8.235816162109375,0.5937610268592834,0.9388235211372375,2.0557143688201904
1759424288447816000,8.24581591796875,0.7629706859588623,0.9577603340148926,2.132683277130127
1759424288457816000,8.255816162109374,0.8509352803230286,0.8197047710418701,2.14428973197937
1759424288467816000,8.26581591796875,0.8613200187683105,0.591852068901062,2.091144561767578
1759424288477816000,8.275816162109376,0.8698720932006836,0.4611268937587738,1.9695823192596436
1759424288487816000,8.28581591796875,0.8936958312988281,0.45929431915283203,1.867567777633667
1759424288497816000,8.295816162109375,0.9089674949645996,0.49900054931640625,1.8260289430618286
1759424288507816000,8.30581591796875,0.9071348905563354,0.5069417953491211,1.8388570547103882
1759424288517816000,8.315816162109375,0.8729264140129089,0.449520468711853,1.8700112104415894
1759424288527816000,8.32581591796875,0.8002334833145142,0.2546544373035431,1.8113682270050049
1759424288537816000,8.335816162109374,0.6982190012931824,0.08666650950908661,1.6672040224075317
1759424288547816000,8.34581591796875,0.5742133259773254,-0.14179709553718567,1.4442381858825684
1759424288557816000,8.355816162109376,0.4593706727027893,-0.38919752836227417,1.2188289165496826
1759424288567816000,8.36581591796875,0.3243694305419922,-0.5810092091560364,1.0648908615112305
1759424288577816000,8.375816162109375,0.2021963894367218,-0.7532731890678406,0.9732610583305359
1759424288587816000,8.38581591796875,0.10567969083786011,-0.910876452922821,0.9451612234115601
1759424288597816000,8.395816162109375,0.018936822190880775,-1.0519863367080688,0.955545961856842
1759424288607816000,8.40581591796875,-0.08491026610136032,-1.1802680492401123,0.9647089242935181
1759424288617816000,8.415816162109374,-0.2064724564552307,-1.2767847776412964,0.9726501703262329
1759424288627816000,8.42581591796875,-0.33536502718925476,-1.3433690071105957,1.0080803632736206
1759424288637816000,8.435816162109376,-0.4648684561252594,-1.2743412256240845,1.067945122718811
1759424288647816000,8.44581591796875,-0.5021312236785889,-1.0861947536468506,1.1027644872665405
1759424288657816000,8.455816162109375,-0.5100724697113037,-0.8485682010650635,1.1406381130218506
1759424288667816000,8.46581591796875,-0.49235737323760986,-0.6304892897605896,1.1699596643447876
1759424288677816000,8.475816162109375,-0.45204028487205505,-0.4698317348957062,1.1681270599365234
1759424288687816000,8.48581591796875,-0.42088615894317627,-0.3830888569355011,1.1381946802139282
1759424288697816000,8.495816162109374,-0.3842342495918274,-0.29329168796539307,1.0569496154785156
1759424288707816000,8.50581591796875,-0.32559117674827576,-0.2114357352256775,0.9237809777259827
1759424288717816000,8.515816162109376,-0.2687807083129883,-0.1711186319589615,0.784503698348999
1759424288727816000,8.52581591796875,-0.25106561183929443,-0.15890131890773773,0.7111998796463013
1759424288737816000,8.535816162109375,-0.23273965716362,-0.1350775808095932,0.6837109327316284
1759424288747816000,8.54581591796875,-0.18570303916931152,-0.013515393249690533,0.6916521787643433
1759424288757816000,8.555816162109375,-0.08674286305904388,0.2491566687822342,0.7509061098098755
1759424288767816000,8.56581591796875,-0.04886921867728233,0.320627897977829,0.7276932001113892
1759424288777816000,8.575816162109374,-0.03848451003432274,0.27847820520401,0.6281222105026245
1759424288787816000,8.58581591796875,-0.0354301854968071,0.16546812653541565,0.4918992519378662
1759424288797816000,8.595816162109376,-0.03848451003432274,0.05429064854979515,0.3959933817386627
1759424288807816000,8.60581591796875,-0.04153883829712868,-0.0746019184589386,0.35873061418533325
1759424288817816000,8.615816162109375,0.004886921960860491,-0.26335927844047546,0.342237263917923
1759424288827816000,8.62581591796875,0.036651913076639175,-0.4692208766937256,0.32268956303596497
1759424288837816000,8.635816162109375,0.045204028487205505,-0.6598108410835266,0.3208569586277008
1759424288847816000,8.64581591796875,0.04948008432984352,-0.7942011952400208,0.32818734645843506
1759424288857816000,8.655816162109375,0.04398229718208313,-0.843070387840271,0.361174076795578
1759424288867816000,8.66581591796875,-0.028099801391363144,-0.6793584823608398,0.48090365529060364
1759424288877816000,8.675816162109374,-0.07513642311096191,-0.429514616727829,0.5816964507102966
1759424288887816000,8.68581591796875,-0.11423180252313614,-0.18822285532951355,0.6525567770004272
1759424288897816000,8.695816162109375,-0.15454891324043274,0.01947133056819439,0.6898195743560791
1759424288907816000,8.70581591796875,-0.18570303916931152,0.19478964805603027,0.6892086863517761
1759424288917816000,8.715816162109375,-0.18448130786418915,0.3132975101470947,0.6488916277885437
1759424288927816000,8.72581591796875,-0.15454891324043274,0.36827537417411804,0.5694791078567505
1759424288937816000,8.735816162109375,-0.09712757170200348,0.3804926872253418,0.45036038756370544
1759424288947816000,8.74581591796875,-0.02076941914856434,0.2851977050304413,0.2750420868396759
1759424288957816000,8.755816162109374,0.05314527451992035,0.11659890413284302,0.06612616032361984
1759424288967816000,8.76581591796875,0.08552113175392151,-0.044058654457330704,-0.13484850525856018
1759424288977816000,8.775816162109376,0.029932396486401558,-0.17844900488853455,-0.285121351480484
1759424288987816000,8.78581591796875,-0.033597588539123535,-0.09720393270254135,-0.3248275816440582
1759424288997816000,8.795816162109375,-0.022602014243602753,0.1324813961982727,-0.23136521875858307
1759424289007816000,8.80581591796875,-0.00733038317412138,0.33223432302474976,-0.18066339194774628
1759424289017816000,8.815816162109375,0.021991148591041565,0.4415792226791382,-0.2545780837535858
1759424289027816000,8.82581591796875,0.08002334833145142,0.4702898859977722,-0.3871358633041382
1759424289037816000,8.835816162109374,0.15760323405265808,0.4061490297317505,-0.5190827250480652
1759424289047816000,8.84581591796875,0.24007004499435425,0.23632849752902985,-0.6436992287635803
1759424289057816000,8.855816162109376,0.33108896017074585,-0.055054228752851486,-0.7982481718063354
1759424289067816000,8.86581591796875,0.4404338300228119,-0.3782019317150116,-0.9900598526000977
1759424289077816000,8.875816162109375,0.5528330206871033,-0.6518695950508118,-1.2221885919570923
1759424289087816000,8.88581591796875,0.6536257863044739,-0.8216901421546936,-1.4750868082046509
1759424289097816000,8.895816162109375,0.7666358947753906,-0.748997151851654,-1.8379408121109009
1759424289107816000,8.90581591796875,0.8356636762619019,-0.4447862505912781,-2.0199787616729736
1759424289117816000,8.915816162109374,0.9065240025520325,0.03107776865363121,-2.182468891143799
1759424289127816000,8.92581591796875,0.9718865752220154,0.6242279410362244,-2.326022148132324
1759424289137816000,8.935816162109376,1.0134254693984985,1.3377184867858887,-2.4084889888763428
1759424289147816000,8.94581591796875,1.0512990951538086,2.0805306434631348,-2.3602306842803955
1759424289157816000,8.955816162109375,1.0574077367782593,2.720717430114746,-2.165975332260132
1759424289167816000,8.96581591796875,0.9731083512306213,3.06646728515625,-1.898416519165039
1759424289177816000,8.975816162109375,0.817337691783905,3.094567060470581,-1.6058119535446167
1759424289187816000,8.98581591796875,0.6414085030555725,3.008435010910034,-1.404226541519165
1759424289197816000,8.995816162109374,0.5351179838180542,2.8832075595855713,-1.332755208015442
1759424289207816000,9.00581591796875,0.5174028873443604,2.611372470855713,-1.3406964540481567
1759424289217816000,9.015816162109376,0.50335294008255,2.0829741954803467,-1.3406964540481567
1759424289227816000,9.02581591796875,0.4508185386657715,1.8380171060562134,-1.258840560913086
1759424289237816000,9.035816162109375,0.41661009192466736,1.6657531261444092,-1.1470521688461304
1759424289247816000,9.04581591796875,0.40072759985923767,1.455615520477295,-1.0358747243881226
1759424289257816000,9.055816162109375,0.4001167416572571,1.105589747428894,-0.9344711303710938
1759424289267816000,9.06581591796875,0.4092797040939331,0.6486625075340271,-0.8654433488845825
1759424289277816000,9.075816162109374,0.4202753007411957,0.420809805393219,-0.8660541772842407
1759424289287816000,9.08581591796875,0.44837507605552673,0.5894085764884949,-0.9295842051506042
1759424289297816000,9.095816162109376,0.4709770977497101,0.9919688105583191,-1.0010554790496826
1759424289307816000,9.10581591796875,0.4911356568336487,1.4030810594558716,-1.0212140083312988
1759424289317816000,9.115816162109375,0.48258355259895325,1.5026521682739258,-0.9191994667053223
1759424289327816000,9.12581591796875,0.4294382631778717,1.2326496839523315,-0.5813909769058228
1759424289337816000,9.135816162109375,0.39584067463874817,1.102535367012024,-0.3413209617137909
1759424289347816000,9.14581591796875,0.36590829491615295,1.1538480520248413,-0.18616119027137756
1759424289357816000,9.155816162109375,0.31093040108680725,1.17950439453125,-0.10430523753166199
1759424289367816000,9.16581591796875,0.25534167885780334,1.0897072553634644,-0.11224649101495743
1759424289377816000,9.175816162109374,0.23273965716362,1.0035752058029175,-0.18799377977848053
1759424289387816000,9.18581591796875,0.25106561183929443,0.9412670135498047,-0.2942843437194824
1759424289397816000,9.195816162109375,0.24495697021484375,0.7543421983718872,-0.3248275816440582
1759424289407816000,9.20581591796875,0.25106561183929443,0.5655848383903503,-0.3162754774093628
1759424289417816000,9.215816162109375,0.26633724570274353,0.43241623044013977,-0.30833423137664795
1759424289427816000,9.22581591796875,0.2993239760398865,0.3951534628868103,-0.3113885521888733
1759424289437816000,9.235816162109375,0.40194934606552124,0.2839759886264801,-0.2961169183254242
1759424289447816000,9.24581591796875,0.45814892649650574,0.21494820713996887,-0.2796235680580139
1759424289457816000,9.255816162109374,0.50335294008255,0.1984548419713974,-0.24236078560352325
1759424289467816000,9.26581591796875,0.5393940210342407,0.2638174295425415,-0.17150041460990906
1759424289477816000,9.275816162109376,0.5864306092262268,0.3798818290233612,-0.06398813426494598
1759424289487816000,9.28581591796875,0.6395758986473083,0.5576435923576355,0.08139779418706894
1759424289497816000,9.295816162109375,0.6939429044723511,0.7610617280006409,0.24083362519741058
1759424289507816000,9.30581591796875,0.7422012686729431,0.9357692003250122,0.4057672321796417
1759424289517816000,9.315816162109375,0.7806857824325562,1.0554988384246826,0.5584835410118103
1759424289527816000,9.32581591796875,0.8136724829673767,1.1129201650619507,0.6904304623603821
1759424289537816000,9.335816162109374,0.8515461683273315,1.1410199403762817,0.7979426980018616
1759424289547816000,9.34581591796875,0.8943067193031311,1.170952320098877,0.8901833891868591
1759424289557816000,9.355816162109376,0.9773843884468079,1.162400245666504,0.9873109459877014
1759424289567816000,9.36581591796875,1.0067058801651,1.1178070306777954,1.0569496154785156
1759424289577816000,9.375816162109375,1.0042624473571777,1.0683269500732422,1.1388055086135864
1759424289587816000,9.38581591796875,0.9621127843856812,1.007851243019104,1.222494125366211
1759424289597816000,9.395816162109375,0.8741481900215149,0.9522625803947449,1.306793451309204
1759424289607816000,9.40581591796875,0.7684684991836548,0.9577603340148926,1.3697125911712646
1759424289617816000,9.415816162109374,0.656069278717041,1.048168420791626,1.4069753885269165
1759424289627816000,9.42581591796875,0.5345070958137512,1.1685088872909546,1.3825408220291138
1759424289637816000,9.435816162109376,0.42638394236564636,1.2754102945327759,1.3043500185012817
1759424289647816000,9.44581591796875,0.32620203495025635,1.3309990167617798,1.1962268352508545
1759424289657816000,9.455816162109375,0.22602014243602753,1.3377184867858887,1.0618364810943604
1759424289667816000,9.46581591796875,0.10262536257505417,1.324279546737671,0.8119926452636719
1759424289677816000,9.475816162109375,0.06108652427792549,1.2949579954147339,0.6586654782295227
1759424289687816000,9.48581591796875,-0.00855211354792118,1.057942271232605,0.4980078935623169
1759424289697816000,9.495816162109374,-0.07208210229873657,0.934547483921051,0.36361753940582275
1759424289707816000,9.50581591796875,-0.13500121235847473,0.8343655467033386,0.2402227520942688
1759424289717816000,9.515816162109376,-0.2370157092809677,0.6804275512695312,0.13515393435955048
1759424289727816000,9.52581591796875,-0.34513887763023376,0.534430742263794,0.03680463135242462
1759424289737816000,9.535816162109375,-0.44654250144958496,0.4556291103363037,-0.0933096632361412
1759424289747816000,9.54581591796875,-0.5308418869972229,0.3554472029209137,-0.2203696370124817
1759424289757816000,9.555816162109375,-0.6487388610839844,0.2235003262758255,-0.25702154636383057
1759424289767816000,9.56581591796875,-0.778853178024292,0.11904236674308777,0.0007635815418325365
1759424289777816000,9.575816162109374,-0.8820894360542297,0.029245173558592796,0.6183483600616455
1759424289787816000,9.58581591796875,-0.8912523984909058,0.20150917768478394,1.5596916675567627
1759424289797816000,9.595816162109376,-0.7623597979545593,0.8887325525283813,1.8755090236663818
1759424289807816000,9.60581591796875,-0.6695083379745483,1.8966602087020874,1.8913915157318115
1759424289817816000,9.615816162109375,-0.5900958180427551,2.622368097305298,1.7197383642196655
1759424289827816000,9.62581591796875,-0.11789698898792267,1.931479573249817,0.11743884533643723
1759424289837816000,9.635816162109375,0.8820894360542297,-0.7465536594390869,-1.8532124757766724
1759424289847816000,9.64581591796875,1.6475036144256592,-2.0764074325561523,-2.1678080558776855
1759424289857816000,9.655816162109375,1.8429805040359497,-1.4673746824264526,-1.451874017715454
1759424289867816000,9.66581591796875,1.605353832244873,0.36644279956817627,-0.20754146575927734
1759424289877816000,9.675816162109374,1.2180652618408203,2.4983625411987305,1.0917688608169556
1759424289887816000,9.68581591796875,0.7757988572120667,3.7097082138061523,1.9616410732269287
1759424289897816000,9.695816162109375,0.5143485069274902,4.0676751136779785,2.24202823638916
1759424289907816000,9.70581591796875,0.523511528968811,3.6455674171447754,1.9176586866378784
1759424289917816000,9.715816162109375,0.45692721009254456,2.8954248428344727,1.514487624168396
1759424289927816000,9.72581591796875,0.37201693654060364,2.0823633670806885,1.3715451955795288
1759424289937815800,9.73581591796875,0.28527405858039856,1.3126730918884277,1.4399621486663818
1759424289947816000,9.74581591796875,0.1508837193250656,0.8142070174217224,1.6097826957702637
1759424289957815800,9.75581591796875,-0.05314527451992035,0.7464009523391724,1.7771596908569336
1759424289967816000,9.76581591796875,-0.27977627515792847,0.9669232964515686,1.8834502696990967
1759424289977815800,9.77581591796875,-0.45692721009254456,1.3181707859039307,1.9689713716506958
1759424289987816000,9.78581591796875,-0.5717698931694031,1.521588921546936,2.012953758239746
1759424289997815800,9.79581591796875,-0.6713408827781677,1.448896050453186,2.0062341690063477
1759424290017815800,9.81581591796875,-0.7654141783714294,0.8013788461685181,1.8596265316009521
1759424290027816000,9.82581591796875,-0.7086036801338196,0.5985715985298157,1.7490599155426025
1759424290037816000,9.835816162109374,-0.6059783101081848,0.4354705512523651,1.6195564270019531
1759424290047816000,9.84581591796875,-0.5125159621238708,0.3310126066207886,1.485166072845459
1759424290057816000,9.855816162109376,-0.41661009192466736,0.32246050238609314,1.3678799867630005
1759424290067816000,9.86581591796875,-0.2767219543457031,0.4311945140361786,1.2615894079208374
1759424290077815800,9.87581591796875,-0.12828169763088226,0.6156758069992065,1.1406381130218506
1759424290087816000,9.88581591796875,-0.03420845419168472,0.7653377652168274,1.080162525177002
1759424290097815800,9.89581591796875,0.04398229718208313,0.9498190879821777,1.013578176498413
1759424290107816000,9.90581591796875,0.1007927656173706,1.2045499086380005,0.9036223888397217
1759424290117815800,9.91581591796875,0.10995574295520782,1.408578872680664,0.8071057200431824
1759424290127816000,9.92581591796875,0.07880161702632904,1.588784098625183,0.8095491528511047
1759424290137815800,9.93581591796875,0.01038470957428217,1.5796211957931519,0.887739896774292
1759424290147816000,9.94581591796875,-0.08124507963657379,1.4806610345840454,0.9744827747344971
1759424290157815800,9.95581591796875,-0.14966198801994324,1.3554335832595825,1.0673342943191528
1759424290167816000,9.96581591796875,-0.18509216606616974,1.2216541767120361,1.1388055086135864
1759424290177815800,9.97581591796875,-0.18814650177955627,1.112309217453003,1.1662944555282593
1759424290187816000,9.98581591796875,-0.17409659922122955,1.0335075855255127,1.1577423810958862
1759424290197815800,9.99581591796875,-0.1313360333442688,0.9980774521827698,1.1217013597488403
1759424290207816000,10.00581591796875,-0.04764748737215996,1.0524444580078125,1.0771081447601318
1759424290217815800,10.01581591796875,0.06169738993048668,1.14468514919281,1.021519422531128
1759424290227816000,10.02581591796875,0.15943582355976105,1.247921347618103,0.9518807530403137
1759424290237816000,10.035816162109375,0.24617868661880493,1.3627640008926392,0.888961672782898
1759424290247816000,10.04581591796875,0.3701843321323395,1.4873805046081543,0.7881689071655273
1759424290257816000,10.055816162109375,0.44837507605552673,1.4928783178329468,0.7258606553077698
1759424290267816000,10.06581591796875,0.5167919993400574,1.3847551345825195,0.6629415154457092
1759424290277816000,10.075816162109374,0.5681046843528748,1.2430343627929688,0.6049093008041382
1759424290287816000,10.08581591796875,0.5839871764183044,1.056720495223999,0.5755877494812012
1759424290297816000,10.095816162109376,0.5821545720100403,0.8447502851486206,0.5865833759307861
1759424290307816000,10.10581591796875,0.5693264007568359,0.7005860805511475,0.622013509273529
1759424290317816000,10.115816162109375,0.5387831330299377,0.6608798503875732,0.6757696866989136
1759424290327816000,10.12581591796875,0.49785518646240234,0.705473005771637,0.73685622215271
1759424290337816000,10.135816162109375,0.44715335965156555,0.7964919209480286,0.7985535860061646
1759424290347816000,10.14581591796875,0.3903428912162781,0.8942303657531738,0.8486445546150208
1759424290357816000,10.155816162109375,0.2871066629886627,1.0964267253875732,0.8462010622024536
1759424290367816000,10.16581591796875,0.21135938167572021,1.2686907052993774,0.7667886018753052
1759424290377816000,10.175816162109374,0.13377949595451355,1.4305700063705444,0.6666067242622375
1759424290387816000,10.18581591796875,0.05253441259264946,1.5637387037277222,0.5823072791099548
1759424290397816000,10.195816162109375,-0.018936822190880775,1.668196678161621,0.5371032953262329
1759424290407816000,10.20581591796875,-0.06963863968849182,1.7671568393707275,0.5126686692237854
1759424290417816000,10.215816162109375,-0.06169738993048668,1.8697822093963623,0.4943426847457886
1759424290427816000,10.22581591796875,-0.00733038317412138,1.9308686256408691,0.44425174593925476
1759424290437816000,10.235816162109375,0.05925392732024193,1.9253709316253662,0.33307427167892456
1759424290447816000,10.24581591796875,0.11850785464048386,1.8874973058700562,0.16508632898330688
1759424290457816000,10.255816162109374,0.16249015927314758,1.8080847263336182,-0.0010690141934901476
1759424290467816000,10.26581591796875,0.1820378452539444,1.6962964534759521,-0.1385136991739273
1759424290477816000,10.275816162109376,0.14294247329235077,1.5564082860946655,-0.2612976133823395
1759424290487816000,10.28581591796875,0.05803219974040985,1.5454126596450806,-0.3211624026298523
1759424290497816000,10.295816162109375,-0.03726277872920036,1.6352099180221558,-0.40485092997550964
1759424290507816000,10.30581591796875,-0.10567969083786011,1.8380171060562134,-0.585667073726654
1759424290517816000,10.315816162109375,-0.13866640627384186,2.1129064559936523,-0.9326385259628296
1759424290527816000,10.32581591796875,-0.16249015927314758,2.3389265537261963,-1.4824172258377075
1759424290537816000,10.335816162109374,-0.19792033731937408,2.421393394470215,-2.01509165763855
1759424290547816000,10.34581591796875,-0.18936823308467865,2.2613468170166016,-2.3712260723114014
1759424290557816000,10.355816162109376,-0.12828169763088226,2.067702531814575,-2.621680974960327
1759424290567816000,10.36581591796875,-0.00855211354792118,1.9699640274047852,-2.7682886123657227
1759424290577816000,10.375816162109375,0.23518311977386475,2.1330649852752686,-2.83853816986084
1759424290587816000,10.38581591796875,0.6511823534965515,2.661463499069214,-2.8715248107910156
1759424290597816000,10.395816162109375,0.7623597979545593,2.865492582321167,-2.9081766605377197
1759424290607816000,10.40581591796875,0.7855727076530457,2.9485702514648438,-2.9411635398864746
1759424290617816000,10.415816162109374,0.7965682744979858,2.990719795227051,-2.9051222801208496
1759424290627816000,10.42581591796875,0.7916813492774963,3.0377564430236816,-2.7566821575164795
1759424290637816000,10.435816162109376,0.7715228199958801,3.2265138626098633,-2.448195219039917
1759424290657816000,10.455816162109375,0.7000515460968018,3.497127056121826,-1.9912680387496948
1759424290667816000,10.46581591796875,0.6493497490882874,3.2527811527252197,-1.9436204433441162
1759424290687816000,10.48581591796875,0.4337143301963806,3.0365347862243652,-1.7395914793014526
1759424290697815800,10.49581591796875,0.3121521472930908,2.5405120849609375,-1.6937766075134277
1759424290707816000,10.50581591796875,0.21380282938480377,1.8991036415100098,-1.716989517211914
1759424290717815800,10.51581591796875,0.09651670604944229,1.0793225765228271,-1.9301815032958984
1759424290727816000,10.52581591796875,0.09896016865968704,0.5710826516151428,-2.4072673320770264
1759424290737815800,10.53581591796875,0.22663100063800812,0.2192242592573166,-2.864194393157959
1759424290747816000,10.54581591796875,0.4184426963329315,0.06772968173027039,-3.1170926094055176
1759424290757815800,10.55581591796875,0.5705481171607971,-0.07704538106918335,-3.1647400856018066
1759424290767816000,10.56581591796875,0.7067710757255554,-0.1149190217256546,-3.003471612930298
1759424290777816000,10.575816162109374,0.8246681094169617,-0.15951219201087952,-2.8299858570098877
1759424290787816000,10.58581591796875,0.9370672702789307,-0.09842566400766373,-2.699260711669922
1759424290797816000,10.595816162109376,1.0152580738067627,-0.12591460347175598,-2.6057984828948975
1759424290807816000,10.60581591796875,1.073290228843689,-0.16256651282310486,-2.5086708068847656
1759424290817816000,10.615816162109375,1.0586295127868652,-0.043447788804769516,-2.2514965534210205
1759424290827816000,10.62581591796875,1.0610729455947876,0.11415544152259827,-1.9924896955490112
1759424290837815800,10.63581591796875,1.0977247953414917,0.2888629138469696,-1.7340936660766602
1759424290847816000,10.64581591796875,1.1166616678237915,0.43302708864212036,-1.5099061727523804
1759424290857815800,10.65581591796875,1.1197160482406616,0.601015031337738,-1.3156510591506958
1759424290867816000,10.66581591796875,1.1087204217910767,0.7573965191841125,-1.1323914527893066
1759424290877815800,10.67581591796875,1.0983357429504395,0.8533023595809937,-0.9772316813468933
1759424290887816000,10.68581591796875,1.0781772136688232,0.8392524719238281,-0.8959866166114807
1759424290897815800,10.69581591796875,1.0653489828109741,0.6621015667915344,-0.8959866166114807
1759424290907816000,10.70581591796875,1.035416603088379,0.4195880591869354,-0.9271407127380371
1759424290917815800,10.71581591796875,0.9914342761039734,0.20089830458164215,-0.9613491892814636
1759424290927816000,10.72581591796875,0.9004153609275818,-0.09231700748205185,-0.9436340928077698
1759424290937815800,10.73581591796875,0.8307767510414124,-0.2260964959859848,-0.8483390808105469
1759424290947816000,10.74581591796875,0.7605272531509399,-0.348880410194397,-0.7072292566299438
1759424290957815800,10.75581591796875,0.6878342628479004,-0.4398993253707886,-0.5386304259300232
1759424290967816000,10.76581591796875,0.6389650702476501,-0.4478405714035034,-0.36880987882614136
1759424290977816000,10.775816162109376,0.5992587804794312,-0.3635411858558655,-0.23258693516254425
1759424290987816000,10.78581591796875,0.5693264007568359,-0.21815524995326996,-0.13240504264831543
1759424290997816000,10.795816162109375,0.5681046843528748,-0.1405753642320633,-0.07620543986558914
1759424291007816000,10.80581591796875,0.5815436840057373,-0.1295797973871231,-0.048105638474226
1759424291017816000,10.815816162109375,0.5937610268592834,-0.17661641538143158,-0.02428189292550087
1759424291027816000,10.82581591796875,0.5907067060470581,-0.1857793927192688,-0.003512475173920393
1759424291037816000,10.835816162109374,0.5852088928222656,-0.1650099754333496,-0.005345070734620094
1759424291047816000,10.84581591796875,0.5418374538421631,-0.16134478151798248,0.0013744467869400978
1759424291057816000,10.855816162109376,0.49235737323760986,-0.16684256494045258,0.03436116874217987
1759424291067816000,10.86581591796875,0.4899139404296875,-0.15829046070575714,0.1137736514210701
1759424291077816000,10.875816162109375,0.4453207552433014,0.0029779679607599974,0.20051652193069458
1759424291087816000,10.88581591796875,0.3646865487098694,0.16485725343227386,0.26771169900894165
1759424291097816000,10.895816162109375,0.27550023794174194,0.25098925828933716,0.3367394804954529
1759424291107816000,10.90581591796875,0.16737708449363708,0.27725645899772644,0.38866302371025085
1759424291117816000,10.915816162109374,0.06841690838336945,0.24182628095149994,0.43875396251678467
1759424291127816000,10.92581591796875,-0.015271631069481373,0.1825723499059677,0.4980078935623169
1759424291137816000,10.935816162109376,-0.07757988572120667,0.17157678306102753,0.5364924073219299
1759424291147816000,10.94581591796875,-0.12522737681865692,0.25221097469329834,0.4992296099662781
1759424291157816000,10.955816162109375,-0.13316862285137177,0.5515349507331848,0.22861631214618683
1759424291167816000,10.96581591796875,-0.09407325088977814,0.8148179054260254,-0.11285735666751862
1759424291177816000,10.975816162109375,-0.05314527451992035,0.9290496706962585,-0.427452951669693
1759424291187816000,10.98581591796875,-0.03726277872920036,0.7518987655639648,-0.5648976564407349
1759424291197816000,10.995816162109374,-0.02932153269648552,0.39759692549705505,-0.5948300361633301
1759424291207816000,11.00581591796875,-0.07513642311096191,0.20578522980213165,-0.5251913666725159
1759424291217816000,11.015816162109376,-0.16859880089759827,0.21189388632774353,-0.17760907113552094
1759424291227816000,11.02581591796875,-0.18936823308467865,0.26259568333625793,0.38438695669174194
1759424291237816000,11.035816162109375,-0.1612684279680252,0.38354700803756714,0.8126034736633301
1759424291247816000,11.04581591796875,-0.05497787147760391,0.5881868600845337,1.0819950103759766
1759424291257816000,11.055816162109375,0.03726277872920036,0.6639341711997986,1.295186996459961
1759424291267816000,11.06581591796875,-0.004886921960860491,0.5839108228683472,1.6183347702026367
1759424291277816000,11.075816162109374,-0.16554448008537292,1.021901249885559,2.158339738845825
1759424291287816000,11.08581591796875,-0.1569923609495163,1.4611133337020874,2.364812135696411
1759424291297816000,11.095816162109376,0.018936822190880775,1.6785813570022583,2.4582743644714355
1759424291307816000,11.10581591796875,0.24923302233219147,1.6969072818756104,2.5279130935668945
1759424291317816000,11.115816162109375,0.4251621961593628,1.6345990896224976,2.624429702758789
1759424291327816000,11.12581591796875,0.5406157374382019,1.6645314693450928,2.746602773666382
1759424291337816000,11.135816162109375,0.5937610268592834,1.7915914058685303,2.8773279190063477
1759424291347816000,11.14581591796875,0.6163630485534668,1.9479728937149048,3.0031661987304688
1759424291357816000,11.155816162109375,0.6249151229858398,2.0903046131134033,3.089909076690674
1759424291367816000,11.16581591796875,0.6163630485534668,2.156888723373413,3.1143436431884766
1759424291377816000,11.175816162109374,0.6017022728919983,2.17338228225708,3.081967830657959
1759424291387816000,11.18581591796875,0.6029239892959595,2.1501693725585938,2.9836184978485107
1759424291397816000,11.195816162109375,0.6401867866516113,2.017000675201416,2.9017627239227295
1759424291407816000,11.20581591796875,0.6585127115249634,1.768378496170044,2.7649288177490234
1759424291417816000,11.215816162109375,0.6762278079986572,1.458669900894165,2.5920538902282715
1759424291427816000,11.22581591796875,0.7141014933586121,1.1569024324417114,2.3935227394104004
1759424291437816000,11.235816162109375,0.7574729323387146,0.9076694250106812,2.1681134700775146
1759424291447816000,11.24581591796875,0.7709119319915771,0.7011969685554504,1.9579758644104004
1759424291457816000,11.255816162109374,0.7733554244041443,0.591241180896759,1.8077030181884766
1759424291467816000,11.26581591796875,0.7629706859588623,0.5637522339820862,1.7368426322937012
1759424291477816000,11.275816162109376,0.7116580009460449,0.5258786082267761,1.726457953453064
1759424291487816000,11.28581591796875,0.636521577835083,0.4263075888156891,1.7679967880249023
1759424291497816000,11.295816162109375,0.5491678714752197,0.32734742760658264,1.848020076751709
1759424291507816000,11.30581591796875,0.4086688458919525,0.3334560692310333,1.9885190725326538
1759424291517816000,11.315816162109375,0.33292156457901,0.48800498247146606,2.048994779586792
1759424291527816000,11.32581591796875,0.2968805134296417,0.6572146415710449,2.060601234436035
1759424291537816000,11.335816162109374,0.28466320037841797,0.7500661611557007,2.0612120628356934
1759424291547816000,11.34581591796875,0.2742784917354584,0.7378488779067993,2.0563251972198486
1759424291557816000,11.355816162109376,0.2736676335334778,0.6156758069992065,2.04349684715271
1759424291567816000,11.36581591796875,0.27977627515792847,0.43424883484840393,1.9995146989822388
1759424291577816000,11.375816162109375,0.27977627515792847,0.22044599056243896,1.9023871421813965
1759424291587816000,11.38581591796875,0.2718350291252136,-0.0031306843739002943,1.7429512739181519
1759424291597816000,11.395816162109375,0.25961771607398987,-0.21754439175128937,1.5615242719650269
1759424291607816000,11.40581591796875,0.23457226157188416,-0.4075234830379486,1.3880385160446167
1759424291617816000,11.415816162109374,0.11728613078594208,-0.5938373804092407,1.195005178451538
1759424291627816000,11.42581591796875,-0.02932153269648552,-0.6408740282058716,1.1259773969650269
1759424291637816000,11.435816162109376,-0.18325957655906677,-0.6121633052825928,1.114981770515442
1759424291647816000,11.44581591796875,-0.3066543638706207,-0.4673882722854614,1.1742357015609741
1759424291657816000,11.455816162109375,-0.3793473243713379,-0.22487476468086243,1.2725850343704224
1759424291667816000,11.46581591796875,-0.4440990388393402,0.015195272862911224,1.3513866662979126
1759424291677816000,11.475816162109375,-0.48747047781944275,0.1935679316520691,1.356884479522705
1759424291687816000,11.48581591796875,-0.49357911944389343,0.2583196461200714,1.2927435636520386
1759424291697816000,11.495816162109374,-0.44837507605552673,0.22166772186756134,1.1760683059692383
1759424291707816000,11.50581591796875,-0.35674530267715454,0.1581377387046814,1.0080803632736206
1759424291717816000,11.515816162109376,-0.24678955972194672,0.1123228445649147,0.8327620625495911
1759424291727816000,11.52581591796875,-0.14294247329235077,0.11110111325979233,0.6782131195068359
1759424291737816000,11.535816162109375,-0.009162978269159794,0.21494820713996887,0.4815145432949066
1759424291747816000,11.54581591796875,0.06536258012056351,0.2888629138469696,0.3660610020160675
1759424291757816000,11.555816162109375,0.14477506279945374,0.3407864570617676,0.26893341541290283
1759424291767816000,11.56581591796875,0.2064724564552307,0.35239288210868835,0.21151208877563477
1759424291777816000,11.575816162109374,0.2577851414680481,0.33651039004325867,0.19013181328773499
1759424291787816000,11.58581591796875,0.2981022298336029,0.31635183095932007,0.20173825323581696
1759424291797816000,11.595816162109376,0.3219259977340698,0.27786731719970703,0.20845776796340942
1759424291807816000,11.60581591796875,0.32070425152778625,0.22594378888607025,0.2151772826910019
1759424291817816000,11.615816162109375,0.28649580478668213,0.16546812653541565,0.22861631214618683
1759424291827816000,11.62581591796875,0.23090706765651703,0.09827294945716858,0.2603813111782074
1759424291837816000,11.635816162109375,0.1569923609495163,0.032299499958753586,0.31230485439300537
1759424291847816000,11.64581591796875,0.030543262138962746,-0.06360634416341782,0.43386703729629517
1759424291857816000,11.655816162109375,-0.07269296050071716,-0.1399645060300827,0.5279402732849121
1759424291867816000,11.66581591796875,-0.16982053220272064,-0.21510092914104462,0.6305656433105469
1759424291877816000,11.675816162109374,-0.2791654169559479,-0.28901562094688416,0.7423539757728577
1759424291887816000,11.68581591796875,-0.4080579876899719,-0.35010215640068054,0.8651378750801086
1759424291897816000,11.695816162109375,-0.5192354321479797,-0.43134722113609314,0.9964739084243774
1759424291907816000,11.70581591796875,-0.5589417219161987,-0.5669593214988708,1.1412489414215088
1759424291917816000,11.715816162109375,-0.53328537940979,-0.7141778469085693,1.2432634830474854
1759424291927816000,11.72581591796875,-0.42271876335144043,-0.8864418268203735,1.2023354768753052
1759424291937816000,11.735816162109375,-0.21441370248794556,-1.0257190465927124,0.955545961856842
1759424291947816000,11.74581591796875,0.036651913076639175,-1.0196104049682617,0.4918992519378662
1759424291957816000,11.755816162109374,0.2541199326515198,-0.6237697601318359,-0.4787656366825104
1759424291967816000,11.76581591796875,0.2816088795661926,-0.18272507190704346,-1.0493137836456299
1759424291977816000,11.775816162109376,0.2638937830924988,0.25098925828933716,-1.3694071769714355
1759424291987816000,11.78581591796875,0.24129177629947662,0.6059019565582275,-1.4366023540496826
1759424291997816000,11.795816162109375,0.2223549485206604,0.7885506749153137,-1.3523029088974
1759424292007816000,11.80581591796875,0.21135938167572021,0.8252025842666626,-1.2618948221206665
1759424292017816000,11.815816162109375,0.23273965716362,0.8618544936180115,-1.2454015016555786
1759424292027816000,11.82581591796875,0.2528982162475586,0.7830528616905212,-1.3339769840240479
1759424292037816000,11.835816162109374,0.3139847218990326,0.5002222657203674,-1.5386168956756592
1759424292047816000,11.84581591796875,0.46303585171699524,-0.00862847175449133,-1.9320141077041626
1759424292057816000,11.855816162109376,0.7061602473258972,-0.5724570751190186,-2.5160012245178223
1759424292067816000,11.86581591796875,0.9718865752220154,-0.8400160670280457,-3.0615038871765137
1759424292077816000,11.875816162109375,1.2596040964126587,-0.44112107157707214,-3.5550830364227295
1759424292087816000,11.88581591796875,1.3048081398010254,0.5222133994102478,-3.6302194595336914
1759424292097816000,11.895816162109375,1.1985175609588623,1.8600083589553833,-3.5300376415252686
1759424292107816000,11.90581591796875,1.0384708642959595,3.4555883407592773,-3.2838587760925293
1759424292117816000,11.915816162109374,0.8943067193031311,4.853858947753906,-2.8599183559417725
1759424292127816000,11.92581591796875,0.7476990818977356,5.470832824707031,-2.3681719303131104
1759424292137816000,11.935816162109376,0.5473352670669556,5.268636226654053,-1.8764252662658691
1759424292147816000,11.94581591796875,0.32681289315223694,4.089666366577148,-1.5642731189727783
1759424292157816000,11.955816162109375,0.11789698898792267,2.3114378452301025,-1.4005613327026367
1759424292167816000,11.96581591796875,0.03176499158143997,1.236925721168518,-1.6479617357254028
1759424292177816000,11.975816162109375,-0.08735372871160507,1.1129201650619507,-2.046245813369751
1759424292187816000,11.98581591796875,-0.22113321721553802,1.264414668083191,-2.4133758544921875
1759424292197816000,11.995816162109374,-0.23335053026676178,1.2833515405654907,-2.4433083534240723
1759424292207816000,12.00581591796875,-0.1820378452539444,0.877126157283783,-2.415208578109741
1759424292217816000,12.015816162109376,-0.13866640627384186,0.06223189830780029,-2.375502109527588
1759424292227816000,12.02581591796875,-0.07269296050071716,-0.5596289038658142,-2.4463624954223633
1759424292237816000,12.035816162109375,0.012828170321881771,-0.6274349689483643,-2.701704263687134
1759424292247816000,12.04581591796875,0.0708603709936142,-0.4637230932712555,-2.9906435012817383
1759424292257816000,12.055816162109375,0.036041051149368286,-0.38064539432525635,-3.129920721054077
1759424292267816000,12.06581591796875,-0.015882495790719986,-0.4979315400123596,-3.1024317741394043
1759424292277816000,12.075816162109374,-0.03481931984424591,-0.7355580925941467,-3.051730155944824
1759424292287816000,12.08581591796875,-0.0659734457731247,-0.9310349822044373,-3.0492866039276123
1759424292297816000,12.095816162109376,-0.06658431142568588,-0.9621891379356384,-3.0334041118621826
1759424292307816000,12.10581591796875,-0.059864792972803116,-0.9682977795600891,-2.542879343032837
1759424292317816000,12.115816162109375,-0.06230825558304787,-0.7404450178146362,-2.141540765762329
1759424292327816000,12.12581591796875,-0.045204028487205505,-0.5156466364860535,-1.8440494537353516
1759424292337816000,12.135816162109375,0.012828170321881771,-0.5449681282043457,-1.65834641456604
1759424292347816000,12.14581591796875,0.06841690838336945,-0.6359871029853821,-1.5349516868591309
1759424292357816000,12.155816162109375,0.13927727937698364,-0.8076401948928833,-1.4408783912658691
1759424292367816000,12.16581591796875,0.18325957655906677,-0.9420305490493774,-1.3669637441635132
1759424292377816000,12.175816162109374,0.1966986060142517,-1.0208321809768677,-1.2655600309371948
1759424292397816000,12.195816162109375,0.11789698898792267,-1.1032990217208862,-0.8764389157295227
1759424292407816000,12.20581591796875,0.06780604273080826,-0.9970084428787231,-0.5813909769058228
1759424292417816000,12.215816162109375,-0.03787364438176155,-0.6158285140991211,-0.16722436249256134
1759424292427816000,12.22581591796875,-0.07696902006864548,-0.3012329339981079,0.036193765699863434
1759424292437816000,12.235816162109375,-0.1062905490398407,-0.05627596005797386,0.18646661937236786
1759424292447816000,12.24581591796875,-0.16249015927314758,0.02557998150587082,0.32757648825645447
1759424292457816000,12.255816162109374,-0.25473082065582275,0.020082194358110428,0.5181664228439331
1759424292467816000,12.26581591796875,-0.3830125033855438,0.04512767121195793,0.6959282159805298
1759424292477816000,12.275816162109376,-0.5174028873443604,0.19662225246429443,0.8663596510887146
1759424292487816000,12.28581591796875,-0.5791002511978149,0.49900054931640625,1.1748465299606323
1759424292497816000,12.295816162109375,-0.5833762884140015,0.7702246904373169,1.4906638860702515
1759424292507816000,12.30581591796875,-0.5424483418464661,0.8807913064956665,1.5902349948883057
1759424292517816000,12.315816162109375,-0.4691445231437683,0.8404742479324341,1.5480852127075195
1759424292527816000,12.32581591796875,-0.4043927788734436,0.4354705512523651,1.6000088453292847
1759424292537816000,12.335816162109374,-0.3341432809829712,0.21678079664707184,1.8926132917404175
1759424292547816000,12.34581591796875,-0.22602014243602753,0.7201337814331055,2.1424572467803955
1759424292557816000,12.355816162109376,-0.16065755486488342,0.9003390073776245,2.411848783493042
1759424292567816000,12.36581591796875,-0.3280346393585205,0.7586182951927185,2.3880250453948975
1759424292577816000,12.375816162109375,-0.5705481171607971,0.5588653683662415,1.926210880279541
1759424292587816000,12.38581591796875,-0.6701191663742065,0.41103595495224,1.5028811693191528
1759424292597816000,12.395816162109375,-0.6621779203414917,0.359112411737442,1.3910928964614868
1759424292607816000,12.40581591796875,-0.5900958180427551,0.3236822187900543,1.441794753074646
1759424292617816000,12.415816162109374,-0.43615779280662537,0.34628424048423767,1.5847371816635132
1759424292627816000,12.42581591796875,-0.23090706765651703,0.42325326800346375,1.8113682270050049
1759424292637816000,12.435816162109376,-0.009773843921720982,0.4867832362651825,2.079538106918335
1759424292647816000,12.44581591796875,0.32070425152778625,0.58146733045578,2.3287711143493652
1759424292657816000,12.455816162109375,0.5106833577156067,0.620562732219696,2.380694627761841
1759424292667816000,12.46581591796875,0.6737843751907349,0.6590472459793091,2.361146926879883
1759424292677816000,12.475816162109375,0.7629706859588623,0.6321691870689392,2.2676844596862793
1759424292687816000,12.48581591796875,0.7244861721992493,0.4751768112182617,2.118633270263672
1759424292697816000,12.495816162109374,0.6316346526145935,0.208839550614357,1.9292651414871216
1759424292707816000,12.50581591796875,0.5088507533073425,-0.084375761449337,1.753335952758789
1759424292717816000,12.515816162109376,0.3597996234893799,-0.2981785833835602,1.6604844331741333
1759424292727816000,12.52581591796875,0.2742784917354584,-0.30001118779182434,1.6055065393447876
1759424292737816000,12.535816162109375,0.2431243658065796,-0.11736248433589935,1.5700763463974
1759424292747816000,12.54581591796875,0.2535090744495392,0.11110111325979233,1.5474743843078613
1759424292757816000,12.555816162109375,0.24495697021484375,0.24671320617198944,1.5401439666748047
1759424292767816000,12.56581591796875,0.1814269721508026,0.24243713915348053,1.57313072681427
1759424292777816000,12.575816162109374,0.1368338167667389,0.09155342727899551,1.6079500913619995
1759424292787816000,12.58581591796875,0.10506882518529892,-0.14240795373916626,1.6262760162353516
1759424292797816000,12.595816162109376,0.09896016865968704,-0.3739258944988251,1.5932892560958862
1759424292807816000,12.60581591796875,0.09834930300712585,-0.5810092091560364,1.5187636613845825
1759424292817816000,12.615816162109375,0.08918632566928864,-0.8088619709014893,1.4020884037017822
1759424292827816000,12.62581591796875,0.06230825558304787,-1.0391581058502197,1.257924199104309
1759424292837815800,12.63581591796875,0.019547687843441963,-1.2163090705871582,1.114981770515442
