time,seconds_elapsed,z,y,x
1759424280264657200,0.0626572265625,7.482179641723633,-4.548983097076416,4.76924991607666
1759424280294671600,0.092671630859375,6.687304496765137,-3.974374771118164,4.838681697845459
1759424280304671200,0.102671142578125,6.87405252456665,-4.532223701477051,4.367023944854736
1759424280314670800,0.1126708984375,7.2667012214660645,-4.661510944366455,4.314351558685303
1759424280324670700,0.122670654296875,7.3792290687561035,-4.726154327392578,4.594472885131836
1759424280334670600,0.132670654296875,6.96503210067749,-4.527435302734375,4.838681697845459
1759424280344670500,0.14267041015625,6.9147539138793945,-4.244919776916504,4.973056316375732
1759424280354670300,0.15267041015625,7.273883819580078,-4.271255970001221,5.076006889343262
1759424280364670200,0.162670166015625,7.149385452270508,-4.548983097076416,5.011363506317139
1759424280374670000,0.172670166015625,6.859687328338623,-4.357447147369385,5.025728702545166
1759424280384670200,0.182670166015625,6.687304496765137,-4.211400985717773,4.963479518890381
1759424280394670000,0.192670166015625,6.91954231262207,-4.338293552398682,4.884171485900879
1759424280404670000,0.202669921875,7.427113056182861,-4.405331134796143,4.7620673179626465
1759424280414669800,0.212669921875,7.704840183258057,-4.551377296447754,4.716577529907227
1759424280424670000,0.222669921875,7.719205379486084,-4.565742492675781,4.668693542480469
1759424280434669800,0.232669921875,7.604283809661865,-4.448426723480225,4.778826713562012
1759424280444669700,0.242669677734375,7.656956195831299,-4.23773717880249,4.886565685272217
1759424280454669600,0.252669677734375,7.9083476066589355,-4.132391929626465,4.982633113861084
1759424280464668200,0.262668212890625,8.080730438232422,-4.395754337310791,5.2986674308776855
1759424280474668300,0.272668212890625,8.10706615447998,-3.8163576126098633,4.788403511047363
1759424280484668200,0.282668212890625,7.814973831176758,-3.5673606395721436,5.451896667480469
1759424280494668000,0.29266796875,7.618649005889893,-4.048594951629639,5.717652797698975
1759424280504668200,0.302668212890625,7.293037414550781,-4.122815132141113,5.818209171295166
1759424280514668000,0.31266796875,7.240365028381348,-4.23773717880249,5.693710803985596
1759424280524668000,0.32266796875,7.197269439697266,-4.355052947998047,5.485415458679199
1759424280534668000,0.33266796875,6.601113319396973,-4.2951979637146,5.1693806648254395
1759424280547515400,0.345515380859375,6.720823287963867,-4.333505153656006,5.1023430824279785
1759424280557515300,0.355515380859375,6.6035075187683105,-4.458003520965576,5.226841449737549
1759424280567515100,0.36551513671875,6.340145587921143,-4.256890773773193,5.3489460945129395
1759424280577515300,0.375515380859375,6.991368293762207,-4.273650169372559,5.772719383239746
1759424280587515100,0.38551513671875,6.943484306335449,-4.20421838760376,6.194098949432373
1759424280597515300,0.395515380859375,6.804620742797852,-4.388571739196777,6.081571578979492
1759424280607515100,0.40551513671875,6.47900915145874,-4.613626480102539,6.024110794067383
1759424280617515300,0.415515380859375,5.99298620223999,-4.747702121734619,5.794267177581787
1759424280627515100,0.42551513671875,5.641038417816162,-4.534617900848389,5.7200469970703125
1759424280637515000,0.435514892578125,5.550058841705322,-4.5394062995910645,5.815814971923828
1759424280647518200,0.445518310546875,5.399224281311035,-4.448426723480225,5.875670433044434
1759424280657518000,0.45551806640625,5.717652797698975,-4.541800498962402,6.014533996582031
1759424280667517200,0.46551708984375,6.151003360748291,-4.508281707763672,6.002562999725342
1759424280677517300,0.475517333984375,6.574777126312256,-4.496310710906982,5.935525417327881
1759424280687517200,0.48551708984375,7.120655059814453,-4.24970817565918,5.8565168380737305
1759424280697517300,0.495517333984375,7.388805866241455,-4.015076160430908,5.736806392669678
1759424280707517200,0.50551708984375,6.467038154602051,-5.159803867340088,6.361693382263184
1759424280717517300,0.515517333984375,5.686528205871582,-4.3861775398254395,6.012139797210693
1759424280727517200,0.52551708984375,5.205293655395508,-3.315969467163086,5.600337028503418
1759424280737517300,0.535517333984375,5.796661376953125,-2.738966703414917,5.736806392669678
1759424280747517200,0.54551708984375,6.675333499908447,-2.892195701599121,5.985803604125977
1759424280757517300,0.555517333984375,7.123049259185791,-2.959233283996582,6.086359977722168
1759424280767518000,0.56551806640625,7.123049259185791,-3.162740468978882,6.613084316253662
1759424280777518000,0.57551806640625,6.134243965148926,-3.641580820083618,6.754342079162598
1759424280787518200,0.585518310546875,5.73441219329834,-4.153939723968506,6.522104740142822
1759424280797518000,0.59551806640625,5.214870452880859,-3.847482204437256,5.983409404754639
1759424280807518200,0.605518310546875,4.63517427444458,-3.758896589279175,5.892429828643799
1759424280817518000,0.61551806640625,4.261679172515869,-3.689464807510376,6.016928195953369
1759424280827517200,0.62551708984375,4.261679172515869,-4.108449935913086,6.26592493057251
1759424280837517300,0.635517333984375,4.5825018882751465,-4.6255974769592285,6.768707275390625
1759424280847517200,0.64551708984375,3.706224203109741,-4.685452938079834,7.551611423492432
1759424280857517300,0.655517333984375,2.1547815799713135,-3.9456443786621094,8.190863609313965
1759424280867516400,0.665516357421875,1.1994950771331787,-2.779668092727661,8.676886558532715
1759424280877516300,0.675516357421875,0.8786720037460327,-1.7142484188079834,9.105448722839355
1759424280887516400,0.685516357421875,0.8236053586006165,-0.9457096457481384,9.265859603881836
1759424280897516300,0.695516357421875,1.3024457693099976,-0.6033388376235962,9.579500198364258
1759424280907516400,0.705516357421875,1.6352397203445435,-0.9840168952941895,9.754277229309082
1759424280917516300,0.715516357421875,3.0765492916107178,-2.212242364883423,9.359233856201172
1759424280927516400,0.725516357421875,5.008969306945801,-2.7700912952423096,9.500492095947266
1759424280937516500,0.7355166015625,6.720823287963867,-3.428496837615967,10.367192268371582
1759424280947513300,0.745513427734375,5.909189224243164,-3.4572272300720215,10.817302703857422
1759424280957513500,0.755513427734375,4.321534156799316,-2.6839001178741455,11.032780647277832
1759424280967514400,0.765514404296875,1.920149803161621,-2.3965959548950195,11.604994773864746
1759424280977514200,0.77551416015625,0.12928688526153564,-2.188300371170044,11.69118595123291
1759424280987514400,0.785514404296875,-0.5051765441894531,-2.2840683460235596,11.561899185180664
1759424280997514200,0.79551416015625,0.3447650372982025,-2.784456491470337,10.977714538574219
1759424281007514400,0.805514404296875,1.8531121015548706,-3.2632968425750732,9.902717590332031
1759424281017514200,0.81551416015625,3.5889084339141846,-3.5889084339141846,9.263465881347656
1759424281027513300,0.825513427734375,3.2609026432037354,-3.406949043273926,10.125378608703613
1759424281037513500,0.835513427734375,1.534683346748352,-3.406949043273926,11.0208101272583
1759424281047513300,0.845513427734375,0.06703764945268631,-3.909731388092041,10.750265121459961
1759424281057513500,0.855513427734375,0.3687070608139038,-4.548983097076416,9.471760749816895
1759424281067512600,0.8655126953125,1.1013327836990356,-4.039018154144287,8.64815616607666
1759424281077512400,0.875512451171875,2.367865562438965,-3.354276657104492,8.763077735900879
1759424281087512600,0.8855126953125,2.8658595085144043,-3.9839515686035156,8.43507194519043
1759424281097512400,0.895512451171875,3.315969467163086,-4.4939165115356445,7.735964775085449
1759424281107512600,0.9055126953125,3.950432777404785,-3.9671921730041504,6.924330711364746
1759424281117512400,0.915512451171875,3.7277719974517822,-3.0789434909820557,6.75194787979126
1759424281127513300,0.925513427734375,2.5043349266052246,-2.942473888397217,6.945878505706787
1759424281137513500,0.935513427734375,1.3431471586227417,-3.160346269607544,6.972214698791504
1759424281147514000,0.94551416015625,1.072602391242981,-3.184288263320923,7.700051784515381
1759424281157514000,0.955513916015625,1.0342950820922852,-3.6343982219696045,8.427888870239258
1759424281167515000,0.965514892578125,0.6177040338516235,-3.797203779220581,8.226776123046875
1759424281177514800,0.9755146484375,0.6320692300796509,-3.734954595565796,6.835745334625244
1759424281187514400,0.985514404296875,2.279279947280884,-3.093308687210083,4.898836135864258
1759424281207514400,1.005514404296875,3.4380736351013184,-1.946485996246338,6.43351936340332
1759424281217514000,1.015513916015625,2.5905263423919678,-2.6216509342193604,8.023268699645996
1759424281237514000,1.035513916015625,1.455674648284912,-3.1076738834381104,10.881945610046387
1759424281247513900,1.045513916015625,1.8794482946395874,-3.426102638244629,11.415852546691895
1759424281257514000,1.055513916015625,2.387019157409668,-3.24414324760437,10.93461799621582
1759424281267513900,1.065513916015625,1.8531121015548706,-2.6647465229034424,11.152490615844727
1759424281277514000,1.075513916015625,1.5897499322891235,-2.6384103298187256,9.732728958129883
1759424281287513900,1.085513916015625,2.2218191623687744,-2.58813214302063,9.184456825256348
1759424281297514000,1.095513916015625,1.6208745241165161,-3.0166940689086914,9.110237121582031
1759424281307513900,1.105513916015625,0.6272808313369751,-3.7876269817352295,9.665691375732422
1759424281317514000,1.115513916015625,-0.730231523513794,-4.170699596405029,10.383952140808105
1759424281327514600,1.1255146484375,-1.3072341680526733,-4.496310710906982,10.606613159179688
1759424281337514800,1.1355146484375,-1.6519991159439087,-4.721365928649902,10.067917823791504
1759424281347514400,1.145514404296875,-1.558625340461731,-4.922778129577637,8.83250904083252
1759424281357514200,1.15551416015625,-1.0199298858642578,-5.1023430824279785,7.594707012176514
1759424281367515100,1.16551513671875,-0.5913678407669067,-5.15740966796875,6.139032363891602
1759424281377515300,1.175515380859375,-0.1604115068912506,-5.377676486968994,5.485415458679199
1759424281387515100,1.18551513671875,0.35913026332855225,-6.0504469871521,6.143820762634277
1759424281397515300,1.195515380859375,1.2856862545013428,-6.411971569061279,7.525275230407715
1759424281407515100,1.20551513671875,1.8124107122421265,-6.230011940002441,8.873210906982422
1759424281417515300,1.215515380859375,1.9536685943603516,-5.918766021728516,9.526827812194824
1759424281427515100,1.22551513671875,2.049436569213867,-5.1238908767700195,10.616189956665039
1759424281437515300,1.235515380859375,2.166752576828003,-4.206612586975098,11.224316596984863
1759424281447514600,1.2455146484375,2.492363929748535,-3.4117374420166016,12.316072463989258
1759424281457514500,1.255514404296875,2.851494312286377,-3.404554843902588,13.965678215026855
1759424281467514600,1.2655146484375,3.1004912853240967,-3.7253777980804443,15.220539093017578
1759424281477514800,1.2755146484375,4.05817174911499,-3.3423056602478027,16.26919937133789
1759424281487515100,1.28551513671875,4.252102375030518,-3.335123062133789,16.848596572875977
1759424281497515300,1.295515380859375,2.233790159225464,-4.304774761199951,15.75205135345459
1759424281507515100,1.30551513671875,0.0694318488240242,-4.2951979637146,12.9649019241333
1759424281517515500,1.315515625,-2.011129379272461,-3.181894063949585,9.605836868286133
1759424281527515600,1.325515625,-3.529053211212158,-3.0190882682800293,6.625055313110352
1759424281537515800,1.335515869140625,-1.9967641830444336,-3.0789434909820557,5.210082054138184
1759424281547515600,1.345515625,0.9385270476341248,-4.127603530883789,6.534075736999512
1759424281557515300,1.355515380859375,2.8419175148010254,-5.114314079284668,8.183680534362793
1759424281567515400,1.365515380859375,2.652775526046753,-5.729623794555664,8.810961723327637
1759424281577515300,1.375515380859375,2.1739351749420166,-5.56442403793335,9.876380920410156
1759424281587515400,1.385515380859375,1.3431471586227417,-5.7631425857543945,10.86758041381836
1759424281597515300,1.395515380859375,-0.028730420395731926,-5.95946741104126,12.091017723083496
1759424281607515400,1.405515380859375,2.5977089405059814,-4.843470096588135,11.403882026672363
1759424281617515300,1.415515380859375,2.9281086921691895,-3.1675288677215576,8.782231330871582
1759424281627515400,1.425515380859375,1.192312479019165,-2.535459518432617,6.622661113739014
1759424281637515300,1.435515380859375,2.717418909072876,-2.118868589401245,6.605901718139648
1759424281647515600,1.445515625,2.868253707885742,-1.6639702320098877,6.00495719909668
1759424281657515500,1.455515625,2.477998733520508,-1.577778935432434,5.743988990783691
1759424281667515600,1.465515625,2.6599581241607666,-1.4221558570861816,5.892429828643799
1759424281677515500,1.475515625,2.5306711196899414,-1.256955862045288,5.633855819702148
1759424281687515600,1.485515625,3.2369606494903564,-0.8475474119186401,4.8937482833862305
1759424281697515500,1.495515625,2.935291290283203,-1.0965443849563599,3.603273630142212
1759424281707515600,1.505515625,1.4101848602294922,-1.7381904125213623,1.7286136150360107
1759424281717515500,1.515515625,1.8602946996688843,-0.6248866319656372,1.0103530883789062
1759424281727515600,1.525515625,1.1013327836990356,1.2473790645599365,0.5386953949928284
1759424281737515500,1.535515625,-0.27054479718208313,0.1628057211637497,1.192312479019165
1759424281747515600,1.545515625,-1.2617442607879639,-1.3024457693099976,2.715024709701538
1759424281757515500,1.555515625,-1.2401964664459229,-2.3032219409942627,4.8722004890441895
1759424281767515600,1.565515625,-1.2401964664459229,-2.4205379486083984,6.704063892364502
1759424281777515800,1.575515869140625,-1.8914192914962769,-2.918531894683838,9.754277229309082
1759424281787515600,1.585515625,-2.3127987384796143,-1.2306196689605713,8.83250904083252
1759424281797515800,1.595515869140625,-1.9967641830444336,0.05985504388809204,6.459855556488037
1759424281807515600,1.605515625,-0.8619126081466675,-1.9057846069335938,4.795586109161377
1759424281817515800,1.615515869140625,0.44771572947502136,-4.364629745483398,6.00495719909668
1759424281827515600,1.625515625,0.014365210197865963,-5.961861610412598,7.077559471130371
1759424281837515500,1.635515625,0.8451532125473022,-6.49098014831543,8.743924140930176
1759424281847515600,1.645515625,0.35434186458587646,-6.371270179748535,10.673650741577148
1759424281857516000,1.65551611328125,-1.8914192914962769,-6.766313076019287,11.396698951721191
1759424281867516000,1.665515869140625,-2.0446481704711914,-5.530905246734619,12.486061096191406
1759424281877516000,1.67551611328125,-2.693476915359497,-5.272331237792969,13.491625785827637
1759424281887516000,1.685515869140625,-3.5936968326568604,-6.486191749572754,14.15481948852539
1759424281897516000,1.69551611328125,-3.509899616241455,-7.668927192687988,14.231433868408203
1759424281907516000,1.705515869140625,-3.1507694721221924,-8.55717658996582,14.399027824401855
1759424281917516000,1.71551611328125,-1.534683346748352,-9.313743591308594,14.530709266662598
1759424281927516000,1.725515869140625,-0.38067805767059326,-9.007286071777344,15.14153003692627
1759424281937516000,1.73551611328125,0.33279404044151306,-8.631396293640137,15.258846282958984
1759424281947516200,1.74551611328125,0.871489405632019,-8.186075210571289,15.254057884216309
1759424281957516000,1.75551611328125,0.5650315880775452,-7.563582420349121,15.304335594177246
1759424281967516200,1.76551611328125,0.019153613597154617,-7.0224928855896,15.184625625610352
1759424281977516000,1.77551611328125,0.0933738648891449,-6.512527942657471,14.308048248291016
1759424281987516200,1.78551611328125,-0.7230489253997803,-5.873276233673096,13.245022773742676
1759424281997516000,1.79551611328125,-0.47644615173339844,-4.8722004890441895,12.318467140197754
1759424282007516200,1.80551611328125,-0.4596867263317108,-5.11191987991333,11.35120964050293
1759424282017516000,1.81551611328125,-0.12210428714752197,-4.199429988861084,10.297760963439941
1759424282027516200,1.82551611328125,0.31842881441116333,-3.1316158771514893,10.767024040222168
1759424282037516000,1.83551611328125,1.6160861253738403,-3.7277719974517822,12.744634628295898
1759424282047516200,1.84551611328125,-1.3838485479354858,-8.83250904083252,11.863568305969238
1759424282057516000,1.85551611328125,3.8498764038085938,-5.7415947914123535,12.387898445129395
1759424282067516200,1.86551611328125,4.58968448638916,-2.0015525817871094,11.739069938659668
1759424282077516000,1.87551611328125,2.9161376953125,-1.3694833517074585,14.252982139587402
1759424282087516200,1.88551611328125,-0.2513911724090576,-5.485415458679199,14.715362548828125
1759424282097516000,1.89551611328125,4.577713489532471,-5.832574844360352,13.766959190368652
1759424282107516200,1.90551611328125,7.573159217834473,-2.3798365592956543,12.715904235839844
1759424282117516000,1.91551611328125,-0.3926490843296051,-9.883563995361328,9.65372085571289
1759424282127516200,1.92551611328125,7.601889610290527,-5.751171588897705,3.8570590019226074
1759424282137516000,1.93551611328125,0.7852981686592102,-1.900996208190918,-0.2968810200691223
1759424282147516200,1.94551611328125,-0.4644751250743866,-0.37828385829925537,2.715024709701538
1759424282157516000,1.95551611328125,3.7158010005950928,-1.6879122257232666,6.213252544403076
1759424282167516200,1.96551611328125,0.7110779285430908,-5.267542839050293,9.313743591308594
1759424282177516000,1.97551611328125,2.233790159225464,-4.120420932769775,11.324872970581055
1759424282187516200,1.98551611328125,3.157952070236206,-1.699883222579956,9.115025520324707
1759424282197516000,1.99551611328125,2.2888567447662354,-0.4405331015586853,6.917148113250732
1759424282207516200,2.00551611328125,2.5929205417633057,-1.5203180313110352,6.359299182891846
1759424282217516000,2.01551611328125,3.6822822093963623,-3.047818660736084,7.029675483703613
1759424282227516200,2.02551611328125,0.9241618514060974,-2.6623523235321045,2.051830768585205
1759424282237516000,2.03551611328125,-2.142810583114624,-0.8667010068893433,0.26096799969673157
1759424282247516200,2.04551611328125,-0.8762778043746948,-1.6927006244659424,0.7709329724311829
1759424282257516000,2.05551611328125,1.6855180263519287,-2.2002713680267334,0.706289529800415
1759424282267516200,2.06551611328125,2.717418909072876,-1.5490485429763794,0.6751648783683777
1759424282277516000,2.07551611328125,1.7812861204147339,-1.4245500564575195,2.2697031497955322
1759424282287516200,2.08551611328125,0.6871358752250671,-0.5985504388809204,3.60566782951355
1759424282297516000,2.09551611328125,-0.45010992884635925,-0.6057330369949341,4.027047157287598
1759424282307516200,2.10551611328125,-0.1364694982767105,-0.4572925269603729,3.6798880100250244
1759424282317516000,2.11551611328125,0.8451532125473022,-0.5363011956214905,3.1699230670928955
1759424282327516200,2.12551611328125,1.2545616626739502,-1.5394717454910278,3.627215623855591
1759424282337516000,2.13551611328125,1.98958158493042,-3.378218650817871,5.222053050994873
1759424282347516200,2.14551611328125,3.6559460163116455,-3.6320040225982666,7.4893622398376465
1759424282357516000,2.15551611328125,3.8594532012939453,-3.7876269817352295,11.118971824645996
1759424282367516200,2.16551611328125,3.098097085952759,-4.259284973144531,12.349591255187988
1759424282377516000,2.17551611328125,2.6791117191314697,-4.19224739074707,11.480496406555176
1759424282387516200,2.18551611328125,1.6543933153152466,-3.514688014984131,10.427047729492188
1759424282397516000,2.19551611328125,-0.3280056416988373,-2.6024973392486572,9.950601577758789
1759424282407516200,2.20551611328125,0.7015010714530945,-3.8139634132385254,10.336068153381348
1759424282417516000,2.21551611328125,2.3295583724975586,-5.650615215301514,10.972926139831543
1759424282427516200,2.22551611328125,2.6144683361053467,-6.155791759490967,11.085453033447266
1759424282437516000,2.23551611328125,2.403778553009033,-6.409577369689941,10.44620132446289
1759424282447516200,2.24551611328125,1.7621324062347412,-9.538799285888672,11.739069938659668
1759424282457516000,2.25551611328125,2.056619167327881,-7.905953407287598,10.209175109863281
1759424282467516200,2.26551611328125,2.0901381969451904,-7.209240436553955,10.575488090515137
1759424282477516000,2.27551611328125,1.0103530883789062,-7.185298442840576,10.699986457824707
1759424282487516200,2.28551611328125,0.19153612852096558,-7.436689853668213,10.697592735290527
1759424282497516000,2.29551611328125,-1.6184803247451782,-8.04002857208252,11.276988983154297
1759424282507516200,2.30551611328125,-1.9512743949890137,-7.202057838439941,10.805331230163574
1759424282517516000,2.31551611328125,-0.6272808313369751,-5.777507781982422,9.141361236572266
1759424282527516200,2.32551611328125,2.911349296569824,-7.410353660583496,8.308178901672363
1759424282537516000,2.33551611328125,4.89644193649292,-8.571541786193848,7.54203462600708
1759424282547516200,2.34551611328125,4.0964789390563965,-8.059182167053223,7.324162483215332
1759424282557516000,2.35551611328125,2.9879636764526367,-8.16213321685791,7.053617477416992
1759424282567516200,2.36551611328125,1.7070658206939697,-7.84609842300415,7.154173851013184
1759424282577516000,2.37551611328125,-0.3711012601852417,-7.980173587799072,8.154950141906738
1759424282587516000,2.385515869140625,-0.9097966551780701,-7.278672218322754,8.16452693939209
1759424282597516000,2.39551611328125,-0.3232172429561615,-5.748777389526367,9.431059837341309
1759424282607516000,2.405515869140625,-0.8475474119186401,-5.557241439819336,10.285789489746094
1759424282617516000,2.41551611328125,0.07422025501728058,-5.317821025848389,11.32726764678955
1759424282627516000,2.425515869140625,0.9959878921508789,-4.0533833503723145,10.297760963439941
1759424282637516000,2.43551611328125,1.216254472732544,-4.797980308532715,7.771877765655518
1759424282647516000,2.445515869140625,2.1978771686553955,-5.056853294372559,6.833351135253906
1759424282657516000,2.45551611328125,2.0829553604125977,-3.620033025741577,5.679345607757568
1759424282667516000,2.465515869140625,2.006340980529785,-3.050212860107422,5.957073211669922
1759424282677516000,2.47551611328125,1.623268723487854,-2.190694570541382,6.335357189178467
1759424282687516000,2.485515869140625,-0.10055647045373917,-2.913743495941162,6.615478515625
1759424282697516000,2.49551611328125,-0.2322375625371933,-3.4524388313293457,6.890811920166016
1759424282707516000,2.505515869140625,-0.4189853072166443,-4.474762916564941,6.562806129455566
1759424282717516000,2.51551611328125,0.4141969084739685,-4.527435302734375,6.105513572692871
1759424282727516000,2.525515869140625,0.5051765441894531,-4.728548526763916,6.325780391693115
1759424282737516000,2.53551611328125,0.6057330369949341,-4.285621166229248,6.701669692993164
1759424282747516000,2.545515869140625,0.45250412821769714,-4.651933670043945,8.190863609313965
1759424282757516000,2.55551611328125,0.6153098344802856,-5.286696434020996,7.592312812805176
1759424282767516000,2.565515869140625,2.013523578643799,-5.892429828643799,7.015310287475586
1759424282777516000,2.57551611328125,3.3877954483032227,-8.011298179626465,6.974608898162842
1759424282787516200,2.58551611328125,6.194098949432373,-11.367968559265137,5.085583686828613
1759424282797516000,2.59551611328125,5.087977886199951,-12.4262056350708,4.850652694702148
1759424282807516200,2.60551611328125,2.3127987384796143,-10.77660083770752,4.101267337799072
1759424282817516000,2.61551611328125,1.2449848651885986,-7.348104476928711,4.278438568115234
1759424282827516000,2.625515869140625,0.9409212470054626,-7.8221564292907715,4.3191399574279785
1759424282837516000,2.63551611328125,0.9911994934082031,-9.52922248840332,4.821922302246094
1759424282847516000,2.645515869140625,-0.5027823448181152,-9.055170059204102,4.97545051574707
1759424282857516000,2.65551611328125,-1.7405846118927002,-6.136638164520264,5.511751651763916
1759424282867516000,2.665515869140625,-0.7829039692878723,-7.6856865882873535,5.933131217956543
1759424282877516000,2.67551611328125,0.5363011956214905,-9.522039413452148,5.791872978210449
1759424282887516200,2.68551611328125,2.1140801906585693,-10.012850761413574,5.923554420471191
1759424282897516000,2.69551611328125,2.360682964324951,-8.978555679321289,6.098330974578857
1759424282927776800,2.72577685546875,-1.3694833517074585,-5.313032627105713,6.139032363891602
1759424282937776600,2.735776611328125,-1.6136919260025024,-3.9456443786621094,5.969044208526611
1759424282947776800,2.74577685546875,-0.27054479718208313,-4.23773717880249,6.3425397872924805
1759424282957776600,2.755776611328125,0.6991068720817566,-4.489128112792969,6.131849765777588
1759424282967776800,2.76577685546875,0.9457096457481384,-4.486733913421631,5.090372085571289
1759424282977776600,2.775776611328125,0.4189853072166443,-4.505887508392334,4.383783340454102
1759424282987776800,2.78577685546875,-1.2832920551300049,-8.384793281555176,3.2297780513763428
1759424282997776600,2.795776611328125,3.2848446369171143,-10.161291122436523,2.3247697353363037
1759424283007776800,2.80577685546875,-0.19153612852096558,-11.355998039245605,2.513911724090576
1759424283017776600,2.815776611328125,0.5554547905921936,-11.925817489624023,3.1747114658355713
1759424283027776800,2.82577685546875,0.009576806798577309,-11.703157424926758,3.7014358043670654
1759424283037776600,2.835776611328125,0.22266076505184174,-10.975319862365723,3.931279182434082
1759424283047776800,2.84577685546875,0.31842881441116333,-10.343250274658203,3.993528366088867
1759424283057776600,2.855776611328125,0.507570743560791,-9.416694641113281,3.8498764038085938
1759424283067776800,2.86577685546875,0.6009446382522583,-8.32254409790039,3.794809579849243
1759424283077776600,2.875776611328125,0.545877993106842,-7.781454563140869,3.9432501792907715
1759424283087776800,2.88577685546875,0.3423708379268646,-7.582736015319824,4.438849925994873
1759424283097776600,2.895776611328125,0.6200982332229614,-7.439084053039551,4.666299343109131
1759424283107776800,2.90577685546875,-0.27054479718208313,-7.874828815460205,4.850652694702148
1759424283117776600,2.915776611328125,-0.5554547905921936,-8.65054988861084,5.607519626617432
1759424283127776800,2.92577685546875,0.19871874153614044,-8.861239433288574,5.961861610412598
1759424283137776600,2.935776611328125,3.2609026432037354,-7.343316078186035,5.5021748542785645
1759424283147776800,2.94577685546875,1.8770540952682495,-6.44549036026001,4.343081951141357
1759424283157776600,2.955776611328125,-4.620809078216553,-7.654561996459961,3.550601005554199
1759424283167776800,2.96577685546875,-1.8986018896102905,-7.020098686218262,3.6511576175689697
1759424283177776600,2.975776611328125,0.24420857429504395,-6.598719120025635,3.31118106842041
1759424283187776800,2.98577685546875,0.2968810200691223,-6.297049522399902,2.832340717315674
1759424283197776600,2.995776611328125,0.42856210470199585,-6.22043514251709,2.518700122833252
1759424283207776800,3.00577685546875,0.6177040338516235,-6.416759967803955,2.3127987384796143
1759424283217776600,3.015776611328125,0.7709329724311829,-6.696881294250488,2.0470423698425293
1759424283227776800,3.02577685546875,0.7996633648872375,-6.732794284820557,1.7477672100067139
1759424283237776600,3.035776611328125,0.8379706144332886,-6.502951145172119,1.414973258972168
1759424283247776800,3.04577685546875,0.8978256583213806,-6.1414265632629395,1.05105459690094
1759424283257776600,3.055776611328125,1.0007762908935547,-6.366481781005859,0.9265560507774353
1759424283267776800,3.06577685546875,0.524330198764801,-6.830956935882568,0.8451532125473022
1759424283277776600,3.075776611328125,0.7422025203704834,-6.897994518280029,0.6009446382522583
1759424283287776800,3.08577685546875,1.158793568611145,-6.912359714508057,0.4165911078453064
1759424283297776600,3.095776611328125,0.6823474764823914,-6.816591739654541,0.40701428055763245
1759424283307776800,3.10577685546875,1.6831238269805908,-10.93461799621582,1.4101848602294922
1759424283317776600,3.115776611328125,2.274491548538208,-26.47358512878418,3.3877954483032227
1759424283327776800,3.12577685546875,0.9433154463768005,-33.036094665527344,3.445256233215332
1759424283337776600,3.135776611328125,0.5889736413955688,-26.971580505371094,2.9664158821105957
1759424283347776800,3.14577685546875,0.7206547260284424,-17.315465927124023,1.6041151285171509
1759424283357776600,3.155776611328125,0.4644751250743866,-12.399869918823242,1.0773907899856567
1759424283367776800,3.16577685546875,0.35673606395721436,-10.156502723693848,1.0295066833496094
1759424283377776600,3.175776611328125,0.06224924325942993,-9.47654914855957,1.0893617868423462
1759424283387776800,3.18577685546875,-1.1683704853057861,-9.237129211425781,0.6967126727104187
1759424283397776600,3.195776611328125,-1.8986018896102905,-8.638579368591309,-0.1173158809542656
1759424283407776800,3.20577685546875,-1.9297266006469727,-8.353669166564941,-0.8475474119186401
1759424283417776600,3.215776611328125,-1.1492167711257935,-8.798990249633789,-1.4844050407409668
1759424283427776800,3.22577685546875,-0.8044517636299133,-9.617807388305664,-1.9153614044189453
1759424283437776600,3.235776611328125,-0.16998831927776337,-10.0487642288208,-2.0015525817871094
1759424283447776800,3.24577685546875,0.05985504388809204,-10.295366287231445,-1.9369091987609863
1759424283457776600,3.255776611328125,0.13407529890537262,-10.699986457824707,-1.9129672050476074
1759424283467776800,3.26577685546875,0.2059013396501541,-10.83166790008545,-1.8818424940109253
1759424283477776600,3.275776611328125,0.272938996553421,-10.659285545349121,-1.8339585065841675
1759424283487776800,3.28577685546875,0.10295066982507706,-10.764630317687988,-2.0231003761291504
1759424283497776600,3.295776611328125,0.1867477297782898,-11.502044677734375,-2.207453966140747
1759424283507776800,3.30577685546875,0.2968810200691223,-10.47253704071045,-1.5083470344543457
1759424283517776600,3.315776611328125,0.38307225704193115,-9.280224800109863,-1.2090718746185303
1759424283527776800,3.32577685546875,0.6153098344802856,-8.983344078063965,-0.9840168952941895
1759424283537776600,3.335776611328125,0.1173158809542656,-8.928277015686035,-0.6871358752250671
1759424283547776800,3.34577685546875,-0.304063618183136,-9.052776336669922,-0.5027823448181152
1759424283557776600,3.355776611328125,-0.6224924325942993,-9.095871925354004,-0.4692635238170624
1759424283567776800,3.36577685546875,-0.7422025203704834,-9.241917610168457,-0.43335050344467163
1759424283577776600,3.375776611328125,-0.727837324142456,-9.452607154846191,-0.4620809257030487
1759424283587776800,3.38577685546875,-0.6200982332229614,-9.692028045654297,-0.28730419278144836
1759424283597776600,3.395776611328125,-0.5003881454467773,-9.67766284942627,-0.40462008118629456
1759424283607776800,3.40577685546875,-0.26336219906806946,-9.541193008422852,-0.8619126081466675
1759424283617776600,3.415776611328125,-0.033518824726343155,-9.395146369934082,-1.0893617868423462
1759424283627776800,3.42577685546875,0.15801730751991272,-9.3735990524292,-1.1300631761550903
1759424283637776600,3.435776611328125,0.26815059781074524,-9.495702743530273,-1.0462661981582642
1759424283647776800,3.44577685546875,0.2298433631658554,-9.584288597106934,-0.9169792532920837
1759424283657776600,3.455776611328125,0.10055647045373917,-9.605836868286133,-0.7876923680305481
1759424283667776800,3.46577685546875,-0.2082955539226532,-9.58907699584961,-0.811634361743927
1759424283677776600,3.475776611328125,-0.5363011956214905,-9.675268173217773,-0.7637503147125244
1759424283687776800,3.48577685546875,-0.8523358106613159,-9.948206901550293,-0.6224924325942993
1759424283697776600,3.495776611328125,-0.9696516990661621,-10.257059097290039,-0.5267243981361389
1759424283707776800,3.50577685546875,-0.9050082564353943,-10.467748641967773,-0.45489832758903503
1759424283717776600,3.515776611328125,-0.8571242094039917,-10.577882766723633,-0.4405331015586853
1759424283727776800,3.52577685546875,-0.9313444495201111,-10.635343551635742,-0.5386953949928284
1759424283737776600,3.535776611328125,-1.0342950820922852,-10.793360710144043,-0.6512228846549988
1759424283747776800,3.54577685546875,-1.1061211824417114,-11.154885292053223,-0.7805097699165344
1759424283757776600,3.555776611328125,-1.1420341730117798,-11.765406608581543,-0.8140285611152649
1759424283767776800,3.56577685546875,-1.1180921792984009,-12.2897367477417,-0.7445967197418213
1759424283777776600,3.575776611328125,-1.2521674633026123,-12.847585678100586,-0.7613561153411865
1759424283787776800,3.58577685546875,-1.161187767982483,-13.400646209716797,-0.5386953949928284
1759424283797776600,3.595776611328125,-0.44532153010368347,-13.889062881469727,-0.5386953949928284
1759424283807776800,3.60577685546875,-0.4429273009300232,-14.013562202453613,-0.7924807667732239
1759424283817776600,3.615776611328125,-0.811634361743927,-13.9369478225708,-1.173158884048462
1759424283827776800,3.62577685546875,-1.1516109704971313,-13.503597259521484,-1.7525556087493896
1759424283837776600,3.635776611328125,-1.9249382019042969,-12.960113525390625,-2.801215887069702
1759424283847776800,3.64577685546875,-2.5785553455352783,-12.435782432556152,-3.7684733867645264
1759424283857776600,3.655776611328125,-3.35667085647583,-12.907440185546875,-4.338293552398682
1759424283867776800,3.66577685546875,-3.7660791873931885,-13.833996772766113,-3.5889084339141846
1759424283877776600,3.675776611328125,-3.2752678394317627,-13.546692848205566,-1.8770540952682495
1759424283887776800,3.68577685546875,-1.9536685943603516,-12.72069263458252,-0.3016694188117981
1759424283897776600,3.695776611328125,-0.6200982332229614,-11.739069938659668,0.2322375625371933
1759424283907776800,3.70577685546875,0.2106897532939911,-11.810895919799805,-0.2106897532939911
1759424283917776600,3.715776611328125,0.8044517636299133,-11.90427017211914,-1.6089035272598267
1759424283927776800,3.72577685546875,1.4772224426269531,-11.085453033447266,-3.1076738834381104
1759424283937776600,3.735776611328125,1.9943699836730957,-10.024822235107422,-4.833893299102783
1759424283947776800,3.74577685546875,1.9512743949890137,-9.435848236083984,-6.596324920654297
1759424283957776600,3.755776611328125,1.4197616577148438,-8.978555679321289,-8.336909294128418
1759424283967776800,3.76577685546875,0.06224924325942993,-8.607454299926758,-8.791808128356934
1759424283977776600,3.775776611328125,-2.9257144927978516,-8.600272178649902,-6.969820499420166
1759424283987776800,3.78577685546875,-4.486733913421631,-8.353669166564941,-5.430348873138428
1759424283997776600,3.795776611328125,-5.7631425857543945,-8.21959400177002,-3.7636849880218506
1759424284007776800,3.80577685546875,-6.4502787590026855,-8.935460090637207,-2.3295583724975586
1759424284017776600,3.815776611328125,-4.786009311676025,-10.091859817504883,-1.05105459690094
1759424284027776800,3.82577685546875,-3.2752678394317627,-11.367968559265137,0.33279404044151306
1759424284037776600,3.835776611328125,-3.19865345954895,-11.911452293395996,1.3766659498214722
1759424284047776800,3.84577685546875,-2.205059766769409,-12.409446716308594,2.027888774871826
1759424284057776600,3.855776611328125,0.23702596127986908,-13.134889602661133,1.6496049165725708
1759424284067776300,3.8657763671875,2.7437551021575928,-12.48127269744873,0.811634361743927
1759424284077776000,3.87577587890625,0.7589619159698486,-11.707945823669434,-1.1204863786697388
1759424284087775700,3.885775634765625,1.0630255937576294,-11.207557678222656,-2.3535003662109375
1759424284097775900,3.89577587890625,-0.20350714027881622,-10.59224796295166,-3.6750996112823486
1759424284107775700,3.905775634765625,-1.3311761617660522,-9.862015724182129,-4.141968727111816
1759424284117776000,3.91577587890625,-1.3862427473068237,-9.433453559875488,-4.02465295791626
1759424284127775700,3.925775634765625,-1.7980455160140991,-9.124602317810059,-3.6128504276275635
1759424284137775900,3.93577587890625,-2.4205379486083984,-8.724770545959473,-3.112462282180786
1759424284147775700,3.945775634765625,-2.7102363109588623,-8.028057098388672,-2.784456491470337
1759424284157776000,3.95577587890625,-2.2457611560821533,-7.144597053527832,-2.9664158821105957
1759424284167775700,3.965775634765625,-1.678335428237915,-6.431125164031982,-2.806004285812378
1759424284177775900,3.97577587890625,-2.9017724990844727,-5.923554420471191,-2.492363929748535
1759424284187775700,3.985775634765625,-4.692635536193848,-5.339369297027588,-2.4803929328918457
1759424284197776000,3.99577587890625,-6.033687591552734,-5.109525680541992,-2.7246015071868896
1759424284207775700,4.005775634765625,-5.8349690437316895,-4.903624534606934,-3.2130186557769775
1759424284217775900,4.01577587890625,-5.047276496887207,-4.661510944366455,-3.6176388263702393
1759424284227775700,4.025775634765625,-4.211400985717773,-4.288015365600586,-3.576937437057495
1759424284237776000,4.03577587890625,-4.084507942199707,-3.8498764038085938,-3.2178070545196533
1759424284247775700,4.045775634765625,-4.666299343109131,-3.7205893993377686,-2.9257144927978516
1759424284257775900,4.05577587890625,-4.692635536193848,-3.667917013168335,-2.741360902786255
1759424284267775700,4.065775634765625,-4.6040496826171875,-3.533841609954834,-2.734178304672241
1759424284277776000,4.07577587890625,-4.455609321594238,-3.5482068061828613,-2.784456491470337
1759424284287776000,4.08577587890625,-4.58968448638916,-3.7708675861358643,-2.738966703414917
1759424284297775900,4.09577587890625,-5.083189487457275,-3.8786067962646484,-2.6647465229034424
1759424284307776000,4.10577587890625,-5.423166275024414,-3.957615375518799,-2.652775526046753
1759424284317776000,4.11577587890625,-5.68892240524292,-3.9695863723754883,-2.6216509342193604
1759424284327775700,4.125775634765625,-5.906795024871826,-4.065354347229004,-2.3702597618103027
1759424284337775900,4.13577587890625,-6.000168800354004,-4.0749311447143555,-2.183511972427368
1759424284347775700,4.145775634765625,-5.825392246246338,-4.039018154144287,-1.920149803161621
1759424284357776000,4.15577587890625,-6.148609161376953,-3.8283286094665527,-1.5825673341751099
1759424284367776300,4.1657763671875,-6.639420509338379,-3.9169139862060547,-1.1971008777618408
1759424284377776600,4.175776611328125,-6.972214698791504,-4.244919776916504,-0.8667010068893433
1759424284387776800,4.18577685546875,-7.235576629638672,-4.747702121734619,-0.8427590131759644
1759424284397776600,4.195776611328125,-7.656956195831299,-5.241206645965576,-0.9959878921508789
1759424284407776800,4.20577685546875,-7.656956195831299,-5.542876243591309,-1.5083470344543457
1759424284417776600,4.215776611328125,-7.628225803375244,-5.710470199584961,-2.161964178085327
1759424284427776800,4.22577685546875,-8.415918350219727,-6.03847599029541,-2.473210334777832
1759424284437776600,4.235776611328125,-10.673650741577148,-6.565200328826904,-2.0853497982025146
1759424284447776800,4.24577685546875,-13.264176368713379,-7.448660850524902,-1.4891934394836426
1759424284457776600,4.255776611328125,-12.591405868530273,-8.552388191223145,-1.6352397203445435
1759424284467776800,4.26577685546875,-7.486968040466309,-8.818143844604492,-3.529053211212158
1759424284477776600,4.275776611328125,-4.199429988861084,-8.652944564819336,-5.289090633392334
1759424284487776800,4.28577685546875,-4.759673118591309,-9.450213432312012,-4.654327869415283
1759424284497776600,4.295776611328125,-8.806173324584961,-10.814908027648926,-1.7262194156646729
1759424284507776800,4.30577685546875,-10.812514305114746,-11.245864868164062,-0.8140285611152649
1759424284517776600,4.315776611328125,-6.900388717651367,-10.680832862854004,-2.166752576828003
1759424284527776800,4.32577685546875,-4.764461517333984,-9.816526412963867,-2.9448680877685547
1759424284537776600,4.335776611328125,-5.5452704429626465,-9.605836868286133,-2.3080103397369385
1759424284547776800,4.34577685546875,-4.901230335235596,-9.431059837341309,-1.8171991109848022
1759424284557776600,4.355776611328125,-3.1675288677215576,-8.875604629516602,-1.6208745241165161
1759424284567776800,4.36577685546875,-2.0638017654418945,-8.279448509216309,-1.8387469053268433
1759424284577776600,4.375776611328125,-2.008735179901123,-7.810185432434082,-2.030282974243164
1759424284587776800,4.38577685546875,-2.7988216876983643,-7.697657585144043,-2.0829553604125977
1759424284597776600,4.395776611328125,-3.7229835987091064,-7.814973831176758,-2.2218191623687744
1759424284607776800,4.40577685546875,-3.8738183975219727,-8.370428085327148,-2.920926094055176
1759424284617776600,4.415776611328125,-3.4117374420166016,-8.64815616607666,-3.641580820083618
1759424284627776800,4.42577685546875,-3.023876667022705,-8.978555679321289,-3.9432501792907715
1759424284637776600,4.435776611328125,-2.4851813316345215,-9.507674217224121,-3.9911341667175293
1759424284647776800,4.44577685546875,-3.0334534645080566,-9.96257209777832,-4.072536945343018
1759424284657776600,4.455776611328125,-3.095702886581421,-10.479720115661621,-3.778050184249878
1759424284667776800,4.46577685546875,-3.603273630142212,-10.802937507629395,-3.509899616241455
1759424284677776600,4.475776611328125,-3.892971992492676,-10.767024040222168,-2.9759926795959473
1759424284687776800,4.48577685546875,-3.442862033843994,-10.518027305603027,-2.298433542251587
1759424284697776600,4.495776611328125,-2.808398485183716,-10.055946350097656,-1.800439715385437
1759424284707776800,4.50577685546875,-2.403778553009033,-9.601048469543457,-1.4628572463989258
1759424284717776600,4.515776611328125,-2.1954829692840576,-9.438241958618164,-1.1563993692398071
1759424284727776800,4.52577685546875,-1.3215993642807007,-9.735123634338379,-0.6991068720817566
1759424284737776600,4.535776611328125,-1.015141487121582,-10.376769065856934,0.047884032130241394
1759424284747776800,4.54577685546875,-1.1085153818130493,-10.939406394958496,0.6488286852836609
1759424284757776600,4.555776611328125,-1.5729905366897583,-10.917859077453613,1.4700398445129395
1759424284767776800,4.56577685546875,-1.9823989868164062,-10.458171844482422,1.944091796875
1759424284777776600,4.575776611328125,-1.8315643072128296,-9.897929191589355,2.1308395862579346
1759424284787776800,4.58577685546875,-2.0207061767578125,-8.928277015686035,1.680729627609253
1759424284797776600,4.595776611328125,-2.054224967956543,-8.583512306213379,1.3000515699386597
1759424284807776800,4.60577685546875,-2.0015525817871094,-8.336909294128418,0.6105214357376099
1759424284817776600,4.615776611328125,-1.3239935636520386,-8.166921615600586,0.5123591423034668
1759424284827776800,4.62577685546875,-1.50355863571167,-7.9969329833984375,-0.016759412363171577
1759424284837776600,4.635776611328125,-2.535459518432617,-7.726387977600098,-0.9768342971801758
1759424284847776800,4.64577685546875,-2.9520506858825684,-7.498939037322998,-1.8770540952682495
1759424284857776600,4.655776611328125,-2.9305028915405273,-7.2212114334106445,-2.6024973392486572
1759424284867776800,4.66577685546875,-2.231395959854126,-7.1805100440979,-2.5115175247192383
1759424284877776600,4.675776611328125,-1.6950948238372803,-7.0895304679870605,-1.9943699836730957
1759424284887776800,4.68577685546875,-1.4987702369689941,-6.907571315765381,-1.6184803247451782
1759424284897776600,4.695776611328125,-1.6304513216018677,-6.682516098022461,-1.3862427473068237
1759424284907776800,4.70577685546875,-1.900996208190918,-6.629843711853027,-1.170764684677124
1759424284917776600,4.715776611328125,-2.1547815799713135,-6.847716331481934,-1.0606313943862915
1759424284927776800,4.72577685546875,-2.166752576828003,-7.1805100440979,-0.7469909191131592
1759424284937776600,4.735776611328125,-2.1811177730560303,-7.719205379486084,-0.4213795065879822
1759424284947776800,4.74577685546875,-2.27209734916687,-8.521263122558594,-0.23702596127986908
1759424284957776600,4.755776611328125,-2.3032219409942627,-9.692028045654297,-0.23702596127986908
1759424284967776800,4.76577685546875,-2.296039342880249,-10.83166790008545,-0.22505496442317963
1759424284977776600,4.775776611328125,-2.0685901641845703,-11.652878761291504,-0.304063618183136
1759424284987776800,4.78577685546875,-1.764526605606079,-12.124536514282227,-0.40701428055763245
1759424284997776600,4.795776611328125,-1.4269442558288574,-12.4262056350708,-0.6009446382522583
1759424285007776800,4.80577685546875,-1.1659762859344482,-12.409446716308594,-0.8164227604866028
1759424285017776600,4.815776611328125,-0.9361328482627869,-12.280159950256348,-1.192312479019165
1759424285027776800,4.82577685546875,-0.7829039692878723,-12.29931354522705,-1.525106430053711
1759424285037776600,4.835776611328125,-0.7158663272857666,-12.744634628295898,-1.9608511924743652
1759424285047776800,4.84577685546875,-0.8595184087753296,-13.283329963684082,-2.3798365592956543
1759424285057776600,4.855776611328125,-1.194706678390503,-13.678373336791992,-2.7772738933563232
1759424285067776800,4.86577685546875,-1.6663644313812256,-13.822025299072266,-3.028665065765381
1759424285077776600,4.875776611328125,-2.0901381969451904,-14.147637367248535,-3.1435868740081787
1759424285087776800,4.88577685546875,-2.389413356781006,-14.659996032714844,-3.201047658920288
1759424285097776600,4.895776611328125,-2.4396915435791016,-14.985906600952148,-3.1651346683502197
1759424285107776800,4.90577685546875,-2.123656988143921,-14.667179107666016,-3.0526070594787598
1759424285117776600,4.915776611328125,-1.7381904125213623,-13.956101417541504,-3.3063924312591553
1759424285127776800,4.92577685546875,-1.4269442558288574,-12.861950874328613,-3.883395195007324
1759424285137776600,4.935776611328125,-1.2545616626739502,-11.810895919799805,-4.733336925506592
1759424285147776800,4.94577685546875,-1.3982137441635132,-11.128548622131348,-5.614702224731445
1759424285157776600,4.955776611328125,-1.8626888990402222,-10.529998779296875,-6.682516098022461
1759424285167776800,4.96577685546875,-2.6815059185028076,-10.058341026306152,-7.412747859954834
1759424285177776600,4.975776611328125,-3.825934410095215,-9.78061294555664,-7.8437042236328125
1759424285187776800,4.98577685546875,-5.1909284591674805,-9.56274127960205,-7.628225803375244
1759424285197776600,4.995776611328125,-6.584353923797607,-9.44303035736084,-6.553229331970215
1759424285207776800,5.00577685546875,-7.745541572570801,-9.821314811706543,-4.702212333679199
1759424285217776600,5.015776611328125,-8.487744331359863,-10.632948875427246,-2.9879636764526367
1759424285227776800,5.02577685546875,-7.889194011688232,-11.14770221710205,-1.235408067703247
1759424285237776600,5.035776611328125,-6.78546667098999,-11.715127944946289,-0.08140286058187485
1759424285247776800,5.04577685546875,-3.8307228088378906,-12.383110046386719,-0.4381389021873474
1759424285257776600,5.055776611328125,-1.3742717504501343,-13.642460823059082,-1.2210428714752197
1759424285267776800,5.06577685546875,1.8315643072128296,-13.604153633117676,-2.801215887069702
1759424285277776600,5.075776611328125,3.9480385780334473,-13.106159210205078,-3.117250680923462
1759424285287776800,5.08577685546875,3.885789394378662,-11.83723258972168,-3.2752678394317627
1759424285297776600,5.095776611328125,2.169146776199341,-10.0487642288208,-3.201047658920288
1759424285307776800,5.10577685546875,0.47405192255973816,-9.055170059204102,-2.873042106628418
1759424285317776600,5.115776611328125,-1.1085153818130493,-8.250718116760254,-2.9041666984558105
1759424285327776800,5.12577685546875,-0.9864110946655273,-7.90355920791626,-3.2082302570343018
1759424285337776600,5.135776611328125,-0.8403648138046265,-7.570765018463135,-3.598485231399536
1759424285347776800,5.14577685546875,-1.2042834758758545,-7.175721645355225,-3.7708675861358643
1759424285357776600,5.155776611328125,-1.4197616577148438,-6.500556945800781,-3.665522813796997
1759424285367776800,5.16577685546875,-0.31603461503982544,-6.704063892364502,-2.9496564865112305
1759424285377776600,5.175776611328125,-0.5889736413955688,-7.020098686218262,-2.1930887699127197
1759424285387776800,5.18577685546875,-2.6671407222747803,-7.549217224121094,-1.1851298809051514
1759424285397776600,5.195776611328125,-4.292803764343262,-8.092700958251953,-0.4908113479614258
1759424285407776800,5.20577685546875,-4.867412090301514,-8.092700958251953,-0.5889736413955688
1759424285417776600,5.215776611328125,-4.793191909790039,-7.824550628662109,-0.9911994934082031
1759424285427776800,5.22577685546875,-4.790797710418701,-6.895600318908691,-1.4077905416488647
1759424285437776600,5.235776611328125,-5.061641693115234,-5.6314616203308105,-1.8770540952682495
1759424285447776800,5.24577685546875,-6.246771335601807,-4.438849925994873,-2.2457611560821533
1759424285457776600,5.255776611328125,-6.0528411865234375,-3.818751811981201,-2.497152328491211
1759424285467776800,5.26577685546875,-4.120420932769775,-3.141192674636841,-2.63362193107605
1759424285477776600,5.275776611328125,-3.514688014984131,-2.784456491470337,-2.5905263423919678
1759424285487776800,5.28577685546875,-2.9496564865112305,-2.4684219360351562,-2.5282769203186035
1759424285497776600,5.295776611328125,-3.5482068061828613,-2.3343467712402344,-2.3080103397369385
1759424285507776800,5.30577685546875,-4.194641590118408,-2.47560453414917,-2.3056161403656006
1759424285517776600,5.315776611328125,-4.106055736541748,-2.7772738933563232,-2.607285737991333
1759424285527776800,5.32577685546875,-3.737348794937134,-3.157952070236206,-3.0765492916107178
1759424285537776600,5.335776611328125,-3.665522813796997,-3.60566782951355,-3.4620156288146973
1759424285547776800,5.34577685546875,-4.120420932769775,-4.091690540313721,-3.7253777980804443
1759424285557776600,5.355776611328125,-5.253177642822266,-4.642356872558594,-3.950432777404785
1759424285567776800,5.36577685546875,-6.218040943145752,-5.133467674255371,-3.9217023849487305
1759424285577776600,5.375776611328125,-7.111078262329102,-5.24838924407959,-3.689464807510376
1759424285587776800,5.38577685546875,-7.75751256942749,-5.114314079284668,-3.2393548488616943
1759424285597776600,5.395776611328125,-7.972990989685059,-4.915595531463623,-2.719813108444214
1759424285607776800,5.40577685546875,-7.606678009033203,-4.7620673179626465,-2.346317768096924
1759424285617776600,5.415776611328125,-6.902782917022705,-4.280832767486572,-2.099714994430542
1759424285627776800,5.42577685546875,-6.239588737487793,-3.8762125968933105,-1.766920804977417
1759424285637776600,5.435776611328125,-6.170156955718994,-3.737348794937134,-1.314416766166687
1759424285647776800,5.44577685546875,-6.917148113250732,-4.158728122711182,-0.5793967843055725
1759424285657776600,5.455776611328125,-7.817368030548096,-4.730942726135254,-0.24899697303771973
1759424285667776800,5.46577685546875,-8.873210906982422,-4.98742151260376,-0.4213795065879822
1759424285677776600,5.475776611328125,-10.067917823791504,-5.250783443450928,-0.7086837291717529
1759424285687776800,5.48577685546875,-12.124536514282227,-5.995380401611328,-0.8020575642585754
1759424285697776600,5.495776611328125,-14.17636775970459,-7.278672218322754,-1.3024457693099976
1759424285707776800,5.50577685546875,-11.066299438476562,-7.877223014831543,-2.87064790725708
1759424285717776600,5.515776611328125,-4.81473970413208,-7.259518623352051,-5.325003623962402
1759424285727776800,5.52577685546875,-3.1244332790374756,-6.567594528198242,-6.230011940002441
1759424285737776600,5.535776611328125,-4.58968448638916,-6.816591739654541,-5.466261863708496
1759424285747777500,5.545777587890625,-9.275436401367188,-7.482179641723633,-3.5027170181274414
1759424285777776600,5.575776611328125,-5.904400825500488,-8.782231330871582,-2.7437551021575928
1759424285807776500,5.605776611328125,-5.827786445617676,-9.969755172729492,-2.734178304672241
1759424285817776600,5.615776611328125,-3.2800562381744385,-9.694421768188477,-2.365471363067627
1759424285827776500,5.625776611328125,-2.03507137298584,-9.024045944213867,-2.056619167327881
1759424285837776600,5.635776611328125,-2.3798365592956543,-8.77265453338623,-1.9057846069335938
1759424285847776500,5.645776611328125,-3.272873640060425,-9.000102996826172,-1.889025092124939
1759424285857776600,5.655776611328125,-3.6367924213409424,-9.337685585021973,-1.9991583824157715
1759424285867776500,5.665776611328125,-3.287238836288452,-9.644144058227539,-2.1116859912872314
1759424285877776600,5.675776611328125,-2.873042106628418,-9.996091842651367,-2.229001760482788
1759424285887776500,5.685776611328125,-2.691082715988159,-10.465354919433594,-2.4875755310058594
1759424285897776600,5.695776611328125,-2.7461493015289307,-10.668862342834473,-2.6360161304473877
1759424285907776500,5.705776611328125,-2.7892448902130127,-10.743082046508789,-2.518700122833252
1759424285917776600,5.715776611328125,-2.9735984802246094,-10.711957931518555,-2.365471363067627
1759424285927776500,5.725776611328125,-3.4835634231567383,-10.532392501831055,-2.097320795059204
1759424285937776600,5.735776611328125,-3.4835634231567383,-10.16368579864502,-1.800439715385437
1759424285947776500,5.745776611328125,-3.2848446369171143,-9.651326179504395,-1.6112977266311646
1759424285957776600,5.755776611328125,-3.1316158771514893,-9.179668426513672,-1.4437036514282227
1759424285967776500,5.765776611328125,-2.8227639198303223,-8.770259857177734,-1.4915876388549805
1759424285977776600,5.775776611328125,-2.2888567447662354,-8.43746566772461,-1.4748282432556152
1759424285987776500,5.785776611328125,-1.5682021379470825,-8.511686325073242,-1.3000515699386597
1759424285997776600,5.795776611328125,-1.278503656387329,-8.751106262207031,-1.0079588890075684
1759424286007776500,5.805776611328125,-1.3048399686813354,-9.091083526611328,-0.7613561153411865
1759424286017776600,5.815776611328125,-1.1468225717544556,-9.773430824279785,-0.2585737705230713
1759424286027776500,5.825776611328125,-0.8044517636299133,-10.216358184814453,0.40222588181495667
1759424286037776600,5.835776611328125,-1.1516109704971313,-10.403105735778809,0.828393816947937
1759424286047775700,5.845775634765625,-1.6711528301239014,-10.187627792358398,0.9385270476341248
1759424286057776600,5.855776611328125,-2.0398597717285156,-9.665691375732422,0.7398083209991455
1759424286067776800,5.86577685546875,-2.1571757793426514,-9.206005096435547,0.5817909836769104
1759424286077776600,5.875776611328125,-2.5067291259765625,-8.425495147705078,0.2322375625371933
1759424286087776800,5.88577685546875,-2.827552318572998,-7.910741806030273,-0.2944868206977844
1759424286097776600,5.895776611328125,-3.2154128551483154,-7.522881031036377,-0.9552865028381348
1759424286107776800,5.90577685546875,-2.6575639247894287,-7.72399377822876,-1.5466543436050415
1759424286117776600,5.915776611328125,-2.451662540435791,-7.9322896003723145,-2.1068975925445557
1759424286127776800,5.92577685546875,-2.4468741416931152,-8.111854553222656,-2.3726539611816406
1759424286137776600,5.935776611328125,-2.516305923461914,-8.214805603027344,-2.31758713722229
1759424286147776800,5.94577685546875,-2.427720546722412,-8.109460830688477,-1.9512743949890137
1759424286157776600,5.955776611328125,-1.8579005002975464,-8.109460830688477,-1.280897855758667
1759424286167776800,5.96577685546875,-1.5849615335464478,-7.9945387840271,-1.015141487121582
1759424286177776600,5.975776611328125,-1.5490485429763794,-7.874828815460205,-0.8690952062606812
1759424286187776800,5.98577685546875,-1.4293384552001953,-7.831733226776123,-0.7996633648872375
1759424286197776600,5.995776611328125,-1.3862427473068237,-7.735964775085449,-0.9026140570640564
1759424286207776800,6.00577685546875,-1.4101848602294922,-7.721599578857422,-1.0534487962722778
1759424286217776600,6.015776611328125,-1.4413094520568848,-7.870040416717529,-1.161187767982483
1759424286227776800,6.02577685546875,-1.2306196689605713,-8.011298179626465,-0.9002198576927185
1759424286237776600,6.035776611328125,-0.993593692779541,-8.478167533874512,-0.6560112833976746
1759424286247776800,6.04577685546875,-0.9026140570640564,-8.945036888122559,-0.4908113479614258
1759424286257776600,6.055776611328125,-0.9696516990661621,-9.311349868774414,-0.5530605912208557
1759424286267776800,6.06577685546875,-1.259350061416626,-9.668086051940918,-0.6607996821403503
1759424286277776600,6.075776611328125,-1.577778935432434,-10.034399032592773,-0.9361328482627869
1759424286287776800,6.08577685546875,-1.7764976024627686,-10.407894134521484,-1.113303780555725
1759424286297776600,6.095776611328125,-1.9297266006469727,-10.886734008789062,-1.2689268589019775
1759424286307776800,6.10577685546875,-2.0015525817871094,-11.458948135375977,-1.0797849893569946
1759424286317776600,6.115776611328125,-2.0925323963165283,-11.825261116027832,-0.6392518281936646
1759424286327776800,6.12577685546875,-2.2242133617401123,-12.19875717163086,-0.4141969084739685
1759424286337776600,6.135776611328125,-2.229001760482788,-12.493244171142578,-0.5099649429321289
1759424286347776800,6.14577685546875,-2.099714994430542,-12.828432083129883,-0.9576807022094727
1759424286357776600,6.155776611328125,-1.7693150043487549,-13.33121395111084,-1.5442601442337036
1759424286367776800,6.16577685546875,-1.381454348564148,-13.678373336791992,-2.0661959648132324
1759424286377776600,6.175776611328125,-1.1204863786697388,-13.836390495300293,-2.6024973392486572
1759424286387776800,6.18577685546875,-1.1013327836990356,-13.944129943847656,-2.983175277709961
1759424286397776600,6.195776611328125,-1.1755530834197998,-14.14284896850586,-3.361459255218506
1759424286407776800,6.20577685546875,-1.4077905416488647,-14.451701164245605,-3.6104562282562256
1759424286417776600,6.215776611328125,-1.644816517829895,-14.789582252502441,-3.603273630142212
1759424286427776800,6.22577685546875,-1.7741034030914307,-14.751275062561035,-3.248931646347046
1759424286437776600,6.235776611328125,-1.6615760326385498,-14.059051513671875,-2.9305028915405273
1759424286447775700,6.245775634765625,-1.4844050407409668,-12.960113525390625,-3.0119056701660156
1759424286457775900,6.25577587890625,-1.0295066833496094,-12.01679801940918,-3.246537446975708
1759424286467775700,6.265775634765625,-0.9265560507774353,-11.16925048828125,-3.6727054119110107
1759424286477776000,6.27577587890625,-1.115697979927063,-10.281001091003418,-4.290409564971924
1759424286487775700,6.285775634765625,-1.647210717201233,-9.771036148071289,-5.207687854766846
1759424286497775900,6.29577587890625,-2.628833532333374,-9.545981407165527,-6.230011940002441
1759424286507775700,6.305775634765625,-3.7158010005950928,-9.502885818481445,-6.993762493133545
1759424286517776000,6.31577587890625,-4.838681697845459,-9.447818756103516,-7.144597053527832
1759424286527775700,6.325775634765625,-6.112696170806885,-9.404723167419434,-6.2946553230285645
1759424286537775900,6.33577587890625,-6.93151330947876,-9.534010887145996,-4.917989730834961
1759424286547775700,6.345775634765625,-6.96503210067749,-9.902717590332031,-3.1723172664642334
1759424286557776000,6.35577587890625,-5.849334239959717,-10.529998779296875,-1.3982137441635132
1759424286567775700,6.365775634765625,-5.600337028503418,-11.78216552734375,-0.3758896589279175
1759424286577775900,6.37577587890625,-4.78122091293335,-12.4262056350708,-0.5219359993934631
1759424286587775700,6.385775634765625,-2.7222073078155518,-12.699145317077637,-0.9816226959228516
1759424286597776000,6.39577587890625,-1.7094600200653076,-12.646472930908203,-1.6663644313812256
1759424286607775700,6.405775634765625,-0.7110779285430908,-12.023980140686035,-1.5490485429763794
1759424286617775900,6.41577587890625,0.4141969084739685,-11.652878761291504,-1.8770540952682495
1759424286627775700,6.425775634765625,0.24660277366638184,-11.11178970336914,-2.0207061767578125
1759424286637776000,6.43577587890625,-0.768538773059845,-10.276212692260742,-1.8052281141281128
1759424286647775700,6.445775634765625,-1.0295066833496094,-9.62259578704834,-2.2840683460235596
1759424286657775900,6.45577587890625,-0.1149216815829277,-8.743924140930176,-3.00711727142334
1759424286667775700,6.465775634765625,1.0678139925003052,-7.795820236206055,-3.8714241981506348
1759424286677776000,6.47577587890625,2.31758713722229,-6.639420509338379,-4.158728122711182
1759424286687775700,6.485775634765625,2.425326347351074,-5.724835395812988,-3.9240965843200684
1759424286697775900,6.49577587890625,0.7541735172271729,-5.119102478027344,-3.2752678394317627
1759424286707775700,6.505775634765625,-1.8938134908676147,-5.420772075653076,-2.537853717803955
1759424286717776000,6.51577587890625,-3.691859006881714,-6.153397560119629,-1.7717092037200928
1759424286727775700,6.525775634765625,-3.950432777404785,-6.933907508850098,-1.4508862495422363
1759424286737775900,6.53577587890625,-4.0294413566589355,-7.249941825866699,-1.4700398445129395
1759424286747776800,6.54577685546875,-5.023334503173828,-7.518092632293701,-1.723825216293335
1759424286757776600,6.555776611328125,-6.732794284820557,-6.435913562774658,-2.0159177780151367
1759424286767776800,6.56577685546875,-9.31853199005127,-5.494992256164551,-1.6615760326385498
1759424286777776600,6.575776611328125,-8.408735275268555,-5.128679275512695,-1.8746598958969116
1759424286787776800,6.58577685546875,-4.807557106018066,-4.367023944854736,-2.492363929748535
1759424286797776600,6.595776611328125,-2.5330653190612793,-3.4955344200134277,-3.1028854846954346
1759424286807776800,6.60577685546875,-1.867477297782898,-2.8347349166870117,-3.2848446369171143
1759424286817776600,6.615776611328125,-2.2361843585968018,-2.451662540435791,-2.896984100341797
1759424286827776800,6.62577685546875,-2.935291290283203,-2.346317768096924,-2.473210334777832
1759424286837776600,6.635776611328125,-3.773261785507202,-2.8203697204589844,-2.425326347351074
1759424286847776800,6.64577685546875,-4.843470096588135,-3.581725835800171,-2.669534921646118
1759424286857776600,6.655776611328125,-5.116708278656006,-4.3191399574279785,-2.8443117141723633
1759424286867776800,6.66577685546875,-4.829104900360107,-4.958691120147705,-2.8562827110290527
1759424286877776600,6.675776611328125,-5.787084579467773,-5.047276496887207,-2.9520506858825684
1759424286887776800,6.68577685546875,-6.708852291107178,-4.525041103363037,-3.1292216777801514
1759424286897776600,6.695776611328125,-7.3576812744140625,-3.8091750144958496,-3.248931646347046
1759424286907776800,6.70577685546875,-7.350498676300049,-2.96162748336792,-3.177105665206909
1759424286917776600,6.715776611328125,-7.249941825866699,-2.760514497756958,-2.8634653091430664
1759424286927776800,6.72577685546875,-7.455843448638916,-2.5905263423919678,-2.432508945465088
1759424286937776600,6.735776611328125,-7.743147373199463,-2.7772738933563232,-1.889025092124939
1759424286947776800,6.74577685546875,-9.361627578735352,-3.3207578659057617,-1.455674648284912
1759424286957776600,6.755776611328125,-11.865962982177734,-4.273650169372559,-0.8834604024887085
1759424286967776800,6.76577685546875,-12.148478507995605,-4.956296920776367,-0.3926490843296051
1759424286977776600,6.775776611328125,-9.009679794311523,-4.627991676330566,-1.2401964664459229
1759424286987776500,6.785776611328125,-6.438307762145996,-3.7493197917938232,-3.6343982219696045
1759424286997776600,6.795776611328125,-5.882853031158447,-4.2544965744018555,-5.119102478027344
1759424287007776500,6.805776611328125,-5.705681800842285,-6.26592493057251,-4.809951305389404
1759424287017776600,6.815776611328125,-8.365639686584473,-9.273042678833008,-3.332728862762451
1759424287027776800,6.82577685546875,-11.985672950744629,-11.396698951721191,-1.9033904075622559
1759424287037776600,6.835776611328125,-8.008903503417969,-12.584223747253418,-2.346317768096924
1759424287047776800,6.84577685546875,-5.406406879425049,-12.768576622009277,-2.8107926845550537
1759424287057776600,6.855776611328125,-4.788403511047363,-12.442965507507324,-2.7533318996429443
1759424287067776800,6.86577685546875,-4.903624534606934,-11.877933502197266,-2.6886885166168213
1759424287077776600,6.875776611328125,-4.084507942199707,-10.654497146606445,-2.1475989818573
1759424287087776500,6.885776611328125,-3.4380736351013184,-9.26107120513916,-1.742978811264038
1759424287097776600,6.895776611328125,-3.2345664501190186,-7.7527241706848145,-1.7477672100067139
1759424287107776500,6.905776611328125,-3.095702886581421,-7.029675483703613,-2.0374655723571777
1759424287117776600,6.915776611328125,-3.485957622528076,-6.816591739654541,-2.2912509441375732
1759424287127776500,6.925776611328125,-3.9624037742614746,-7.036858081817627,-2.585737943649292
1759424287137776600,6.935776611328125,-4.513070106506348,-7.668927192687988,-2.7772738933563232
1759424287147776500,6.945776611328125,-4.170699596405029,-8.312967300415039,-2.978386878967285
1759424287157776600,6.955776611328125,-3.576937437057495,-9.165303230285645,-3.0837318897247314
1759424287167776500,6.965776611328125,-2.7078421115875244,-9.974543571472168,-3.07415509223938
1759424287177776600,6.975776611328125,-2.0374655723571777,-10.869975090026855,-3.1100680828094482
1759424287187776500,6.985776611328125,-2.3295583724975586,-11.305719375610352,-2.8850131034851074
1759424287197816000,6.995816162109375,-2.875436305999756,-11.219528198242188,-2.5498247146606445
1759424287207816200,7.005816162109375,-3.220201253890991,-10.93222427368164,-2.118868589401245
1759424287217816000,7.015816162109375,-2.940079689025879,-10.348038673400879,-1.7549498081207275
1759424287227816200,7.025816162109375,-2.2912509441375732,-9.876380920410156,-1.4628572463989258
1759424287237816000,7.035816162109375,-1.702277421951294,-9.711181640625,-1.280897855758667
1759424287247816200,7.045816162109375,-1.3335703611373901,-9.67766284942627,-1.1875240802764893
1759424287257816000,7.055816162109375,-1.455674648284912,-9.883563995361328,-1.1180921792984009
1759424287267816200,7.065816162109375,-1.5825673341751099,-10.053552627563477,-0.9552865028381348
1759424287277816000,7.075816162109375,-1.889025092124939,-10.261847496032715,-0.5482721924781799
1759424287287816200,7.085816162109375,-1.9393033981323242,-10.367192268371582,-0.12449848651885986
1759424287297816000,7.095816162109375,-1.6735470294952393,-10.264242172241211,0.31364041566848755
1759424287307816200,7.105816162109375,-1.6304513216018677,-9.964966773986816,0.6248866319656372
1759424287317816000,7.115816162109375,-1.6855180263519287,-9.483732223510742,0.5961562395095825
1759424287327816200,7.125816162109375,-1.4987702369689941,-9.16769790649414,0.38067805767059326
1759424287337816000,7.135816162109375,-1.2713210582733154,-8.822932243347168,0.31124621629714966
1759424287347816200,7.145816162109375,-1.400607943534851,-8.317755699157715,-0.002394201699644327
1759424287357816000,7.155816162109375,-1.8531121015548706,-7.898770809173584,-0.5123591423034668
1759424287367816200,7.165816162109375,-2.070984363555908,-7.673715591430664,-0.8403648138046265
1759424287377816000,7.175816162109375,-1.9177556037902832,-7.743147373199463,-1.015141487121582
1759424287387816200,7.185816162109375,-1.8267759084701538,-7.922712802886963,-1.3934253454208374
1759424287397816300,7.19581640625,-1.886630892753601,-7.989750385284424,-1.5682021379470825
1759424287407816200,7.205816162109375,-1.8267759084701538,-8.181286811828613,-1.5514427423477173
1759424287417816300,7.21581640625,-1.9584569931030273,-7.94904899597168,-1.625662922859192
1759424287427816200,7.225816162109375,-2.070984363555908,-7.726387977600098,-1.802833914756775
1759424287437816300,7.23581640625,-2.185906171798706,-7.518092632293701,-1.922544002532959
1759424287447816200,7.245816162109375,-2.363077163696289,-7.187692642211914,-1.9321208000183105
1759424287457816300,7.25581640625,-2.274491548538208,-6.8932061195373535,-1.845929503440857
1759424287467816200,7.265816162109375,-2.0015525817871094,-6.70645809173584,-1.6496049165725708
1759424287477816300,7.27581640625,-1.7477672100067139,-6.605901718139648,-1.2856862545013428
1759424287487816200,7.285816162109375,-1.723825216293335,-6.704063892364502,-1.0749965906143188
1759424287497816000,7.295816162109375,-1.5131354331970215,-7.4223246574401855,-0.7829039692878723
1759424287507816000,7.30581591796875,-1.2210428714752197,-8.145373344421387,-0.569819986820221
1759424287517816000,7.315816162109375,-1.0199298858642578,-8.92109489440918,-0.44532153010368347
1759424287527816000,7.32581591796875,-0.8738836050033569,-9.660902976989746,-0.40701428055763245
1759424287537816000,7.335816162109375,-0.9409212470054626,-10.573094367980957,-0.4812345504760742
1759424287547816000,7.34581591796875,-1.137245774269104,-11.41824722290039,-0.8212111592292786
1759424287557816000,7.355816162109375,-1.460463047027588,-12.165238380432129,-1.3311761617660522
1759424287567816000,7.36581591796875,-1.7884687185287476,-13.012785911560059,-1.534683346748352
1759424287577816000,7.375816162109375,-2.166752576828003,-13.637672424316406,-1.3479355573654175
1759424287587816000,7.38581591796875,-2.5091233253479004,-14.015955924987793,-1.158793568611145
1759424287597816000,7.395816162109375,-2.7533318996429443,-14.135665893554688,-1.2545616626739502
1759424287607816000,7.40581591796875,-3.0526070594787598,-14.454094886779785,-1.5610195398330688
1759424287617816000,7.415816162109375,-3.1507694721221924,-15.000271797180176,-1.900996208190918
1759424287627816000,7.42581591796875,-3.0573954582214355,-15.51502513885498,-2.1930887699127197
1759424287637816000,7.435816162109375,-2.920926094055176,-15.668254852294922,-2.408566951751709
1759424287647816000,7.44581591796875,-2.013523578643799,-15.759234428405762,-2.6886885166168213
1759424287657816000,7.455816162109375,-1.1276689767837524,-15.311518669128418,-2.9544448852539062
1759424287667816000,7.46581591796875,-0.4213795065879822,-14.659996032714844,-3.2297780513763428
1759424287677816000,7.475816162109375,0.11013327538967133,-13.78371810913086,-3.6535518169403076
1759424287687816000,7.48581591796875,0.45250412821769714,-12.818855285644531,-4.127603530883789
1759424287697816000,7.495816162109375,0.5410895943641663,-11.377545356750488,-4.874594688415527
1759424287707816000,7.50581591796875,0.7015010714530945,-10.03918743133545,-5.916371822357178
1759424287717816000,7.515816162109375,-0.45489832758903503,-8.810961723327637,-7.312191486358643
1759424287727816000,7.52581591796875,-2.185906171798706,-8.10706615447998,-7.98256778717041
1759424287737816000,7.535816162109375,-4.027047157287598,-7.786243438720703,-7.877223014831543
1759424287747816000,7.54581591796875,-5.305850028991699,-7.848492622375488,-7.187692642211914
1759424287757816000,7.555816162109375,-6.718429088592529,-8.293813705444336,-6.069600582122803
1759424287767816000,7.56581591796875,-7.750329971313477,-9.026439666748047,-4.726154327392578
1759424287777816000,7.575816162109375,-8.061576843261719,-9.905111312866211,-2.959233283996582
1759424287787816000,7.58581591796875,-7.6856865882873535,-11.298537254333496,-0.5793967843055725
1759424287797816000,7.595816162109375,-6.462249755859375,-12.361562728881836,1.0558429956436157
1759424287807816000,7.60581591796875,-5.006575107574463,-13.096582412719727,0.6919242739677429
1759424287817816000,7.615816162109375,-2.3056161403656006,-13.460501670837402,-0.7805097699165344
1759424287827816000,7.62581591796875,-0.038307227194309235,-13.333608627319336,-1.946485996246338
1759424287837816000,7.635816162109375,2.612074136734009,-13.02236270904541,-1.8148049116134644
1759424287847816000,7.64581591796875,3.4189200401306152,-11.23868179321289,-2.006340980529785
1759424287857816000,7.655816162109375,2.9975404739379883,-10.000880241394043,-2.248155355453491
1759424287867816000,7.66581591796875,1.4532804489135742,-9.021651268005371,-2.829946517944336
1759424287877816000,7.675816162109375,-0.18914192914962769,-8.186075210571289,-3.1651346683502197
1759424287887816000,7.68581591796875,-0.727837324142456,-7.690474987030029,-3.5625722408294678
1759424287897816000,7.695816162109375,-1.5682021379470825,-7.628225803375244,-4.015076160430908
1759424287907816000,7.70581591796875,-1.7884687185287476,-7.494150638580322,-4.101267337799072
1759424287917816000,7.715816162109375,-0.7445967197418213,-7.671321392059326,-4.0964789390563965
1759424287927816000,7.72581591796875,-0.47644615173339844,-7.522881031036377,-4.010287761688232
1759424287937816000,7.735816162109375,-1.161187767982483,-7.577947616577148,-3.667917013168335
1759424287947816000,7.74581591796875,-2.5761611461639404,-7.7072343826293945,-3.1866824626922607
1759424287957816000,7.755816162109375,-3.514688014984131,-7.90355920791626,-2.75812029838562
1759424287967816000,7.76581591796875,-4.048594951629639,-8.142979621887207,-2.4660277366638184
1759424287977816000,7.775816162109375,-4.376600742340088,-8.188468933105469,-2.207453966140747
1759424287987816000,7.78581591796875,-4.594472885131836,-8.035240173339844,-2.0254945755004883
1759424287997816000,7.795816162109375,-4.965873718261719,-7.506121635437012,-2.0829553604125977
1759424288007816000,7.80581591796875,-5.949890613555908,-6.218040943145752,-2.33913516998291
1759424288017816000,7.815816162109375,-6.127061367034912,-4.977844715118408,-2.7006595134735107
1759424288027816000,7.82581591796875,-4.968267917633057,-4.189853191375732,-2.9089550971984863
1759424288037816000,7.835816162109375,-3.3710360527038574,-3.8498764038085938,-2.980781078338623
1759424288047816000,7.84581591796875,-3.043030261993408,-3.552995204925537,-2.8203697204589844
1759424288057816000,7.855816162109375,-2.808398485183716,-3.4189200401306152,-2.367865562438965
1759424288067816000,7.86581591796875,-2.937685489654541,-3.4189200401306152,-1.8698714971542358
1759424288077816000,7.875816162109375,-3.8379054069519043,-3.512293815612793,-1.5131354331970215
1759424288087816000,7.88581591796875,-4.618414878845215,-3.691859006881714,-1.50355863571167
1759424288097816000,7.895816162109375,-4.644751071929932,-4.017470359802246,-1.6160861253738403
1759424288107816000,7.90581591796875,-4.711789131164551,-4.28322696685791,-2.145204782485962
1759424288117816000,7.915816162109375,-4.37420654296875,-4.247313976287842,-2.628833532333374
1759424288127816000,7.92581591796875,-3.801992416381836,-3.9217023849487305,-2.9281086921691895
1759424288137816000,7.935816162109375,-4.039018154144287,-3.5458126068115234,-3.004723072052002
1759424288147816000,7.94581591796875,-4.853046894073486,-3.1866824626922607,-2.9017724990844727
1759424288157816000,7.955816162109375,-5.691316604614258,-2.63362193107605,-2.5546131134033203
1759424288167816000,7.96581591796875,-6.529287338256836,-2.188300371170044,-2.118868589401245
1759424288177816000,7.975816162109375,-7.170933246612549,-2.097320795059204,-1.900996208190918
1759424288187816000,7.98581591796875,-7.613860607147217,-2.319981336593628,-1.8148049116134644
1759424288197816000,7.995816162109375,-7.905953407287598,-2.9664158821105957,-1.9081788063049316
1759424288207816000,8.00581591796875,-8.456619262695312,-3.6990416049957275,-2.0422539710998535
1759424288217816000,8.015816162109376,-9.455001831054688,-4.448426723480225,-2.0374655723571777
1759424288227816000,8.02581591796875,-11.04475212097168,-5.0376996994018555,-1.9776105880737305
1759424288237816000,8.035816162109375,-11.858779907226562,-5.923554420471191,-2.343923568725586
1759424288247816000,8.04581591796875,-8.839692115783691,-7.261912822723389,-3.339911460876465
1759424288257816000,8.055816162109375,-4.527435302734375,-8.044816970825195,-4.505887508392334
1759424288267816000,8.06581591796875,-4.122815132141113,-9.179668426513672,-4.364629745483398
1759424288277816000,8.075816162109374,-9.510068893432617,-10.755053520202637,-1.8602946996688843
1759424288287816000,8.08581591796875,-9.797372817993164,-11.32966136932373,-0.5267243981361389
1759424288297816000,8.095816162109376,-6.476614952087402,-10.417470932006836,-1.4508862495422363
1759424288307816000,8.10581591796875,-6.057629585266113,-9.569923400878906,-2.5115175247192383
1759424288317816000,8.115816162109375,-7.173327445983887,-9.04559326171875,-3.2297780513763428
1759424288327816000,8.12581591796875,-7.692869186401367,-9.06714153289795,-3.6104562282562256
1759424288337816000,8.135816162109375,-7.235576629638672,-9.31613826751709,-3.7708675861358643
1759424288347816000,8.14581591796875,-5.791872978210449,-9.478943824768066,-3.706224203109741
1759424288357816000,8.155816162109375,-4.5154643058776855,-9.344868659973145,-3.5625722408294678
1759424288367816000,8.16581591796875,-3.7014358043670654,-9.126996040344238,-3.181894063949585
1759424288377816000,8.175816162109374,-2.8826189041137695,-8.755894660949707,-2.827552318572998
1759424288387816000,8.18581591796875,-2.75812029838562,-8.444648742675781,-2.456450939178467
1759424288397816000,8.195816162109375,-3.426102638244629,-8.394370079040527,-2.4420857429504395
1759424288407816000,8.20581591796875,-3.804386615753174,-8.482955932617188,-2.540247917175293
1759424288417816000,8.215816162109375,-3.8115692138671875,-8.715193748474121,-2.7461493015289307
1759424288427816000,8.22581591796875,-3.3016040325164795,-8.973767280578613,-2.8634653091430664
1759424288437816000,8.235816162109375,-2.3343467712402344,-9.25867748260498,-2.9975404739379883
1759424288447816000,8.24581591796875,-1.2473790645599365,-9.883563995361328,-3.026270866394043
1759424288457816000,8.255816162109374,-1.3623007535934448,-10.568305969238281,-2.8131868839263916
1759424288467816000,8.26581591796875,-2.3774423599243164,-10.747870445251465,-2.5737667083740234
1759424288477816000,8.275816162109376,-3.2632968425750732,-10.695198059082031,-2.209848165512085
1759424288487816000,8.28581591796875,-3.6367924213409424,-10.585064888000488,-1.8267759084701538
1759424288497816000,8.295816162109375,-3.5649664402008057,-10.407894134521484,-1.4939818382263184
1759424288507816000,8.30581591796875,-2.920926094055176,-10.436624526977539,-1.2258312702178955
1759424288517816000,8.315816162109375,-2.518700122833252,-10.609006881713867,-1.0438719987869263
1759424288527816000,8.32581591796875,-2.6623523235321045,-11.145308494567871,-0.849941611289978
1759424288537816000,8.335816162109374,-2.3247697353363037,-11.885116577148438,-0.38067805767059326
1759424288547816000,8.34581591796875,-2.011129379272461,-12.294525146484375,0.1628057211637497
1759424288557816000,8.355816162109376,-2.03507137298584,-12.421417236328125,0.9792284965515137
1759424288567816000,8.36581591796875,-1.9153614044189453,-11.861174583435059,1.4221558570861816
1759424288577816000,8.375816162109375,-1.7860745191574097,-11.17164421081543,1.5083470344543457
1759424288587816000,8.38581591796875,-1.7046716213226318,-10.41268253326416,1.381454348564148
1759424288597816000,8.395816162109375,-1.4221558570861816,-9.771036148071289,1.0893617868423462
1759424288607816000,8.40581591796875,-1.3335703611373901,-9.285013198852539,0.7445967197418213
1759424288617816000,8.415816162109374,-1.1085153818130493,-8.88757610321045,0.33518823981285095
1759424288627816000,8.42581591796875,-1.0654197931289673,-8.403946876525879,-0.07182604819536209
1759424288637816000,8.435816162109376,-1.0558429956436157,-8.09509563446045,-0.6799532771110535
1759424288647816000,8.44581591796875,-1.2090718746185303,-7.656956195831299,-1.4724340438842773
1759424288657816000,8.455816162109375,-1.3048399686813354,-7.49654483795166,-2.078166961669922
1759424288667816000,8.46581591796875,-1.625662922859192,-7.474997043609619,-2.7676970958709717
1759424288677816000,8.475816162109375,-1.8555063009262085,-7.779060363769531,-3.1244332790374756
1759424288687816000,8.48581591796875,-2.2361843585968018,-7.9753851890563965,-3.287238836288452
1759424288697816000,8.495816162109374,-2.360682964324951,-7.848492622375488,-3.117250680923462
1759424288707816000,8.50581591796875,-2.099714994430542,-7.568370819091797,-2.580949544906616
1759424288717816000,8.515816162109376,-1.6735470294952393,-7.355287075042725,-1.9967641830444336
1759424288727816000,8.52581591796875,-1.4724340438842773,-6.986579895019531,-1.5969325304031372
1759424288737816000,8.535816162109375,-1.5921441316604614,-6.498162746429443,-1.1994950771331787
1759424288747816000,8.54581591796875,-1.6136919260025024,-6.167762756347656,-0.9624691009521484
1759424288757816000,8.555816162109375,-1.5083470344543457,-5.9881978034973145,-0.7469909191131592
1759424288767816000,8.56581591796875,-1.2425906658172607,-6.040870189666748,-0.4189853072166443
1759424288777816000,8.575816162109374,-0.9385270476341248,-6.2084641456604,-0.19153612852096558
1759424288787816000,8.58581591796875,-0.7422025203704834,-6.47900915145874,-0.26815059781074524
1759424288797816000,8.595816162109376,-0.5578489899635315,-7.161356449127197,-0.44771572947502136
1759424288807816000,8.60581591796875,-0.35434186458587646,-7.807791233062744,-0.569819986820221
1759424288817816000,8.615816162109375,-0.3687070608139038,-8.569147109985352,-0.7589619159698486
1759424288827816000,8.62581591796875,-0.5770025849342346,-9.402329444885254,-0.8978256583213806
1759424288837816000,8.635816162109375,-0.9576807022094727,-9.955389976501465,-1.070208191871643
1759424288847816000,8.64581591796875,-1.436521053314209,-10.491691589355469,-0.9481038451194763
1759424288857816000,8.655816162109375,-1.8842366933822632,-10.853215217590332,-0.49559974670410156
1759424288867816000,8.66581591796875,-2.3535003662109375,-11.063905715942383,-0.2801215946674347
1759424288877816000,8.675816162109374,-2.564189910888672,-11.38472843170166,-0.31364041566848755
1759424288887816000,8.68581591796875,-2.537853717803955,-11.868356704711914,-0.5770025849342346
1759424288897816000,8.695816162109375,-2.343923568725586,-12.435782432556152,-0.9624691009521484
1759424288907816000,8.70581591796875,-2.0805611610412598,-12.838008880615234,-1.3048399686813354
1759424288917816000,8.715816162109375,-1.764526605606079,-13.187561988830566,-1.6376339197158813
1759424288927816000,8.72581591796875,-1.53707754611969,-13.620912551879883,-1.8986018896102905
1759424288937816000,8.735816162109375,-1.0630255937576294,-14.241010665893555,-2.1380221843719482
1759424288947816000,8.74581591796875,-0.629675030708313,-14.614506721496582,-2.341529369354248
1759424288957816000,8.755816162109374,-0.2968810200691223,-14.830284118652344,-2.3511061668395996
1759424288967816000,8.76581591796875,-0.05506663769483566,-14.918869018554688,-2.427720546722412
1759424288977816000,8.775816162109376,-0.07422025501728058,-14.439729690551758,-2.561795711517334
1759424288987816000,8.78581591796875,-0.09576806426048279,-13.611335754394531,-2.8395233154296875
1759424288997816000,8.795816162109375,0.49320554733276367,-12.974478721618652,-3.3016040325164795
1759424289007816000,8.80581591796875,0.6775590777397156,-12.411840438842773,-3.5673606395721436
1759424289017816000,8.815816162109375,0.7493851184844971,-11.233893394470215,-3.840299606323242
1759424289027816000,8.82581591796875,0.7469909191131592,-10.192416191101074,-4.031835556030273
1759424289037816000,8.835816162109374,0.7398083209991455,-9.435848236083984,-4.151545524597168
1759424289047816000,8.84581591796875,0.6200982332229614,-9.000102996826172,-4.3861775398254395
1759424289057816000,8.855816162109376,0.21787235140800476,-9.129390716552734,-4.508281707763672
1759424289067816000,8.86581591796875,-0.5171475410461426,-9.735123634338379,-4.675876140594482
1759424289077816000,8.875816162109375,-1.5825673341751099,-10.398317337036133,-4.73573112487793
1759424289087816000,8.88581591796875,-2.760514497756958,-10.673650741577148,-4.584896087646484
1759424289097816000,8.895816162109375,-3.7469255924224854,-10.654497146606445,-4.477157115936279
1759424289107816000,8.90581591796875,-4.575319290161133,-10.367192268371582,-4.347870349884033
1759424289117816000,8.915816162109374,-4.97545051574707,-9.974543571472168,-4.182670593261719
1759424289127816000,8.92581591796875,-5.0807952880859375,-9.455001831054688,-4.077325344085693
1759424289137816000,8.935816162109376,-4.479551315307617,-9.158121109008789,-3.9911341667175293
1759424289147816000,8.94581591796875,-3.383007049560547,-9.244312286376953,-4.146757125854492
1759424289157816000,8.955816162109375,-2.011129379272461,-9.49809741973877,-4.170699596405029
1759424289167816000,8.96581591796875,-0.4644751250743866,-9.943418502807617,-3.974374771118164
1759424289177816000,8.975816162109375,-0.33997663855552673,-10.606613159179688,-3.6990416049957275
1759424289187816000,8.98581591796875,-0.2513911724090576,-10.814908027648926,-3.8091750144958496
1759424289197816000,8.995816162109374,0.9672574996948242,-10.441412925720215,-4.046200752258301
1759424289207816000,9.00581591796875,1.6855180263519287,-9.900322914123535,-4.228160381317139
1759424289217816000,9.015816162109376,2.0829553604125977,-9.055170059204102,-4.211400985717773
1759424289227816000,9.02581591796875,1.8315643072128296,-8.032846450805664,-4.125209331512451
1759424289237816000,9.035816162109375,1.3838485479354858,-7.40556526184082,-3.9887399673461914
1759424289247816000,9.04581591796875,0.6775590777397156,-7.118260860443115,-3.823540210723877
1759424289257816000,9.055816162109375,-0.38307225704193115,-7.381623268127441,-3.8977603912353516
1759424289267816000,9.06581591796875,-2.341529369354248,-7.539640426635742,-3.912125587463379
1759424289277816000,9.075816162109374,-4.299986362457275,-7.494150638580322,-3.7014358043670654
1759424289287816000,9.08581591796875,-5.008969306945801,-7.419930458068848,-3.4835634231567383
1759424289297816000,9.095816162109376,-4.8482584953308105,-7.151779651641846,-3.40216064453125
1759424289307816000,9.10581591796875,-3.5386300086975098,-7.448660850524902,-2.920926094055176
1759424289317816000,9.115816162109375,-2.719813108444214,-7.527669429779053,-2.6886885166168213
1759424289327816000,9.12581591796875,-2.4420857429504395,-7.659350395202637,-2.27209734916687
1759424289337816000,9.135816162109375,-2.449268341064453,-7.652167797088623,-1.824381709098816
1759424289347816000,9.14581591796875,-2.4205379486083984,-7.5875244140625,-1.742978811264038
1759424289357816000,9.155816162109375,-1.867477297782898,-7.506121635437012,-1.7741034030914307
1759424289367816000,9.16581591796875,-2.0159177780151367,-7.209240436553955,-1.8339585065841675
1759424289377816000,9.175816162109374,-2.499546527862549,-6.608295917510986,-2.1380221843719482
1759424289387816000,9.18581591796875,-2.078166961669922,-6.498162746429443,-2.0829553604125977
1759424289397816000,9.195816162109375,-2.2361843585968018,-6.383241176605225,-2.2864625453948975
1759424289407816000,9.20581591796875,-2.4803929328918457,-6.2276177406311035,-2.5785553455352783
1759424289417816000,9.215816162109375,-2.7964274883270264,-6.067206382751465,-2.8993782997131348
1759424289427816000,9.22581591796875,-2.5737667083740234,-5.837363243103027,-3.220201253890991
1759424289437816000,9.235816162109375,-2.628833532333374,-5.732017993927002,-3.3470940589904785
1759424289447816000,9.24581591796875,-2.801215887069702,-5.6984992027282715,-3.24414324760437
1759424289457816000,9.255816162109374,-3.1268274784088135,-5.535693645477295,-3.002328872680664
1759424289467816000,9.26581591796875,-3.40216064453125,-5.334580898284912,-2.7964274883270264
1759424289477816000,9.275816162109376,-3.737348794937134,-5.116708278656006,-2.7676970958709717
1759424289487816000,9.28581591796875,-3.7876269817352295,-4.977844715118408,-2.9305028915405273
1759424289497816000,9.295816162109375,-3.490746021270752,-4.8267107009887695,-3.378218650817871
1759424289507816000,9.30581591796875,-3.246537446975708,-4.766855716705322,-3.7493197917938232
1759424289517816000,9.315816162109375,-3.071760892868042,-4.934749126434326,-3.8714241981506348
1759424289527816000,9.32581591796875,-3.1100680828094482,-5.166986465454102,-3.8163576126098633
1759424289537816000,9.335816162109374,-3.354276657104492,-5.5883660316467285,-3.600879430770874
1759424289547816000,9.34581591796875,-3.622427225112915,-6.014533996582031,-3.4739866256713867
1759424289557816000,9.355816162109376,-3.847482204437256,-6.574777126312256,-3.069366693496704
1759424289567816000,9.36581591796875,-4.146757125854492,-6.972214698791504,-2.6455929279327393
1759424289577816000,9.375816162109375,-4.357447147369385,-7.309797286987305,-2.190694570541382
1759424289587816000,9.38581591796875,-4.616020679473877,-7.652167797088623,-1.6208745241165161
1759424289597816000,9.395816162109375,-5.188534259796143,-7.961019992828369,-0.993593692779541
1759424289607816000,9.40581591796875,-5.911583423614502,-8.243535995483398,-0.5291185975074768
1759424289617816000,9.415816162109374,-6.7567362785339355,-8.657732963562012,0.014365210197865963
1759424289627816000,9.42581591796875,-7.249941825866699,-9.057564735412598,0.2298433631658554
1759424289637816000,9.435816162109376,-7.582736015319824,-9.490914344787598,0.29209262132644653
1759424289647816000,9.44581591796875,-7.905953407287598,-9.847650527954102,0.26336219906806946
1759424289657816000,9.455816162109375,-8.190863609313965,-10.091859817504883,0.2513911724090576
1759424289667816000,9.46581591796875,-9.04559326171875,-9.792584419250488,-0.3663128614425659
1759424289677816000,9.475816162109375,-7.951443195343018,-9.80455493927002,0.026336219161748886
1759424289687816000,9.48581591796875,-8.233959197998047,-9.636960983276367,0.0071826050989329815
1759424289697816000,9.495816162109374,-8.909123420715332,-9.06714153289795,-0.13407529890537262
1759424289707816000,9.50581591796875,-9.155726432800293,-8.856451034545898,0.05506663769483566
1759424289717816000,9.515816162109376,-9.534010887145996,-8.892364501953125,0.24899697303771973
1759424289727816000,9.52581591796875,-10.374375343322754,-9.143755912780762,0.629675030708313
1759424289737816000,9.535816162109375,-10.32170295715332,-9.244312286376953,1.1300631761550903
1759424289747816000,9.54581591796875,-9.608230590820312,-9.347262382507324,2.118868589401245
1759424289757816000,9.555816162109375,-6.88602352142334,-8.676886558532715,3.1244332790374756
1759424289767816000,9.56581591796875,-1.9105730056762695,-6.526893138885498,2.652775526046753
1759424289777816000,9.575816162109374,0.3902548849582672,-4.627991676330566,0.7805097699165344
1759424289787816000,9.58581591796875,0.7110779285430908,-3.8953661918640137,-2.2026655673980713
1759424289797816000,9.595816162109376,1.0342950820922852,-4.441244125366211,-5.81342077255249
1759424289807816000,9.60581591796875,1.4484920501708984,-6.08396577835083,-9.311349868774414
1759424289817816000,9.615816162109375,-4.699818134307861,-8.229170799255371,-14.696208953857422
1759424289827816000,9.62581591796875,-10.333673477172852,-11.516409873962402,-23.49250602722168
1759424289837816000,9.635816162109375,-7.831733226776123,-13.168408393859863,-19.192520141601562
1759424289847816000,9.64581591796875,-6.53646993637085,-11.820472717285156,-11.233893394470215
1759424289857816000,9.655816162109375,-4.6040496826171875,-10.32170295715332,-4.24970817565918
1759424289867816000,9.66581591796875,-2.5929205417633057,-8.10706615447998,-1.455674648284912
1759424289877816000,9.675816162109374,-0.14604631066322327,-6.6705451011657715,-1.316810965538025
1759424289887816000,9.68581591796875,0.6344634294509888,-7.137414455413818,-2.9496564865112305
1759424289897816000,9.695816162109375,2.3702597618103027,-8.906729698181152,-4.41969633102417
1759424289907816000,9.70581591796875,4.481945514678955,-11.777377128601074,-4.446032524108887
1759424289917816000,9.715816162109375,4.845864295959473,-13.467683792114258,-3.0406360626220703
1759424289927816000,9.72581591796875,4.129997730255127,-14.44691276550293,-1.2880805730819702
1759424289937815800,9.73581591796875,1.7717092037200928,-14.873379707336426,0.7158663272857666
1759424289947816000,9.74581591796875,-0.9074024558067322,-14.600141525268555,2.075772762298584
1759424289957815800,9.75581591796875,-2.580949544906616,-14.023138999938965,2.9712042808532715
1759424289967816000,9.76581591796875,-2.8347349166870117,-13.371915817260742,2.9735984802246094
1759424289977815800,9.77581591796875,-2.1380221843719482,-12.615347862243652,1.9273324012756348
1759424289987816000,9.78581591796875,-0.9145850539207458,-11.98327922821045,0.7374141216278076
1759424289997815800,9.79581591796875,-0.3998316824436188,-11.322479248046875,-0.2753331959247589
1759424290017815800,9.81581591796875,-0.9289502501487732,-9.754277229309082,-2.0159177780151367
1759424290027816000,9.82581591796875,-1.2258312702178955,-8.755894660949707,-3.0573954582214355
1759424290037816000,9.835816162109374,-1.4053963422775269,-7.927501201629639,-4.017470359802246
1759424290047816000,9.84581591796875,-1.45806884765625,-7.307403087615967,-4.264073371887207
1759424290057816000,9.855816162109376,-1.5753847360610962,-6.945878505706787,-4.414907932281494
1759424290067816000,9.86581591796875,-1.6304513216018677,-6.938695907592773,-4.4077253341674805
1759424290077815800,9.87581591796875,-0.7805097699165344,-7.309797286987305,-4.108449935913086
1759424290087816000,9.88581591796875,-0.5003881454467773,-7.384017467498779,-3.892971992492676
1759424290097815800,9.89581591796875,-0.47165772318840027,-7.563582420349121,-3.4093432426452637
1759424290107816000,9.90581591796875,0.14365209639072418,-7.838915824890137,-2.5115175247192383
1759424290117815800,9.91581591796875,0.8451532125473022,-8.121431350708008,-1.8555063009262085
1759424290127816000,9.92581591796875,1.5897499322891235,-8.597877502441406,-1.3623007535934448
1759424290137815800,9.93581591796875,2.1739351749420166,-9.25867748260498,-1.0103530883789062
1759424290147816000,9.94581591796875,2.3774423599243164,-9.610625267028809,-0.993593692779541
1759424290157815800,9.95581591796875,2.212242364883423,-9.80216121673584,-1.1779472827911377
1759424290167816000,9.96581591796875,1.7070658206939697,-9.976937294006348,-1.37906014919281
1759424290177815800,9.97581591796875,1.0127472877502441,-9.897929191589355,-1.5729905366897583
1759424290187816000,9.98581591796875,0.31364041566848755,-9.617807388305664,-1.6280571222305298
1759424290197815800,9.99581591796875,-0.4908113479614258,-9.217975616455078,-1.5107412338256836
1759424290207816000,10.00581591796875,-0.8882488012313843,-9.141361236572266,-1.2856862545013428
1759424290217815800,10.01581591796875,-1.094150185585022,-9.280224800109863,-1.0630255937576294
1759424290227816000,10.02581591796875,-0.9744400978088379,-9.330503463745117,-0.8307880163192749
1759424290237816000,10.035816162109375,-0.608127236366272,-9.481337547302246,-0.6655880808830261
1759424290247816000,10.04581591796875,-0.043095629662275314,-9.596260070800781,-0.5913678407669067
1759424290257816000,10.055816162109375,0.6871358752250671,-9.62020206451416,-0.47644615173339844
1759424290267816000,10.06581591796875,0.9074024558067322,-9.617807388305664,-0.47165772318840027
1759424290277816000,10.075816162109374,0.912190854549408,-9.634567260742188,-0.42616790533065796
1759424290287816000,10.08581591796875,0.8355764150619507,-9.500492095947266,-0.2322375625371933
1759424290297816000,10.095816162109376,0.38067805767059326,-9.488520622253418,-0.1843535304069519
1759424290307816000,10.10581591796875,-0.35434186458587646,-9.538799285888672,-0.2753331959247589
1759424290317816000,10.115816162109375,-0.9026140570640564,-9.675268173217773,-0.507570743560791
1759424290327816000,10.12581591796875,-1.278503656387329,-9.98412036895752,-0.7254431247711182
1759424290337816000,10.135816162109375,-1.3239935636520386,-10.35522174835205,-0.849941611289978
1759424290347816000,10.14581591796875,-1.3239935636520386,-10.494085311889648,-0.811634361743927
1759424290357816000,10.155816162109375,-1.3407529592514038,-10.450989723205566,-0.6631938815116882
1759424290367816000,10.16581591796875,-1.2713210582733154,-10.13974380493164,-0.5482721924781799
1759424290377816000,10.175816162109374,-1.194706678390503,-10.036792755126953,-0.6991068720817566
1759424290387816000,10.18581591796875,-1.173158884048462,-9.773430824279785,-0.912190854549408
1759424290397816000,10.195816162109375,-1.3958195447921753,-9.481337547302246,-1.1013327836990356
1759424290407816000,10.20581591796875,-1.644816517829895,-8.99052619934082,-1.1180921792984009
1759424290417816000,10.215816162109375,-1.7980455160140991,-8.736741065979004,-0.933738648891449
1759424290427816000,10.22581591796875,-1.845929503440857,-9.024045944213867,-0.5027823448181152
1759424290437816000,10.235816162109375,-1.8100165128707886,-9.502885818481445,-0.05985504388809204
1759424290447816000,10.24581591796875,-1.4867992401123047,-10.125378608703613,0.24420857429504395
1759424290457816000,10.255816162109374,-1.1492167711257935,-11.008838653564453,0.3016694188117981
1759424290467816000,10.26581591796875,-1.2234370708465576,-11.820472717285156,0.12449848651885986
1759424290477816000,10.275816162109376,-1.843535304069519,-12.603377342224121,-0.3495534360408783
1759424290487816000,10.28581591796875,-2.5498247146606445,-12.838008880615234,-1.0079588890075684
1759424290497816000,10.295816162109375,-3.5003228187561035,-12.548310279846191,-1.8339585065841675
1759424290507816000,10.30581591796875,-4.189853191375732,-12.304101943969727,-2.873042106628418
1759424290517816000,10.315816162109375,-4.055777549743652,-12.550704956054688,-3.883395195007324
1759424290527816000,10.32581591796875,-2.9089550971984863,-13.012785911560059,-5.269937038421631
1759424290537816000,10.335816162109374,-0.5267243981361389,-12.694356918334961,-6.991368293762207
1759424290547816000,10.34581591796875,0.7852981686592102,-11.935394287109375,-8.348880767822266
1759424290557816000,10.355816162109376,1.8483237028121948,-10.800542831420898,-8.885181427001953
1759424290567816000,10.36581591796875,1.6065093278884888,-9.507674217224121,-8.55717658996582
1759424290577816000,10.375816162109375,1.1180921792984009,-9.28261947631836,-7.40556526184082
1759424290587816000,10.38581591796875,0.828393816947937,-10.156502723693848,-6.062417984008789
1759424290597816000,10.395816162109375,0.3758896589279175,-12.076652526855469,-5.5883660316467285
1759424290607816000,10.40581591796875,-0.2849099934101105,-13.585000038146973,-5.5452704429626465
1759424290617816000,10.415816162109374,-0.9481038451194763,-14.696208953857422,-5.866093635559082
1759424290627816000,10.42581591796875,-1.6711528301239014,-15.134347915649414,-6.469432353973389
1759424290637816000,10.435816162109376,-2.4875755310058594,-14.83507251739502,-6.275501728057861
1759424290657816000,10.455816162109375,-2.4372973442077637,-12.69675064086914,-4.525041103363037
1759424290667816000,10.46581591796875,-2.190694570541382,-11.521198272705078,-3.7876269817352295
1759424290687816000,10.48581591796875,-0.545877993106842,-11.128548622131348,-2.6815059185028076
1759424290697815800,10.49581591796875,0.30885201692581177,-10.824484825134277,-2.1140801906585693
1759424290707816000,10.50581591796875,0.9648633003234863,-10.812514305114746,-1.4963760375976562
1759424290717815800,10.51581591796875,-1.2114660739898682,-10.041581153869629,-1.599326729774475
1759424290727816000,10.52581591796875,-2.0015525817871094,-8.806173324584961,-2.492363929748535
1759424290737815800,10.53581591796875,-2.2242133617401123,-7.867646217346191,-3.203441858291626
1759424290747816000,10.54581591796875,-2.078166961669922,-7.501333236694336,-3.428496837615967
1759424290757815800,10.55581591796875,-2.185906171798706,-7.058405876159668,-3.706224203109741
1759424290767816000,10.56581591796875,-2.650381326675415,-6.531681537628174,-3.909731388092041
1759424290777816000,10.575816162109374,-3.756502389907837,-6.4502787590026855,-4.19224739074707
1759424290787816000,10.58581591796875,-3.8546648025512695,-6.507739543914795,-4.206612586975098
1759424290797816000,10.595816162109376,-4.290409564971924,-6.8501105308532715,-4.19224739074707
1759424290807816000,10.60581591796875,-4.81473970413208,-7.115866661071777,-3.6942532062530518
1759424290817816000,10.615816162109375,-5.423166275024414,-6.909965515136719,-3.308786630630493
1759424290827816000,10.62581591796875,-6.040870189666748,-6.6920928955078125,-3.1699230670928955
1759424290837815800,10.63581591796875,-6.440701961517334,-6.519710540771484,-3.117250680923462
1759424290847816000,10.64581591796875,-6.761524677276611,-6.273107528686523,-3.1316158771514893
1759424290857815800,10.65581591796875,-7.163750648498535,-5.8996124267578125,-3.1196448802948
1759424290867816000,10.66581591796875,-7.0464348793029785,-5.492598056793213,-3.138798475265503
1759424290877815800,10.67581591796875,-6.498162746429443,-5.176563262939453,-3.050212860107422
1759424290887816000,10.68581591796875,-5.5883660316467285,-4.953902721405029,-2.7102363109588623
1759424290897815800,10.69581591796875,-5.004180908203125,-5.071218490600586,-2.360682964324951
1759424290907816000,10.70581591796875,-4.9060187339782715,-5.052064895629883,-2.360682964324951
1759424290917815800,10.71581591796875,-4.831499099731445,-4.903624534606934,-2.3582887649536133
1759424290927816000,10.72581591796875,-5.176563262939453,-4.752490520477295,-2.346317768096924
1759424290937815800,10.73581591796875,-5.384859085083008,-4.446032524108887,-2.341529369354248
1759424290947816000,10.74581591796875,-5.55245304107666,-4.163516521453857,-2.3918075561523438
1759424290957815800,10.75581591796875,-6.325780391693115,-3.8546648025512695,-2.5234885215759277
1759424290967816000,10.76581591796875,-7.252336025238037,-3.5745432376861572,-2.7293899059295654
1759424290977816000,10.775816162109376,-7.676109790802002,-3.4548330307006836,-2.8227639198303223
1759424290987816000,10.78581591796875,-7.23797082901001,-3.2106244564056396,-3.0885202884674072
1759424290997816000,10.795816162109375,-6.438307762145996,-3.0789434909820557,-3.272873640060425
1759424291007816000,10.80581591796875,-5.866093635559082,-3.1890766620635986,-3.222595453262329
1759424291017816000,10.815816162109375,-5.904400825500488,-3.4117374420166016,-2.999934673309326
1759424291027816000,10.82581591796875,-6.026504993438721,-3.466804027557373,-2.8658595085144043
1759424291037816000,10.835816162109374,-5.748777389526367,-3.3925838470458984,-2.499546527862549
1759424291047816000,10.84581591796875,-5.5021748542785645,-3.2968156337738037,-2.0638017654418945
1759424291057816000,10.855816162109376,-5.650615215301514,-2.5785553455352783,-2.097320795059204
1759424291067816000,10.86581591796875,-6.301837921142578,-1.941697597503662,-2.2433669567108154
1759424291077816000,10.875816162109375,-7.1996636390686035,-2.3032219409942627,-1.9297266006469727
1759424291087816000,10.88581591796875,-7.0464348793029785,-2.4899697303771973,-2.0805611610412598
1759424291097816000,10.895816162109375,-6.91954231262207,-2.717418909072876,-2.2457611560821533
1759424291107816000,10.90581591796875,-6.558017730712891,-2.7892448902130127,-2.5498247146606445
1759424291117816000,10.915816162109374,-6.526893138885498,-2.827552318572998,-2.8419175148010254
1759424291127816000,10.92581591796875,-7.063194274902344,-2.889801502227783,-3.0406360626220703
1759424291137816000,10.935816162109376,-8.277054786682129,-3.179499864578247,-2.9065608978271484
1759424291147816000,10.94581591796875,-9.852438926696777,-3.866635799407959,-3.268085241317749
1759424291157816000,10.955816162109375,-11.997644424438477,-5.116708278656006,-4.220977783203125
1759424291167816000,10.96581591796875,-13.067852020263672,-7.041646480560303,-5.487809658050537
1759424291177816000,10.975816162109375,-11.731887817382812,-8.638579368591309,-6.395212173461914
1759424291187816000,10.98581591796875,-10.690409660339355,-9.332897186279297,-6.6705451011657715
1759424291197816000,10.995816162109374,-11.693580627441406,-9.028834342956543,-5.641038417816162
1759424291207816000,11.00581591796875,-10.812514305114746,-8.102277755737305,-4.352658748626709
1759424291217816000,11.015816162109376,-7.618649005889893,-5.425560474395752,-5.262754440307617
1759424291227816000,11.02581591796875,-7.831733226776123,-2.6623523235321045,-6.783072471618652
1759424291237816000,11.035816162109375,-10.111013412475586,-2.027888774871826,-7.589918613433838
1759424291247816000,11.04581591796875,-10.118195533752441,-3.1938650608062744,-7.072771072387695
1759424291257816000,11.055816162109375,-7.297826290130615,-5.265148639678955,-5.231629848480225
1759424291267816000,11.06581591796875,-6.658574104309082,-6.330568790435791,-3.7708675861358643
1759424291277816000,11.075816162109374,-7.0895304679870605,-6.816591739654541,-3.1268274784088135
1759424291287816000,11.08581591796875,-6.888417720794678,-6.941090106964111,-4.034229755401611
1759424291297816000,11.095816162109376,-6.218040943145752,-7.688080787658691,-5.114314079284668
1759424291307816000,11.10581591796875,-5.317821025848389,-9.126996040344238,-5.667374610900879
1759424291317816000,11.115816162109375,-4.903624534606934,-10.328885078430176,-5.727229595184326
1759424291327816000,11.12581591796875,-4.97545051574707,-10.81011962890625,-5.3704938888549805
1759424291337816000,11.135816162109375,-4.491522312164307,-10.853215217590332,-4.707000732421875
1759424291347816000,11.14581591796875,-3.8331170082092285,-10.455778121948242,-4.101267337799072
1759424291357816000,11.155816162109375,-3.026270866394043,-10.046369552612305,-3.5218706130981445
1759424291367816000,11.16581591796875,-2.6408045291900635,-9.888352394104004,-3.0334534645080566
1759424291377816000,11.175816162109374,-2.3056161403656006,-9.694421768188477,-2.5953147411346436
1759424291387816000,11.18581591796875,-1.6687586307525635,-9.433453559875488,-2.097320795059204
1759424291397816000,11.195816162109375,-1.1635819673538208,-9.478943824768066,-1.86508309841156
1759424291407816000,11.20581591796875,-0.9792284965515137,-9.557952880859375,-1.7334020137786865
1759424291417816000,11.215816162109375,-1.01753568649292,-9.6896333694458,-1.580173134803772
1759424291427816000,11.22581591796875,-1.3838485479354858,-9.881169319152832,-1.6400281190872192
1759424291437816000,11.235816162109375,-1.5873557329177856,-10.240300178527832,-1.5322890281677246
1759424291447816000,11.24581591796875,-2.013523578643799,-10.360010147094727,-1.5490485429763794
1759424291457816000,11.255816162109374,-2.427720546722412,-10.242693901062012,-1.8411411046981812
1759424291467816000,11.26581591796875,-2.47560453414917,-10.101436614990234,-2.142810583114624
1759424291477816000,11.275816162109376,-2.4133553504943848,-9.866804122924805,-2.3343467712402344
1759424291487816000,11.28581591796875,-2.470816135406494,-9.658509254455566,-2.2816741466522217
1759424291497816000,11.295816162109375,-2.6575639247894287,-9.423876762390137,-2.051830768585205
1759424291507816000,11.30581591796875,-2.9328970909118652,-9.057564735412598,-1.8986018896102905
1759424291517816000,11.315816162109375,-2.9712042808532715,-8.59069538116455,-1.7310078144073486
1759424291527816000,11.32581591796875,-2.693476915359497,-8.363245964050293,-1.5275006294250488
1759424291537816000,11.335816162109374,-2.0877439975738525,-8.463802337646484,-1.0965443849563599
1759424291547816000,11.34581591796875,-1.5203180313110352,-8.68167495727539,-0.6727706789970398
1759424291557816000,11.355816162109376,-1.0869675874710083,-9.007286071777344,-0.2082955539226532
1759424291567816000,11.36581591796875,-0.8355764150619507,-9.524434089660645,0.18914192914962769
1759424291577816000,11.375816162109375,-0.8307880163192749,-9.907505989074707,0.5099649429321289
1759424291587816000,11.38581591796875,-0.9074024558067322,-10.154109001159668,0.9074024558067322
1759424291597816000,11.395816162109375,-1.0654197931289673,-10.060734748840332,1.3407529592514038
1759424291607816000,11.40581591796875,-1.2473790645599365,-9.948206901550293,1.5322890281677246
1759424291617816000,11.415816162109374,-1.4867992401123047,-9.941024780273438,1.501164436340332
1759424291627816000,11.42581591796875,-1.4724340438842773,-9.74470043182373,1.1180921792984009
1759424291637816000,11.435816162109376,-1.3455413579940796,-9.493309020996094,0.586579442024231
1759424291647816000,11.44581591796875,-1.3431471586227417,-9.098265647888184,-0.09816227108240128
1759424291657816000,11.455816162109375,-1.3263877630233765,-8.844480514526367,-0.7805097699165344
1759424291667816000,11.46581591796875,-1.4077905416488647,-8.633790969848633,-1.580173134803772
1759424291677816000,11.475816162109375,-1.3934253454208374,-8.425495147705078,-2.2026655673980713
1759424291687816000,11.48581591796875,-1.4197616577148438,-8.102277755737305,-2.7916390895843506
1759424291697816000,11.495816162109374,-1.659181833267212,-7.862857818603516,-3.1052796840667725
1759424291707816000,11.50581591796875,-1.8818424940109253,-7.597101211547852,-3.335123062133789
1759424291717816000,11.515816162109376,-1.9584569931030273,-7.668927192687988,-3.2776620388031006
1759424291727816000,11.52581591796875,-2.0829553604125977,-7.750329971313477,-2.964021682739258
1759424291737816000,11.535816162109375,-2.0374655723571777,-7.805397033691406,-2.6192567348480225
1759424291747816000,11.54581591796875,-1.8938134908676147,-7.8652520179748535,-2.1930887699127197
1759424291757816000,11.555816162109375,-1.5969325304031372,-8.059182167053223,-1.7334020137786865
1759424291767816000,11.56581591796875,-1.2186486721038818,-8.274660110473633,-1.3311761617660522
1759424291777816000,11.575816162109374,-1.01753568649292,-8.545205116271973,-1.036689281463623
1759424291787816000,11.58581591796875,-0.9097966551780701,-8.834903717041016,-0.8020575642585754
1759424291797816000,11.595816162109376,-0.8212111592292786,-9.20361042022705,-0.49320554733276367
1759424291807816000,11.60581591796875,-0.727837324142456,-9.466972351074219,-0.2777273952960968
1759424291817816000,11.615816162109375,-0.6536170840263367,-9.787796020507812,-0.05985504388809204
1759424291827816000,11.62581591796875,-0.569819986820221,-10.063129425048828,0.09816227108240128
1759424291837816000,11.635816162109375,-0.4644751250743866,-10.360010147094727,0.10534487664699554
1759424291847816000,11.64581591796875,-0.36152446269989014,-10.769418716430664,0.016759412363171577
1759424291857816000,11.655816162109375,-0.3280056416988373,-11.324872970581055,-0.40701428055763245
1759424291867816000,11.66581591796875,-0.3734954595565796,-11.935394287109375,-0.9744400978088379
1759424291877816000,11.675816162109374,-0.5410895943641663,-12.747029304504395,-1.6950948238372803
1759424291887816000,11.68581591796875,-0.6847416758537292,-13.367127418518066,-2.3319525718688965
1759424291897816000,11.695816162109375,-0.9145850539207458,-13.85075569152832,-2.940079689025879
1759424291907816000,11.70581591796875,-1.5155296325683594,-14.470854759216309,-3.627215623855591
1759424291917816000,11.715816162109375,-2.542642116546631,-15.08406925201416,-4.125209331512451
1759424291927816000,11.72581591796875,-3.6727054119110107,-15.47911262512207,-4.065354347229004
1759424291937816000,11.735816162109375,-4.644751071929932,-15.871761322021484,-3.464409828186035
1759424291947816000,11.74581591796875,-5.001786708831787,-16.21173858642578,-2.5665841102600098
1759424291957816000,11.755816162109374,-4.481945514678955,-16.101604461669922,-1.9919757843017578
1759424291967816000,11.76581591796875,-3.227383852005005,-15.383344650268555,-1.7381904125213623
1759424291977816000,11.775816162109376,-1.644816517829895,-13.99440860748291,-1.922544002532959
1759424291987816000,11.78581591796875,-0.2346317619085312,-12.909834861755371,-2.408566951751709
1759424291997816000,11.795816162109375,1.1109095811843872,-11.973702430725098,-2.8443117141723633
1759424292007816000,11.80581591796875,1.290474772453308,-11.102212905883789,-3.361459255218506
1759424292017816000,11.815816162109375,1.1324573755264282,-10.283395767211914,-4.242525577545166
1759424292027816000,11.82581591796875,0.7158663272857666,-9.464578628540039,-5.2364182472229
1759424292037816000,11.835816162109374,-0.16998831927776337,-8.877999305725098,-6.395212173461914
1759424292047816000,11.84581591796875,-1.45806884765625,-8.59069538116455,-7.293037414550781
1759424292057816000,11.855816162109376,-3.227383852005005,-9.04559326171875,-7.139808654785156
1759424292067816000,11.86581591796875,-5.052064895629883,-9.603442192077637,-5.985803604125977
1759424292077816000,11.875816162109375,-7.278672218322754,-10.410287857055664,-4.78122091293335
1759424292087816000,11.88581591796875,-8.054393768310547,-10.788572311401367,-3.5745432376861572
1759424292097816000,11.895816162109375,-7.9753851890563965,-11.26262378692627,-2.738966703414917
1759424292107816000,11.90581591796875,-6.943484306335449,-11.861174583435059,-2.978386878967285
1759424292117816000,11.915816162109374,-3.998316764831543,-12.095806121826172,-3.8091750144958496
1759424292127816000,11.92581591796875,-0.8786720037460327,-12.155661582946777,-4.1180267333984375
1759424292137816000,11.935816162109376,3.220201253890991,-11.62414836883545,-3.641580820083618
1759424292147816000,11.94581591796875,5.787084579467773,-11.6552734375,-2.4875755310058594
1759424292157816000,11.955816162109375,2.980781078338623,-10.944194793701172,-1.9584569931030273
1759424292167816000,11.96581591796875,-0.5961562395095825,-10.055946350097656,-0.4189853072166443
1759424292177816000,11.975816162109375,-1.8387469053268433,-9.557952880859375,0.5267243981361389
1759424292187816000,11.98581591796875,-1.2306196689605713,-9.246706008911133,0.3687070608139038
1759424292197816000,11.995816162109374,0.07182604819536209,-8.430283546447754,-0.6847416758537292
1759424292207816000,12.00581591796875,1.45806884765625,-8.068758964538574,-1.3503297567367554
1759424292217816000,12.015816162109376,0.4908113479614258,-7.522881031036377,-1.6879122257232666
1759424292227816000,12.02581591796875,-2.583343744277954,-7.261912822723389,-2.166752576828003
1759424292237816000,12.035816162109375,-3.6750996112823486,-6.747159481048584,-2.5713725090026855
1759424292247816000,12.04581591796875,-3.220201253890991,-6.701669692993164,-2.609679937362671
1759424292257816000,12.055816162109375,-1.8746598958969116,-6.902782917022705,-2.607285737991333
1759424292267816000,12.06581591796875,-1.8363527059555054,-7.1134724617004395,-2.6001031398773193
1759424292277816000,12.075816162109374,-3.4165258407592773,-7.455843448638916,-2.3247697353363037
1759424292287816000,12.08581591796875,-5.6554036140441895,-7.647379398345947,-2.1116859912872314
1759424292297816000,12.095816162109376,-5.729623794555664,-7.300220489501953,-1.9369091987609863
1759424292307816000,12.10581591796875,-5.686528205871582,-6.505345344543457,-1.8746598958969116
1759424292317816000,12.115816162109375,-5.121496677398682,-5.114314079284668,-2.078166961669922
1759424292327816000,12.12581591796875,-3.691859006881714,-3.8091750144958496,-2.274491548538208
1759424292337816000,12.135816162109375,-3.294421434402466,-2.6144683361053467,-2.43011474609375
1759424292347816000,12.14581591796875,-2.8419175148010254,-1.7621324062347412,-2.1499931812286377
1759424292357816000,12.155816162109375,-2.9065608978271484,-1.4963760375976562,-1.8555063009262085
1759424292367816000,12.16581591796875,-3.268085241317749,-1.623268723487854,-1.699883222579956
1759424292377816000,12.175816162109374,-3.40216064453125,-2.0829553604125977,-1.4844050407409668
1759424292397816000,12.195816162109375,-5.72244119644165,-2.1068975925445557,-1.764526605606079
1759424292407816000,12.20581591796875,-7.470208644866943,-1.8100165128707886,-1.7764976024627686
1759424292417816000,12.215816162109375,-8.633790969848633,-1.5394717454910278,-1.7836803197860718
1759424292427816000,12.22581591796875,-8.461407661437988,-1.5179238319396973,-1.968033790588379
1759424292437816000,12.235816162109375,-7.616254806518555,-1.9704279899597168,-2.099714994430542
1759424292447816000,12.24581591796875,-6.687304496765137,-2.5665841102600098,-1.8339585065841675
1759424292457816000,12.255816162109374,-7.22599983215332,-3.0119056701660156,-1.4484920501708984
1759424292467816000,12.26581591796875,-9.117419242858887,-3.734954595565796,-0.8643068075180054
1759424292477816000,12.275816162109376,-9.423876762390137,-4.14915132522583,-0.7134721279144287
1759424292487816000,12.28581591796875,-7.22599983215332,-3.3710360527038574,-2.0374655723571777
1759424292497816000,12.295816162109375,-6.411971569061279,-2.693476915359497,-4.4723687171936035
1759424292507816000,12.30581591796875,-6.00495719909668,-3.028665065765381,-6.505345344543457
1759424292517816000,12.315816162109375,-5.978621006011963,-6.155791759490967,-6.725611686706543
1759424292527816000,12.32581591796875,-10.455778121948242,-10.951377868652344,-4.8602294921875
1759424292537816000,12.335816162109374,-14.02792739868164,-15.242086410522461,-2.808398485183716
1759424292547816000,12.34581591796875,-9.591471672058105,-16.8222599029541,-2.9161376953125
1759424292557816000,12.355816162109376,-5.0807952880859375,-16.065692901611328,-3.315969467163086
1759424292567816000,12.36581591796875,-4.759673118591309,-13.110947608947754,-3.0334534645080566
1759424292577816000,12.375816162109375,-5.068824291229248,-10.407894134521484,-2.3104045391082764
1759424292587816000,12.38581591796875,-4.766855716705322,-8.2219877243042,-1.9847931861877441
1759424292597816000,12.395816162109375,-5.4135894775390625,-6.617872714996338,-2.3247697353363037
1759424292607816000,12.40581591796875,-6.028899192810059,-5.8086323738098145,-2.734178304672241
1759424292617816000,12.415816162109374,-5.528511047363281,-5.7631425857543945,-2.8562827110290527
1759424292627816000,12.42581591796875,-4.228160381317139,-6.0312933921813965,-2.695871114730835
1759424292637816000,12.435816162109376,-4.027047157287598,-6.404788970947266,-2.518700122833252
1759424292647816000,12.44581591796875,-3.6104562282562256,-7.190086841583252,-2.363077163696289
1759424292657816000,12.455816162109375,-3.1028854846954346,-8.186075210571289,-2.3032219409942627
1759424292667816000,12.46581591796875,-2.5067291259765625,-9.184456825256348,-2.43011474609375
1759424292677816000,12.475816162109375,-2.0159177780151367,-10.771812438964844,-2.6360161304473877
1759424292687816000,12.48581591796875,-2.013523578643799,-11.947365760803223,-2.8634653091430664
1759424292697816000,12.495816162109374,-1.9991583824157715,-12.658443450927734,-2.7485435009002686
1759424292707816000,12.50581591796875,-2.1475989818573,-13.07982349395752,-2.2625205516815186
1759424292717816000,12.515816162109376,-2.9328970909118652,-12.804490089416504,-1.8052281141281128
1759424292727816000,12.52581591796875,-3.646369218826294,-11.976096153259277,-1.5298948287963867
1759424292737816000,12.535816162109375,-4.017470359802246,-10.903493881225586,-1.256955862045288
1759424292747816000,12.54581591796875,-3.93367338180542,-10.187627792358398,-1.0127472877502441
1759424292757816000,12.555816162109375,-3.464409828186035,-9.668086051940918,-0.8571242094039917
1759424292767816000,12.56581591796875,-2.896984100341797,-9.213187217712402,-0.7254431247711182
1759424292777816000,12.575816162109374,-2.3511061668395996,-8.837297439575195,-0.646434485912323
1759424292787816000,12.58581591796875,-2.1475989818573,-8.882787704467773,-0.727837324142456
1759424292797816000,12.595816162109376,-2.185906171798706,-9.232340812683105,-0.7805097699165344
1759424292807816000,12.60581591796875,-1.8938134908676147,-9.665691375732422,-0.7254431247711182
1759424292817816000,12.615816162109375,-1.8842366933822632,-10.029610633850098,-0.5817909836769104
1759424292827816000,12.62581591796875,-2.2577321529388428,-10.278607368469238,-0.4213795065879822
1759424292837815800,12.63581591796875,-2.5043349266052246,-10.218751907348633,-0.2777273952960968
1759424292847816000,12.64581591796875,-2.300827741622925,-9.759065628051758,-0.15083470940589905
1759424292857816000,12.655816162109375,-1.9249382019042969,-9.28261947631836,-0.0454898327589035
1759424292867816000,12.66581591796875,-1.7932571172714233,-8.736741065979004,-0.3016694188117981
1759424292877815800,12.67581591796875,-1.7597382068634033,-8.152556419372559,-0.7206547260284424
1759424292887816000,12.68581591796875,-1.7717092037200928,-7.740753173828125,-1.161187767982483
1759424292897816000,12.695816162109375,-1.8555063009262085,-7.556399822235107,-1.659181833267212
1759424292907816000,12.70581591796875,-1.766920804977417,-7.515698432922363,-2.0805611610412598
1759424292917815800,12.71581591796875,-1.5705963373184204,-7.762300968170166,-2.296039342880249
1759424292927816000,12.72581591796875,-1.4987702369689941,-8.035240173339844,-2.2170307636260986
1759424292937816000,12.735816162109375,-1.4652514457702637,-8.138191223144531,-1.9943699836730957
1759424292947816000,12.74581591796875,-1.721431016921997,-7.958625793457031,-1.7884687185287476
1759424292957815800,12.75581591796875,-2.169146776199341,-7.704840183258057,-1.5682021379470825
1759424292967816000,12.76581591796875,-2.5689783096313477,-7.494150638580322,-1.482010841369629
