time,seconds_elapsed,z,y,x
1759440972029377500,0.07937744140625,0.4668693244457245,-7.309797286987305,-6.43351936340332
1759440972059378400,0.10937841796875,0.4692635238170624,-7.460631847381592,-6.502951145172119
1759440972069378600,0.119378662109375,0.3758896589279175,-7.570765018463135,-6.514922142028809
1759440972079378400,0.12937841796875,0.24181437492370605,-7.6210432052612305,-6.5173163414001465
1759440972089378600,0.139378662109375,0.1364694982767105,-7.668927192687988,-6.486191749572754
1759440972099378400,0.14937841796875,0.011971008032560349,-7.647379398345947,-6.452672958374023
1759440972109378600,0.159378662109375,-0.07422025501728058,-7.676109790802002,-6.409577369689941
1759440972119378400,0.16937841796875,-0.12689268589019775,-7.649773597717285,-6.330568790435791
1759440972129378600,0.179378662109375,-0.17956513166427612,-7.668927192687988,-6.251559734344482
1759440972139378400,0.18937841796875,-0.19871874153614044,-7.709628582000732,-6.213252544403076
1759440972149378600,0.199378662109375,-0.20111294090747833,-7.6856865882873535,-6.119878768920898
1759440972159378400,0.20937841796875,-0.21547815203666687,-7.72399377822876,-6.076783180236816
1759440972169378600,0.219378662109375,-0.2059013396501541,-7.767089366912842,-6.062417984008789
1759440972179378400,0.22937841796875,-0.22026655077934265,-7.841310024261475,-6.062417984008789
1759440972189378600,0.239378662109375,-0.21547815203666687,-7.893982410430908,-6.064812183380127
1759440972199378400,0.24937841796875,-0.2346317619085312,-7.920318603515625,-6.057629585266113
1759440972209378600,0.259378662109375,-0.26096799969673157,-7.941866397857666,-6.064812183380127
1759440972219378400,0.26937841796875,-0.28730419278144836,-7.94904899597168,-6.057629585266113
1759440972229378600,0.279378662109375,-0.31124621629714966,-7.934683799743652,-6.08396577835083
1759440972239378400,0.28937841796875,-0.26815059781074524,-7.958625793457031,-6.0959367752075195
1759440972249378600,0.299378662109375,-0.19393034279346466,-7.9083476066589355,-6.088754177093506
1759440972259378400,0.30937841796875,-0.090979665517807,-7.855675220489502,-6.105513572692871
1759440972269378600,0.319378662109375,-0.0454898327589035,-7.798214435577393,-6.165368556976318
1759440972282364200,0.3323642578125,-0.026336219161748886,-7.743147373199463,-6.218040943145752
1759440972292364000,0.342364013671875,-0.0071826050989329815,-7.721599578857422,-6.263530731201172
1759440972302364200,0.3523642578125,0.033518824726343155,-7.67850399017334,-6.273107528686523
1759440972312364000,0.362364013671875,0.0933738648891449,-7.66653299331665,-6.268319129943848
1759440972322364200,0.3723642578125,0.17956513166427612,-7.67850399017334,-6.234800338745117
1759440972332364000,0.382364013671875,0.2801215946674347,-7.692869186401367,-6.241982936859131
1759440972342364200,0.3923642578125,0.35434186458587646,-7.788637638092041,-6.246771335601807
1759440972352364000,0.402364013671875,0.3495534360408783,-7.882011413574219,-6.304232120513916
1759440972362364200,0.4123642578125,0.304063618183136,-7.972990989685059,-6.347328186035156
1759440972372364000,0.422364013671875,0.2585737705230713,-7.987356185913086,-6.304232120513916
1759440972382364200,0.4323642578125,0.2322375625371933,-7.951443195343018,-6.22043514251709
1759440972392364000,0.442364013671875,0.21308395266532898,-7.8006086349487305,-6.107907772064209
1759440972402364200,0.4523642578125,0.18914192914962769,-7.5755534172058105,-5.990592002868652
1759440972412364000,0.462364013671875,0.1412578970193863,-7.324162483215332,-5.9211602210998535
1759440972422364200,0.4723642578125,0.07661445438861847,-7.142202854156494,-5.928342819213867
1759440972432364000,0.482364013671875,0.028730420395731926,-6.986579895019531,-5.961861610412598
1759440972442364200,0.4923642578125,0.026336219161748886,-6.8285627365112305,-5.990592002868652
1759440972452364000,0.502364013671875,0.016759412363171577,-6.720823287963867,-5.971438407897949
1759440972462364200,0.5123642578125,-0.019153613597154617,-6.672939300537109,-6.00495719909668
1759440972472364000,0.522364013671875,-0.043095629662275314,-6.711246490478516,-6.062417984008789
1759440972482364200,0.5323642578125,-0.090979665517807,-6.790255069732666,-6.100725173950195
1759440972492364000,0.542364013671875,-0.15322890877723694,-6.924330711364746,-6.170156955718994
1759440972502364200,0.5523642578125,-0.1628057211637497,-7.063194274902344,-6.232406139373779
1759440972512364000,0.562364013671875,-0.15562310814857483,-7.194875240325928,-6.258742332458496
1759440972522364200,0.5723642578125,-0.08140286058187485,-7.331345081329346,-6.258742332458496
1759440972532364000,0.582364013671875,0.11013327538967133,-7.300220489501953,-6.237194538116455
1759440972542364200,0.5923642578125,0.2322375625371933,-7.173327445983887,-6.060023784637451
1759440972552364000,0.602364013671875,0.2777273952960968,-7.364863872528076,-5.99298620223999
1759440972562364200,0.6123642578125,0.2346317619085312,-7.386411666870117,-5.8349690437316895
1759440972572364000,0.622364013671875,0.181959331035614,-7.374440670013428,-5.739200592041016
1759440972582364200,0.6323642578125,0.10534487664699554,-7.439084053039551,-5.638644218444824
1759440972592364000,0.642364013671875,0.09816227108240128,-7.49654483795166,-5.612308025360107
1759440972602364200,0.6523642578125,0.07422025501728058,-7.558794021606445,-5.600337028503418
1759440972612364000,0.662364013671875,-0.002394201699644327,-7.609072208404541,-5.653009414672852
1759440972622364200,0.6723642578125,-0.17956513166427612,-7.735964775085449,-5.727229595184326
1759440972632364000,0.682364013671875,-0.3495534360408783,-7.817368030548096,-5.937919616699219
1759440972642364200,0.6923642578125,-0.3878606855869293,-7.93707799911499,-6.194098949432373
1759440972652364000,0.702364013671875,-0.4357447028160095,-8.109460830688477,-6.306626319885254
1759440972662364200,0.7123642578125,-0.40222588181495667,-8.229170799255371,-6.49098014831543
1759440972672364000,0.722364013671875,-0.3471592366695404,-8.368034362792969,-6.69448709487915
1759440972682364200,0.7323642578125,-0.1843535304069519,-8.461407661437988,-6.878840923309326
1759440972692364000,0.742364013671875,0.0694318488240242,-8.444648742675781,-7.0679826736450195
1759440972702364200,0.7523642578125,0.2537853717803955,-8.372822761535645,-7.144597053527832
1759440972712364000,0.762364013671875,0.31364041566848755,-8.214805603027344,-7.173327445983887
1759440972722364200,0.7723642578125,0.12449848651885986,-7.925107002258301,-6.969820499420166
1759440972732364000,0.782364013671875,-0.035913024097681046,-7.585130214691162,-6.830956935882568
1759440972742364200,0.7923642578125,-0.05267243832349777,-7.381623268127441,-6.778284072875977
1759440972752364000,0.802364013671875,-0.0071826050989329815,-7.386411666870117,-6.957849502563477
1759440972762364200,0.8123642578125,0.12928688526153564,-7.613860607147217,-7.194875240325928
1759440972772364000,0.822364013671875,0.3064578175544739,-7.941866397857666,-7.470208644866943
1759440972782364200,0.8323642578125,0.42856210470199585,-8.178892135620117,-7.6641387939453125
1759440972792364000,0.842364013671875,0.545877993106842,-8.265083312988281,-7.745541572570801
1759440972802364200,0.8523642578125,0.6033388376235962,-8.140584945678711,-7.644985198974609
1759440972812364000,0.862364013671875,0.7230489253997803,-7.81257963180542,-7.345710277557373
1759440972822364200,0.8723642578125,0.8044517636299133,-7.491756439208984,-7.05601167678833
1759440972832364000,0.882364013671875,0.8858546018600464,-7.22599983215332,-6.818985939025879
1759440972842364200,0.8923642578125,0.9409212470054626,-7.075165271759033,-6.620266914367676
1759440972852364000,0.902364013671875,0.9217676520347595,-7.0033392906188965,-6.598719120025635
1759440972862364200,0.9123642578125,0.8571242094039917,-7.096713066101074,-6.646603107452393
1759440972872364000,0.922364013671875,0.8068459630012512,-7.190086841583252,-6.701669692993164
1759440972882364200,0.9323642578125,0.7493851184844971,-7.230788230895996,-6.73997688293457
1759440972892364000,0.942364013671875,0.5841852426528931,-7.278672218322754,-6.716034889221191
1759440972902364200,0.9523642578125,0.5363011956214905,-7.384017467498779,-6.668150901794434
1759440972912364000,0.962364013671875,0.4644751250743866,-7.477391242980957,-6.613084316253662
1759440972922364200,0.9723642578125,0.43335050344467163,-7.582736015319824,-6.546046733856201
1759440972932364000,0.982364013671875,0.4381389021873474,-7.644985198974609,-6.447884559631348
1759440972942364200,0.9923642578125,0.5051765441894531,-7.656956195831299,-6.340145587921143
1759440972952364000,1.002364013671875,0.5554547905921936,-7.656956195831299,-6.2707133293151855
1759440972962364200,1.0123642578125,0.5267243981361389,-7.606678009033203,-6.225223541259766
1759440972972364000,1.022364013671875,0.5410895943641663,-7.640196800231934,-6.194098949432373
1759440972982364200,1.0323642578125,0.5578489899635315,-7.63301420211792,-6.268319129943848
1759440972992364000,1.042364013671875,0.5985504388809204,-7.630620002746582,-6.337751388549805
1759440973002364200,1.0523642578125,0.6057330369949341,-7.5875244140625,-6.378452777862549
1759440973012364000,1.062364013671875,0.586579442024231,-7.527669429779053,-6.411971569061279
1759440973022364200,1.0723642578125,0.5434837937355042,-7.455843448638916,-6.376058578491211
1759440973032364000,1.082364013671875,0.47644615173339844,-7.443872451782227,-6.368875980377197
1759440973042364200,1.0923642578125,0.40701428055763245,-7.522881031036377,-6.380846977233887
1759440973052364000,1.102364013671875,0.40462008118629456,-7.589918613433838,-6.352116584777832
1759440973062364200,1.1123642578125,0.3902548849582672,-7.702445983886719,-6.335357189178467
1759440973072364000,1.122364013671875,0.35913026332855225,-7.798214435577393,-6.289866924285889
1759440973082364200,1.1323642578125,0.3232172429561615,-7.853281021118164,-6.239588737487793
1759440973092364000,1.142364013671875,0.304063618183136,-7.85806941986084,-6.165368556976318
1759440973102364200,1.1523642578125,0.2801215946674347,-7.862857818603516,-6.093542575836182
1759440973112364000,1.162364013671875,0.2944868206977844,-7.855675220489502,-5.99298620223999
1759440973122364200,1.1723642578125,0.3256114423274994,-7.824550628662109,-5.9211602210998535
1759440973132364000,1.182364013671875,0.35434186458587646,-7.8437042236328125,-5.897218227386475
1759440973142364200,1.1923642578125,0.2992752194404602,-7.819762229919434,-5.86848783493042
1759440973152364000,1.202364013671875,0.2513911724090576,-7.831733226776123,-5.90200662612915
1759440973162364200,1.2123642578125,0.22744916379451752,-7.8221564292907715,-5.9427080154418945
1759440973172364000,1.222364013671875,0.26815059781074524,-7.75751256942749,-5.985803604125977
1759440973182364200,1.2323642578125,0.2849099934101105,-7.704840183258057,-6.016928195953369
1759440973192364000,1.242364013671875,0.2992752194404602,-7.647379398345947,-6.043264389038086
1759440973202364200,1.2523642578125,0.33758243918418884,-7.611466407775879,-6.012139797210693
1759440973212364000,1.262364013671875,0.3711012601852417,-7.604283809661865,-5.997774600982666
1759440973222364200,1.2723642578125,0.40462008118629456,-7.688080787658691,-5.973832607269287
1759440973232364000,1.282364013671875,0.4572925269603729,-7.767089366912842,-6.002562999725342
1759440973242364200,1.2923642578125,0.48602294921875,-7.831733226776123,-6.024110794067383
1759440973252364000,1.302364013671875,0.4644751250743866,-7.934683799743652,-6.043264389038086
1759440973262364200,1.3123642578125,0.4141969084739685,-8.004115104675293,-6.062417984008789
1759440973272364000,1.322364013671875,0.37828385829925537,-8.059182167053223,-6.03847599029541
1759440973282364200,1.3323642578125,0.36152446269989014,-8.059182167053223,-6.014533996582031
1759440973292364000,1.342364013671875,0.3471592366695404,-8.030451774597168,-5.983409404754639
1759440973302364200,1.3523642578125,0.30885201692581177,-8.004115104675293,-5.91397762298584
1759440973312364000,1.362364013671875,0.29209262132644653,-8.008903503417969,-5.870882034301758
1759440973322364200,1.3723642578125,0.29209262132644653,-7.972990989685059,-5.830180644989014
1759440973332364000,1.382364013671875,0.3016694188117981,-8.006509780883789,-5.827786445617676
1759440973342364200,1.3923642578125,0.27054479718208313,-8.001721382141113,-5.820603370666504
1759440973352364000,1.402364013671875,0.2992752194404602,-8.006509780883789,-5.830180644989014
1759440973362364200,1.4123642578125,0.33279404044151306,-7.94904899597168,-5.825392246246338
1759440973372364000,1.422364013671875,0.3663128614425659,-7.934683799743652,-5.818209171295166
1759440973382364200,1.4323642578125,0.42377370595932007,-7.958625793457031,-5.782296180725098
1759440973392364000,1.442364013671875,0.4692635238170624,-7.946654796600342,-5.770325183868408
1759440973402364200,1.4523642578125,0.5315127968788147,-7.94904899597168,-5.715258598327637
1759440973412364000,1.462364013671875,0.524330198764801,-7.951443195343018,-5.691316604614258
1759440973422364200,1.4723642578125,0.507570743560791,-7.965808391571045,-5.653009414672852
1759440973432364000,1.482364013671875,0.4668693244457245,-7.9969329833984375,-5.612308025360107
1759440973442364200,1.4923642578125,0.3926490843296051,-7.970596790313721,-5.6314616203308105
1759440973452364000,1.502364013671875,0.33997663855552673,-7.9538373947143555,-5.626673221588135
1759440973462364200,1.5123642578125,0.28730419278144836,-7.925107002258301,-5.624279022216797
1759440973472364000,1.522364013671875,0.272938996553421,-7.8652520179748535,-5.6099138259887695
1759440973482364200,1.5323642578125,0.272938996553421,-7.795820236206055,-5.617096424102783
1759440973492364000,1.542364013671875,0.27054479718208313,-7.721599578857422,-5.636250019073486
1759440973502364200,1.5523642578125,0.22744916379451752,-7.719205379486084,-5.705681800842285
1759440973512364000,1.562364013671875,0.22266076505184174,-7.759906768798828,-5.760748386383057
1759440973522364200,1.5723642578125,0.31124621629714966,-7.831733226776123,-5.791872978210449
1759440973532364000,1.582364013671875,0.4118026793003082,-7.879617214202881,-5.827786445617676
1759440973542364200,1.5923642578125,0.4644751250743866,-7.934683799743652,-5.849334239959717
1759440973552364000,1.602364013671875,0.48602294921875,-7.946654796600342,-5.832574844360352
1759440973562364200,1.6123642578125,0.47405192255973816,-7.9083476066589355,-5.801449775695801
1759440973572364000,1.622364013671875,0.44771572947502136,-7.893982410430908,-5.748777389526367
1759440973582364200,1.6323642578125,0.45010992884635925,-7.946654796600342,-5.727229595184326
1759440973592364000,1.642364013671875,0.4668693244457245,-8.013691902160645,-5.667374610900879
1759440973602364200,1.6523642578125,0.4620809257030487,-8.059182167053223,-5.660192012786865
1759440973612364000,1.662364013671875,0.5147533416748047,-8.111854553222656,-5.691316604614258
1759440973622364200,1.6723642578125,0.5171475410461426,-8.138191223144531,-5.717652797698975
1759440973632364000,1.682364013671875,0.4381389021873474,-8.171710014343262,-5.710470199584961
1759440973642364000,1.692364013671875,0.3447650372982025,-8.12861442565918,-5.739200592041016
1759440973652364000,1.702364013671875,0.3232172429561615,-8.135796546936035,-5.743988990783691
1759440973662364000,1.712364013671875,0.24420857429504395,-8.121431350708008,-5.755959987640381
1759440973672364000,1.722364013671875,0.2298433631658554,-8.087912559509277,-5.755959987640381
1759440973682364000,1.732364013671875,0.24899697303771973,-8.047211647033691,-5.739200592041016
1759440973692364000,1.742364013671875,0.31124621629714966,-8.023268699645996,-5.641038417816162
1759440973702364000,1.752364013671875,0.3447650372982025,-8.03763484954834,-5.581183433532715
1759440973712364000,1.762364013671875,0.33758243918418884,-8.052000045776367,-5.516540050506592
1759440973722364000,1.772364013671875,0.35673606395721436,-8.068758964538574,-5.454290866851807
1759440973732364000,1.782364013671875,0.33518823981285095,-8.066365242004395,-5.423166275024414
1759440973742364000,1.792364013671875,0.29209262132644653,-8.10706615447998,-5.432743072509766
1759440973752364000,1.802364013671875,0.2801215946674347,-8.171710014343262,-5.425560474395752
1759440973762364000,1.812364013671875,0.4213795065879822,-7.992144584655762,-5.406406879425049
1759440973772364000,1.822364013671875,0.3471592366695404,-8.171710014343262,-5.46147346496582
1759440973782364000,1.832364013671875,0.24660277366638184,-8.281843185424805,-5.5237226486206055
1759440973792364000,1.842364013671875,0.16759411990642548,-8.241141319274902,-5.562029838562012
1759440973802364000,1.852364013671875,0.1843535304069519,-8.169315338134766,-5.569212436676025
1759440973812364000,1.862364013671875,0.28969839215278625,-8.109460830688477,-5.576395034790039
1759440973822364000,1.872364013671875,0.3878606855869293,-8.111854553222656,-5.576395034790039
1759440973832364000,1.882364013671875,0.43095630407333374,-8.099884033203125,-5.59794282913208
1759440973842364000,1.892364013671875,0.42377370595932007,-8.126219749450684,-5.633855819702148
1759440973852364000,1.902364013671875,0.4118026793003082,-8.171710014343262,-5.693710803985596
1759440973862364000,1.912364013671875,0.4213795065879822,-8.212410926818848,-5.755959987640381
1759440973872364000,1.922364013671875,0.45489832758903503,-8.212410926818848,-5.81342077255249
1759440973882364000,1.932364013671875,0.4884171485900879,-8.207622528076172,-5.851728439331055
1759440973892364000,1.942364013671875,0.5482721924781799,-8.176498413085938,-5.86848783493042
1759440973902364000,1.952364013671875,0.6033388376235962,-8.116642951965332,-5.846940040588379
1759440973912364000,1.962364013671875,0.646434485912323,-8.07115364074707,-5.801449775695801
1759440973922364000,1.972364013671875,0.6272808313369751,-8.078335762023926,-5.717652797698975
1759440973932364000,1.982364013671875,0.5770025849342346,-8.066365242004395,-5.6434326171875
1759440973942364200,1.9923642578125,0.4908113479614258,-8.075942039489746,-5.5883660316467285
1759440973952364000,2.002364013671875,0.4405331015586853,-8.121431350708008,-5.542876243591309
1759440973962364200,2.0123642578125,0.3878606855869293,-8.16452693939209,-5.516540050506592
1759440973972364000,2.022364013671875,0.3758896589279175,-8.166921615600586,-5.497386455535889
1759440973982364200,2.0323642578125,0.3998316824436188,-8.123826026916504,-5.487809658050537
1759440973992364000,2.042364013671875,0.4141969084739685,-8.12861442565918,-5.463867664337158
1759440974002364200,2.0523642578125,0.4118026793003082,-8.145373344421387,-5.42795467376709
1759440974012364000,2.062364013671875,0.4189853072166443,-8.152556419372559,-5.411195278167725
1759440974022364200,2.0723642578125,0.3758896589279175,-8.186075210571289,-5.375282287597656
1759440974032364000,2.082364013671875,0.33758243918418884,-8.21959400177002,-5.375282287597656
1759440974042364200,2.0923642578125,0.33279404044151306,-8.226776123046875,-5.346551895141602
1759440974052364000,2.102364013671875,0.38546648621559143,-8.21959400177002,-5.305850028991699
1759440974062364200,2.1123642578125,0.42616790533065796,-8.16452693939209,-5.289090633392334
1759440974072364000,2.122364013671875,0.44771572947502136,-8.133402824401855,-5.301061630249023
1759440974082364200,2.1323642578125,0.4189853072166443,-8.123826026916504,-5.339369297027588
1759440974092364000,2.142364013671875,0.3998316824436188,-8.09509563446045,-5.430348873138428
1759440974102364200,2.1523642578125,0.35673606395721436,-8.13100814819336,-5.5021748542785645
1759440974112364000,2.162364013671875,0.3495534360408783,-8.166921615600586,-5.5883660316467285
1759440974122364200,2.1723642578125,0.3280056416988373,-8.176498413085938,-5.653009414672852
1759440974132364000,2.182364013671875,0.31842881441116333,-8.142979621887207,-5.68892240524292
1759440974142364200,2.1923642578125,0.33039984107017517,-8.092700958251953,-5.710470199584961
1759440974152364000,2.202364013671875,0.40462008118629456,-8.01608657836914,-5.6769514083862305
1759440974162364200,2.2123642578125,0.4836287498474121,-7.980173587799072,-5.638644218444824
1759440974172364000,2.222364013671875,0.5123591423034668,-7.956231594085693,-5.585971832275391
1759440974182364200,2.2323642578125,0.4429273009300232,-8.063970565795898,-5.516540050506592
1759440974192364000,2.242364013671875,0.4357447028160095,-8.200440406799316,-5.47344446182251
1759440974202364200,2.2523642578125,0.45010992884635925,-8.341697692871094,-5.423166275024414
1759440974212364000,2.262364013671875,0.45250412821769714,-8.406341552734375,-5.425560474395752
1759440974222364000,2.272364013671875,0.47884035110473633,-8.279448509216309,-5.399224281311035
1759440974232364000,2.282364013671875,0.31603461503982544,-8.516474723815918,-5.449502468109131
1759440974242364000,2.292364013671875,0.2537853717803955,-8.547599792480469,-5.444714069366455
1759440974252364000,2.302364013671875,0.2082955539226532,-8.430283546447754,-5.423166275024414
1759440974262364000,2.312364013671875,0.19153612852096558,-8.25550651550293,-5.32739782333374
1759440974272364000,2.322364013671875,0.18914192914962769,-8.099884033203125,-5.296273231506348
1759440974282364000,2.332364013671875,0.17956513166427612,-7.984961986541748,-5.289090633392334
1759440974292364000,2.342364013671875,0.14604631066322327,-7.98256778717041,-5.3226094245910645
1759440974302364200,2.3523642578125,0.16519992053508759,-8.006509780883789,-5.372888088226318
1759440974312364000,2.362364013671875,0.16998831927776337,-8.083124160766602,-5.418377876281738
1759440974322364000,2.372364013671875,0.22505496442317963,-8.102277755737305,-5.471050262451172
1759440974332364000,2.382364013671875,0.31124621629714966,-8.13100814819336,-5.468656063079834
1759440974342364000,2.392364013671875,0.40222588181495667,-8.099884033203125,-5.471050262451172
1759440974352364000,2.402364013671875,0.4644751250743866,-8.063970565795898,-5.4566850662231445
1759440974362364000,2.412364013671875,0.45250412821769714,-8.006509780883789,-5.494992256164551
1759440974372364000,2.422364013671875,0.40462008118629456,-8.028057098388672,-5.471050262451172
1759440974382364000,2.432364013671875,0.3998316824436188,-8.044816970825195,-5.394435882568359
1759440974392364000,2.442364013671875,0.4357447028160095,-8.049605369567871,-5.2555718421936035
1759440974412364000,2.462364013671875,0.7637503147125244,-7.709628582000732,-4.884171485900879
1759440974432364000,2.482364013671875,0.48602294921875,-7.518092632293701,-4.616020679473877
1759440974442364000,2.492364013671875,0.3711012601852417,-7.3600754737854,-4.54419469833374
1759440974452364000,2.502364013671875,0.19632454216480255,-7.240365028381348,-4.563348293304443
1759440974462364000,2.512364013671875,0.016759412363171577,-7.125443458557129,-4.577713489532471
1759440974472363800,2.52236376953125,0.13407529890537262,-7.087136268615723,-4.5609540939331055
1759440974502364000,2.552364013671875,0.5027823448181152,-7.144597053527832,-4.76924991607666
1759440974512363800,2.56236376953125,0.5027823448181152,-7.041646480560303,-4.9275665283203125
1759440974522364000,2.572364013671875,0.395043283700943,-6.866869926452637,-5.143044471740723
1759440974532363800,2.58236376953125,0.3208230137825012,-6.73997688293457,-5.3704938888549805
1759440974542364000,2.592364013671875,0.35913026332855225,-6.541258335113525,-5.593154430389404
1759440974552363800,2.60236376953125,0.6033388376235962,-6.282684326171875,-5.815814971923828
1759440974562364000,2.612364013671875,0.8978256583213806,-6.055235385894775,-5.882853031158447
1759440974572363800,2.62236376953125,1.292868971824646,-5.911583423614502,-5.803843975067139
1759440974582364000,2.632364013671875,1.647210717201233,-5.918766021728516,-5.617096424102783
1759440974592363800,2.64236376953125,1.680729627609253,-6.076783180236816,-5.4782328605651855
1759440974602364000,2.652364013671875,1.4652514457702637,-6.2060699462890625,-5.485415458679199
1759440974612363800,2.66236376953125,1.2617442607879639,-6.531681537628174,-5.68892240524292
1759440974622364000,2.672364013671875,1.2880805730819702,-6.909965515136719,-5.801449775695801
1759440974632363800,2.68236376953125,1.3192051649093628,-7.230788230895996,-5.7631425857543945
1759440974642364000,2.692364013671875,1.316810965538025,-7.570765018463135,-5.471050262451172
1759440974652363800,2.70236376953125,1.4053963422775269,-7.556399822235107,-5.346551895141602
1759440974662364000,2.712364013671875,1.41257905960083,-7.293037414550781,-5.5021748542785645
1759440974672363800,2.72236376953125,1.01753568649292,-6.84053373336792,-5.787084579467773
1759440974682364000,2.732364013671875,0.6200982332229614,-6.452672958374023,-5.981015205383301
1759440974692363800,2.74236376953125,0.016759412363171577,-5.969044208526611,-5.91397762298584
1759440974702364000,2.752364013671875,-0.5363011956214905,-5.5237226486206055,-5.973832607269287
1759440974712363800,2.76236376953125,-0.751779317855835,-5.171774864196777,-6.160580158233643
1759440974722364000,2.772364013671875,-0.5578489899635315,-5.126285076141357,-6.263530731201172
1759440974732364000,2.782364013671875,-0.23702596127986908,-5.372888088226318,-6.134243965148926
1759440974742364000,2.792364013671875,0.24899697303771973,-5.8349690437316895,-5.885247230529785
1759440974752364000,2.802364013671875,0.6631938815116882,-6.1174845695495605,-5.7631425857543945
1759440974762364000,2.812364013671875,0.6057330369949341,-6.055235385894775,-5.837363243103027
1759440974772364000,2.822364013671875,0.1604115068912506,-5.9642558097839355,-5.9427080154418945
1759440974782364000,2.832364013671875,-0.2298433631658554,-5.916371822357178,-6.0504469871521
1759440974792364000,2.842364013671875,-0.4429273009300232,-5.770325183868408,-6.316203594207764
1759440974802364000,2.852364013671875,-0.33279404044151306,-5.629067420959473,-6.773495674133301
1759440974812364000,2.862364013671875,0.26096799969673157,-5.6314616203308105,-7.340921878814697
1759440974822364200,2.8723642578125,1.1037269830703735,-5.782296180725098,-7.898770809173584
1759440974832364000,2.882364013671875,1.867477297782898,-6.036081790924072,-8.561964988708496
1759440974842364200,2.8923642578125,2.123656988143921,-6.2084641456604,-9.469367027282715
1759440974852364000,2.902364013671875,2.233790159225464,-6.337751388549805,-10.087071418762207
1759440974862364000,2.912364013671875,2.4420857429504395,-6.35451078414917,-10.070311546325684
1759440974872364000,2.922364013671875,2.406172752380371,-6.0528411865234375,-9.799766540527344
1759440974882364000,2.932364013671875,2.2361843585968018,-5.389647483825684,-9.524434089660645
1759440974892364000,2.942364013671875,2.185906171798706,-4.726154327392578,-8.99052619934082
1759440974902364000,2.952364013671875,1.9177556037902832,-4.393360137939453,-8.643367767333984
1759440974912364000,2.962364013671875,1.460463047027588,-4.230554580688477,-8.499714851379395
1759440974922364000,2.972364013671875,1.015141487121582,-4.426878929138184,-8.358457565307617
1759440974932364000,2.982364013671875,0.6488286852836609,-4.72376012802124,-8.272266387939453
1759440974942364000,2.992364013671875,0.3423708379268646,-5.109525680541992,-8.394370079040527
1759440974952364000,3.002364013671875,0.28730419278144836,-5.509357452392578,-8.41352367401123
1759440974962364000,3.012364013671875,0.40462008118629456,-5.7415947914123535,-8.640973091125488
1759440974972364000,3.022364013671875,0.6847416758537292,-5.76793098449707,-8.995314598083496
1759440974982364000,3.032364013671875,1.173158884048462,-5.708076000213623,-9.287407875061035
1759440974992364000,3.042364013671875,1.6950948238372803,-5.439925670623779,-9.766247749328613
1759440975002364000,3.052364013671875,2.2194249629974365,-5.054459095001221,-10.304943084716797
1759440975012364000,3.062364013671875,2.477998733520508,-4.92996072769165,-10.59464168548584
1759440975022364000,3.072364013671875,2.6647465229034424,-4.757278919219971,-10.817302703857422
1759440975032364000,3.082364013671875,2.8395233154296875,-4.54419469833374,-10.877157211303711
1759440975042364000,3.092364013671875,2.7437551021575928,-4.376600742340088,-10.767024040222168
1759440975052364000,3.102364013671875,2.3726539611816406,-4.252102375030518,-10.640131950378418
1759440975062364200,3.1123642578125,2.013523578643799,-4.290409564971924,-10.151714324951172
1759440975072364000,3.122364013671875,1.7884687185287476,-4.223371982574463,-9.761459350585938
1759440975082364200,3.1323642578125,1.6496049165725708,-4.106055736541748,-9.543587684631348
1759440975092364000,3.142364013671875,1.580173134803772,-4.089296340942383,-9.40711784362793
1759440975102364000,3.152364013671875,1.6328455209732056,-4.168305397033691,-9.371204376220703
1759440975112364000,3.162364013671875,1.6879122257232666,-4.23773717880249,-9.416694641113281
1759440975122364000,3.172364013671875,1.7717092037200928,-4.240131378173828,-9.629778861999512
1759440975132364000,3.182364013671875,1.845929503440857,-4.173093795776367,-9.866804122924805
1759440975142364000,3.192364013671875,1.9560627937316895,-4.173093795776367,-9.950601577758789
1759440975152364000,3.202364013671875,1.9153614044189453,-4.07014274597168,-10.132560729980469
1759440975162364000,3.212364013671875,1.9393033981323242,-4.065354347229004,-10.032004356384277
1759440975172364000,3.222364013671875,1.9823989868164062,-4.079719543457031,-9.847650527954102
1759440975182364000,3.232364013671875,2.0015525817871094,-3.9001545906066895,-9.771036148071289
1759440975192364000,3.242364013671875,1.9345149993896484,-3.7038300037384033,-9.773430824279785
1759440975202364000,3.252364013671875,1.9153614044189453,-3.466804027557373,-9.814131736755371
1759440975212364000,3.262364013671875,1.968033790588379,-3.117250680923462,-9.881169319152832
1759440975222364000,3.272364013671875,2.0374655723571777,-2.8107926845550537,-9.955389976501465
1759440975232364000,3.282364013671875,2.212242364883423,-2.518700122833252,-10.041581153869629
1759440975242364000,3.292364013671875,2.3582887649536133,-2.363077163696289,-10.3240966796875
1759440975252364000,3.302364013671875,2.4205379486083984,-2.1978771686553955,-10.62576675415039
1759440975262364000,3.312364013671875,2.470816135406494,-2.0614075660705566,-10.688015937805176
1759440975272364000,3.322364013671875,2.4803929328918457,-1.8626888990402222,-10.738293647766113
1759440975282364000,3.332364013671875,2.583343744277954,-1.6496049165725708,-10.925041198730469
1759440975292364000,3.342364013671875,2.6791117191314697,-1.4317326545715332,-11.20276927947998
1759440975302364200,3.3523642578125,2.7102363109588623,-1.3455413579940796,-11.375151634216309
1759440975312364000,3.362364013671875,2.647987127304077,-1.3982137441635132,-11.408670425415039
1759440975322364200,3.3723642578125,2.513911724090576,-1.4676456451416016,-11.274595260620117
1759440975332364000,3.382364013671875,2.4133553504943848,-1.5682021379470825,-10.927435874938965
1759440975342364200,3.3923642578125,2.432508945465088,-1.556231141090393,-10.570699691772461
1759440975352364000,3.402364013671875,2.4396915435791016,-1.4772224426269531,-10.170867919921875
1759440975362364000,3.412364013671875,2.408566951751709,-1.4269442558288574,-9.873987197875977
1759440975372364000,3.422364013671875,2.276885747909546,-1.3551181554794312,-9.706393241882324
1759440975382364000,3.432364013671875,2.1523873805999756,-1.3048399686813354,-9.591471672058105
1759440975392364000,3.442364013671875,2.070984363555908,-1.2665326595306396,-9.507674217224121
1759440975402364000,3.452364013671875,2.056619167327881,-1.2282254695892334,-9.375992774963379
1759440975412364000,3.462364013671875,2.070984363555908,-1.1899182796478271,-9.301773071289062
1759440975422364000,3.472364013671875,2.0805611610412598,-1.0797849893569946,-9.220370292663574
1759440975432364000,3.482364013671875,2.051830768585205,-1.05105459690094,-9.17009162902832
1759440975442364000,3.492364013671875,1.9967641830444336,-1.0342950820922852,-9.189245223999023
1759440975452364000,3.502364013671875,1.922544002532959,-1.091755986213684,-9.22755241394043
1759440975462364000,3.512364013671875,1.8770540952682495,-1.1300631761550903,-9.296984672546387
1759440975472364000,3.522364013671875,1.8722656965255737,-1.2210428714752197,-9.378387451171875
1759440975482364000,3.532364013671875,1.8483237028121948,-1.3024457693099976,-9.5316162109375
1759440975492364000,3.542364013671875,1.7836803197860718,-1.3551181554794312,-9.699210166931152
1759440975502364000,3.552364013671875,1.7381904125213623,-1.335964560508728,-9.883563995361328
1759440975512364000,3.562364013671875,1.6879122257232666,-1.3215993642807007,-10.103830337524414
1759440975522364000,3.572364013671875,1.656787633895874,-1.2258312702178955,-10.302549362182617
1759440975532364000,3.582364013671875,1.6376339197158813,-1.1085153818130493,-10.436624526977539
1759440975542364000,3.592364013671875,1.6065093278884888,-0.9744400978088379,-10.50126838684082
1759440975552364000,3.602364013671875,1.6280571222305298,-0.8595184087753296,-10.484508514404297
1759440975562364200,3.6123642578125,1.659181833267212,-0.7422025203704834,-10.38155746459961
1759440975572364000,3.622364013671875,1.7501614093780518,-0.6727706789970398,-10.235511779785156
1759440975582364200,3.6323642578125,1.8483237028121948,-0.6919242739677429,-10.036792755126953
1759440975592364000,3.642364013671875,1.946485996246338,-0.7948749661445618,-9.864410400390625
1759440975602364000,3.652364013671875,1.9752163887023926,-0.8044517636299133,-9.68005657196045
1759440975612364000,3.662364013671875,1.9967641830444336,-0.7541735172271729,-9.536404609680176
1759440975622364000,3.672364013671875,1.987187385559082,-0.6847416758537292,-9.431059837341309
1759440975632364000,3.682364013671875,1.9847931861877441,-0.5985504388809204,-9.387964248657227
1759440975642364000,3.692364013671875,2.049436569213867,-0.5051765441894531,-9.330503463745117
1759440975652364000,3.702364013671875,2.1356279850006104,-0.43335050344467163,-9.332897186279297
1759440975662364000,3.712364013671875,2.2409727573394775,-0.38546648621559143,-9.359233856201172
1759440975672364000,3.722364013671875,2.3798365592956543,-0.3495534360408783,-9.447818756103516
1759440975682364000,3.732364013671875,2.513911724090576,-0.36152446269989014,-9.5316162109375
1759440975692364000,3.742364013671875,2.6862943172454834,-0.363918662071228,-9.584288597106934
1759440975702364000,3.752364013671875,2.8227639198303223,-0.43335050344467163,-9.648932456970215
1759440975712364000,3.762364013671875,2.896984100341797,-0.3902548849582672,-9.692028045654297
1759440975722364000,3.772364013671875,2.937685489654541,-0.33279404044151306,-9.723152160644531
1759440975732364000,3.782364013671875,2.9544448852539062,-0.2825157940387726,-9.730335235595703
1759440975742364000,3.792364013671875,2.940079689025879,-0.1867477297782898,-9.756670951843262
1759440975752364000,3.802364013671875,2.9161376953125,-0.2059013396501541,-9.749488830566406
1759440975762364000,3.812364013671875,2.8778305053710938,-0.2346317619085312,-9.833285331726074
1759440975772364000,3.822364013671875,2.829946517944336,-0.2825157940387726,-9.89314079284668
1759440975782364000,3.832364013671875,2.8155810832977295,-0.3758896589279175,-9.933841705322266
1759440975792364000,3.842364013671875,2.8802247047424316,-0.44771572947502136,-9.957783699035645
1759440975802364200,3.8523642578125,2.985569477081299,-0.5171475410461426,-9.902717590332031
1759440975812364000,3.862364013671875,3.1507694721221924,-0.5889736413955688,-9.80216121673584
1759440975822364200,3.8723642578125,3.246537446975708,-0.6344634294509888,-9.624990463256836
1759440975832364000,3.882364013671875,3.3207578659057617,-0.6368576288223267,-9.464578628540039
1759440975842364200,3.8923642578125,3.3255462646484375,-0.6009446382522583,-9.26107120513916
1759440975852364000,3.902364013671875,3.2561142444610596,-0.5650315880775452,-9.083900451660156
1759440975862364000,3.912364013671875,3.181894063949585,-0.4836287498474121,-8.983344078063965
1759440975872364000,3.922364013671875,3.0573954582214355,-0.4141969084739685,-8.98813247680664
1759440975882364000,3.932364013671875,2.9448680877685547,-0.38546648621559143,-9.019257545471191
1759440975892364000,3.942364013671875,2.851494312286377,-0.3519476354122162,-9.172486305236816
1759440975902364000,3.952364013671875,2.827552318572998,-0.33518823981285095,-9.330503463745117
1759440975912364000,3.962364013671875,2.82515811920166,-0.38067805767059326,-9.490914344787598
1759440975922364000,3.972364013671875,2.849100112915039,-0.363918662071228,-9.651326179504395
1759440975932364000,3.982364013671875,2.896984100341797,-0.3471592366695404,-9.759065628051758
1759440975942364000,3.992364013671875,2.896984100341797,-0.3064578175544739,-9.847650527954102
1759440975952364000,4.002364013671875,2.913743495941162,-0.24660277366638184,-9.840468406677246
1759440975962364000,4.012364013671875,2.8874073028564453,-0.2059013396501541,-9.857227325439453
1759440975972364000,4.022364013671875,2.873042106628418,-0.20350714027881622,-9.790189743041992
1759440975982364000,4.032364013671875,2.82515811920166,-0.24181437492370605,-9.684844970703125
1759440975992364000,4.042364013671875,2.80361008644104,-0.28730419278144836,-9.613018989562988
1759440976002364000,4.052364013671875,2.7892448902130127,-0.3064578175544739,-9.519645690917969
1759440976012364000,4.062364013671875,2.762908697128296,-0.2849099934101105,-9.452607154846191
1759440976022364000,4.072364013671875,2.7988216876983643,-0.26575639843940735,-9.411906242370605
1759440976032364000,4.082364013671875,2.7988216876983643,-0.24181437492370605,-9.395146369934082
1759440976042364000,4.092364013671875,2.8371291160583496,-0.19632454216480255,-9.399934768676758
1759440976052364000,4.102364013671875,2.832340717315674,-0.19393034279346466,-9.447818756103516
1759440976062364000,4.112364013671875,2.8131868839263916,-0.21787235140800476,-9.514857292175293
1759440976072364000,4.122364013671875,2.801215887069702,-0.2298433631658554,-9.572318077087402
1759440976082364000,4.132364013671875,2.779668092727661,-0.22744916379451752,-9.617807388305664
1759440976092364000,4.142364013671875,2.779668092727661,-0.19632454216480255,-9.65611457824707
1759440976102364000,4.152364013671875,2.762908697128296,-0.19871874153614044,-9.65372085571289
1759440976112364000,4.162364013671875,2.75812029838562,-0.17477671802043915,-9.641749382019043
1759440976122364000,4.172364013671875,2.7293899059295654,-0.17238251864910126,-9.641749382019043
1759440976132364000,4.182364013671875,2.7269957065582275,-0.17956513166427612,-9.636960983276367
1759440976142364000,4.192364013671875,2.7102363109588623,-0.18914192914962769,-9.624990463256836
1759440976152364000,4.202364013671875,2.6815059185028076,-0.1867477297782898,-9.62020206451416
1759440976162364000,4.212364013671875,2.671929121017456,-0.1843535304069519,-9.610625267028809
1759440976172364000,4.222364013671875,2.698265314102173,-0.181959331035614,-9.617807388305664
1759440976182364000,4.232364013671875,2.7126305103302,-0.19632454216480255,-9.634567260742188
1759440976192364000,4.242364013671875,2.75812029838562,-0.17477671802043915,-9.641749382019043
1759440976202364000,4.252364013671875,2.7700912952423096,-0.16519992053508759,-9.639355659484863
1759440976212364000,4.262364013671875,2.7700912952423096,-0.21308395266532898,-9.624990463256836
1759440976222364000,4.272364013671875,1.7357962131500244,-0.06703764945268631,-9.304166793823242
1759440976232364000,4.282364013671875,2.853888511657715,-0.35673606395721436,-9.601048469543457
1759440976242364000,4.292364013671875,2.96162748336792,-0.023942016065120697,-9.687239646911621
1759440976252364000,4.302364013671875,3.6080620288848877,-0.15322890877723694,-9.883563995361328
1759440976262364000,4.312364013671875,3.861847400665283,-0.3208230137825012,-9.890746116638184
