seconds_elapsed,acc_z,acc_y,acc_x,grav_z,grav_y,grav_x,gyro_z,gyro_y,gyro_x
20.122451904296877,3.809741827541589,1.2051695702433585,-4.249054451304674,-0.9019833267599344,-9.59355377728641,1.8222315012678505,0.4505659937858581,3.126333236694336,-0.7110929489135742
20.1325087890625,1.9954677150189877,2.021658387330174,-3.0481349397212267,-0.9022155280806124,-9.59691068649888,1.8043471772700548,0.5054846405982971,3.3907320499420166,-0.5704942941665649
20.14256591796875,1.03542565558739,2.479512045434117,-1.718084605833888,-0.8989561609584837,-9.599417700883746,1.7926039863757788,0.3692024946212768,3.505877017974853,-0.683306872844696
20.15262280273437,0.1491572728969156,2.05663617720902,-1.4071971403233705,-0.9144034670677036,-9.5970229147017,1.7976015024021268,0.1801127642393112,3.2666475772857666,-0.9151123762130736
20.1626796875,-0.0110778588533401,1.2607967649191618,-1.7268429356984794,-0.9590223609950392,-9.590074702998995,1.8113881818227469,0.1266752481460571,2.603603839874268,-1.1073919534683228
20.17273706054688,0.3236439981658011,0.6062018065750598,-1.7094550169155,-1.0303818162012846,-9.58131564248204,1.8185406839258969,0.1846623867750167,1.7193403244018557,-1.1801036596298218
20.1827939453125,0.6295861892938613,0.1542623409509658,-1.1266504525408148,-1.1203972373649478,-9.572902034401894,1.8095966222308573,0.2830968499183655,0.8512725830078125,-1.1624901294708252
20.192850830078125,1.111349130773544,-0.1601689346462488,-0.0873898219004273,-1.2195377028137444,-9.565227846512196,1.785926262177527,0.3202809989452362,0.2027132511138916,-1.0839787721633911
20.202908203125,1.5791186182141304,-0.3878589153796434,0.9181799899317324,-1.318149906604737,-9.5573555057019,1.7577892781041562,0.2574318051338196,-0.1208925619721412,-0.972198724746704
20.212965087890623,1.6687059501588344,-0.3971896383047104,0.9370366660930216,-1.407737530810386,-9.548024782776832,1.738932601942867,0.0826932936906814,-0.1116559207439422,-0.8389620780944824
20.22302197265625,2.0346308277584613,-0.4134919538080692,1.69720709136948,-1.4802229213066398,-9.536211010864376,1.7435599694825707,-0.1824250668287277,0.1686737984418869,-0.6734040975570679
20.23307885742188,2.3177580335535106,-0.3004144406825303,2.031286047375202,-1.529616628420353,-9.521647647982835,1.7801332118593156,-0.4618695080280304,0.5694888830184937,-0.4920691847801208
20.243135986328124,2.2843571376025675,-0.153719320115447,1.854877633328736,-1.5538263560473915,-9.505238364973664,1.845660161519796,-0.6412491202354431,0.9304718375205994,-0.302762895822525
20.25319311523437,1.9155974749684328,-0.2151151613205671,1.3272291389867663,-1.55676679341346,-9.488733804896471,1.92634142569229,-0.7115911841392517,1.0508954524993896,-0.1764768809080124
20.26325,0.8210067329026758,-0.0113777185827493,0.7136066808916628,-1.555727367363125,-9.471006425026058,2.0124908921428024,-0.7601962089538574,0.9917010068893432,-0.2522373497486114
20.27330712890625,-0.7826793403349817,0.4922486796587705,0.3276718654423952,-1.5706714001253246,-9.448806868177652,2.1031908615045247,-0.8419435620307922,0.8680956959724426,-0.4760398268699646
20.283364013671875,-1.8126314598821105,1.018630515065789,-0.174047822394967,-1.609730467968434,-9.42018341576159,2.199841555964201,-0.9307507872581482,0.6838071346282959,-0.6925164461135864
20.2934208984375,-2.0460827806212007,1.2374381011635065,-1.1088559987835584,-1.6688206625796853,-9.386253673630952,2.2986248785384,-0.9522608518600464,0.4288160800933838,-0.8085141777992249
20.30347802734375,-1.698681840097159,0.826620919522643,-2.281203057485819,-1.739391890017688,-9.349980583244562,2.392234597866982,-0.9289700388908386,0.1478926241397857,-0.8247144818305969
20.313534912109372,-0.9917400239221752,0.3207540488779544,-3.1877170134127137,-1.816209756760299,-9.312928909701109,2.478136080905795,-0.9013344049453736,-0.1740942150354385,-0.806641161441803
20.323591796875,-0.4264768153265118,-0.1256605158448219,-3.9081820357665418,-1.9012858948908744,-9.27592107529938,2.552016725152731,-0.8163796067237854,-0.5422909259796143,-0.8163869976997375
20.33364892578125,0.1437923848628997,-0.9723901574164628,-4.675921142731607,-1.990918819542974,-9.24082521199882,2.6103236604318023,-0.685292661190033,-0.646533191204071,-0.7561662793159485
20.3437060546875,1.968394706915319,-2.54094061986506,-4.715641158701479,-2.072392841528356,-9.210700122848152,2.653036720737815,-0.4994620680809021,-0.5469129085540771,-0.6461952328681946
20.353762939453127,2.9606758519768714,-3.9500592297703023,-4.700137300099432,-2.135724180840701,-9.1878231051296,2.681975230452418,-0.3132136166095733,-0.2282467633485794,-0.4872838854789734
20.363820068359374,3.66375719333142,-4.747273437544703,-4.56946947748661,-2.173815572695434,-9.172615599125622,2.703339213259518,-0.1662202924489975,0.1896127015352249,-0.3304061889648437
20.373876953125,3.597523848967254,-4.851866030919552,-4.537592576232552,-2.187788422337919,-9.163492381471396,2.722937939959764,-0.0811658501625061,0.5870437026023865,-0.2099519670009613
20.383933837890623,3.1195980014324185,-4.301403062701225,-4.574529098963737,-2.184362977933884,-9.158200120282173,2.7434134494945406,-0.0063434718176722,0.8778811097145081,-0.1661623567342758
20.393990966796878,2.735355230723321,-3.180020029169321,-4.564423592273891,-2.1715207397565246,-9.155656281018256,2.7620389472484588,0.0768701955676078,1.1123863458633425,-0.1529237776994705
20.4040478515625,3.514021682155132,-2.672521757930517,-4.035432743412256,-2.149177390523255,-9.156180597153304,2.7777280992895363,0.1406166404485702,1.280241847038269,-0.0750434547662735
20.414104736328124,4.772818797689676,-2.530928344416618,-3.323813875336945,-2.110467136117816,-9.160706550145148,2.7924507443860174,0.1530317664146423,1.3498547077178955,0.1344487816095352
20.42416162109375,6.004510464155674,-3.118765642261505,-2.876439233410358,-2.044650117469579,-9.171269445213674,2.806708110058308,0.1373994946479797,1.294206976890564,0.4867014586925506
20.434218994140625,6.345494815635681,-4.412067669466138,-3.342859352068603,-1.949889912931621,-9.18849413625896,2.817781000475585,0.1599777787923813,1.1285954713821411,0.8108230829238892
20.44427587890625,6.615688890099525,-5.097083485037088,-4.326614076325297,-1.832523470440507,-9.2120123744905,2.819763406464457,0.2215147167444229,0.8990623354911804,1.1073439121246338
20.4543330078125,6.772481041789055,-4.649992043966055,-5.235455013895034,-1.691536206126213,-9.242511557650566,2.808033513443172,0.3373337388038635,0.6800719499588013,1.4623653888702393
20.46439013671875,6.190061092817783,-3.919759953096509,-5.826728131407499,-1.5186739402540028,-9.281119812986256,2.7793580385789274,0.4870692789554596,0.4762594997882843,1.9113651514053345
20.474447021484377,4.884181908112764,-3.233215612784028,-6.221874281185865,-1.3061976030044258,-9.327962812703849,2.7300807974517345,0.6594756841659546,0.1153918355703353,2.453778028488159
20.48450390625,4.632100997966528,-3.180062699267268,-6.147708974778652,-1.0541156699448824,-9.381115141698718,2.655915783305466,0.8834717273712158,-0.4595972299575805,2.9857983589172363
20.49456103515625,1.2628735711932182,-2.1341011096835136,-6.762382841622829,-0.7722117223344743,-9.437225151455404,2.552029584634304,1.167611598968506,-1.0832005739212036,3.373016119003296
20.504617919921877,-0.9549311461586504,-1.7504513364315033,-6.035601767989993,-0.4779990954341366,-9.491972640687226,2.4175144389435648,1.4661433696746826,-1.7169923782348633,3.509592056274414
20.514675048828124,-2.9841034893155096,-1.601922570696473,-4.514887700210512,-0.1924030518401414,-9.540990061834457,2.2589510397978128,1.695881485939026,-2.33728289604187,3.435239315032959
20.52473217773437,-4.473853971293568,-2.359196397748589,-2.7654768127426506,0.0713660676101222,-9.581733575633168,2.0870197711654006,1.8345688581466677,-2.837363004684448,3.21659517288208
20.5347890625,-5.501206137475371,-4.114451919591427,-0.5633714034996926,0.3060879380079917,-9.61345090241134,1.9126535304710268,1.872474670410156,-2.971508026123047,2.8505561351776123
20.544845947265625,-6.051545187053084,-5.271377391147613,2.334029953918606,0.5097164222123101,-9.635520110878348,1.7513757578000426,1.6409894227981567,-2.429660558700561,2.404165029525757
20.554903076171875,-5.939935408392548,-5.485253366062045,4.494874255229533,0.6918452231995761,-9.646400401332974,1.6244059129223227,1.1771080493927002,-1.0218247175216677,1.978382468223572
20.5649599609375,-5.69520661457479,-5.567608993187546,5.289225767049193,0.862211361407116,-9.647841832312942,1.5317049790017303,0.7720873355865479,0.6403161883354187,1.6111600399017334
20.575016845703125,-4.727514844107628,-5.320538020157814,5.937733514434099,1.028024293289706,-9.643521046504375,1.454663678766787,0.5838900208473206,2.079500436782837,1.3982714414596558
20.585073974609376,-3.5936283028334377,-4.869249711918831,5.897661031764746,1.190897226197645,-9.638713938483596,1.359164200168848,0.8390960693359375,3.0335052013397217,1.1962507963180542
20.595130859375,-3.738520757892728,-4.869247373831272,6.0397840221107,1.335789608191699,-9.638716276571154,1.2170413559533655,1.2920116186141968,2.9428470134735107,0.975367546081543
20.60518798828125,-1.9767678368546069,-3.2788387153178453,7.886931061187386,1.4525868724927304,-9.642516837897896,1.040298522320762,1.5798914432525637,2.043037176132202,0.865588903427124
20.61524487304688,0.5579429487101734,-1.321731418353319,11.29337675024271,1.5503008122697473,-9.644609426262974,0.8651272488538175,1.4722379446029663,1.3004244565963743,0.8361844420433044
20.625302001953123,2.433738574644178,-0.8330261103898287,11.545491562658547,1.641940838960558,-9.641156070938706,0.7228468759890645,1.0620768070220947,0.976633608341217,0.8741634488105774
20.63535888671875,2.822740376448631,-0.9937830740571022,8.60621973323822,1.7349216127358376,-9.631683893716335,0.6253730285782366,0.5918903946876526,1.2291194200515747,0.8519689440727234
20.645415771484377,0.7950489925645291,0.1768126109331846,5.517054279470443,1.8059516898572443,-9.62283481682837,0.5567364224646241,0.5320554375648499,0.54180908203125,0.4616053104400635
20.655472900390624,-6.268834185281396,0.7866939828038215,0.5281615584306418,1.8310317705780264,-9.621597383987902,0.4925165368147194,0.7537436485290527,-0.1130313277244567,0.0848518833518028
20.66552978515625,-5.433781537500024,0.7776485065609217,-1.568162924435735,1.837840135418624,-9.624374447485804,0.4051794680148363,1.0424264669418335,0.2938226461410522,0.094036765396595
20.675586669921877,-0.973688088272512,0.806546099743247,-1.7415050827793777,1.8587949529029428,-9.624840895953774,0.2787975242939777,1.3414427042007446,0.790320873260498,0.3136548697948456
20.68564404296875,-1.2455419126421212,1.399115102285147,-2.349603516755998,1.901403529921174,-9.6197555555135,0.1238938897647894,1.5044546127319336,0.8232062458992004,0.5182672739028931
20.69570092773437,-2.84422740111351,2.0647949337452647,-1.9186137540496884,1.9561283689297733,-9.609522915312647,-0.0320620462793274,1.4588260650634766,0.3172615170478821,0.5815788507461548
20.705758056640622,-4.883046182081103,2.6452935592651365,-1.3578081093847751,2.009555423212796,-9.597157939258215,-0.1632580780343152,1.2748937606811523,-0.4588592648506164,0.5181697010993958
20.71581518554688,-5.5106280458152295,3.261086201006174,-1.0007299705855548,2.0586383108116686,-9.58462111376822,-0.2596676937471143,1.0283417701721191,-0.8959598541259766,0.4702967405319214
20.7258720703125,-4.221481384724378,3.657525313204527,-0.3205838799428194,2.10560552143082,-9.57225087701678,-0.3298907105356454,0.8601831197738647,-0.9862526655197144,0.4497541487216949
20.735928955078126,-3.3512340894430874,3.671144673234224,-0.0788196350190788,2.1545823183067143,-9.55923474357724,-0.3862540739988908,0.768412709236145,-1.05410635471344,0.5019814372062683
20.745986083984373,-3.1232813661202785,3.647442310607433,0.3029133448261767,2.2107918429151177,-9.544361584094164,-0.4335472286367788,0.7290436625480652,-1.1290792226791382,0.5685940384864807
20.756042724609376,-3.169896986822784,3.328645241016149,0.9017105011679232,2.2704256428837777,-9.528431024512647,-0.4738965920187533,0.6759433746337891,-1.3308403491973877,0.5558153390884399
20.766099609375,-3.60831120044142,3.180392369613051,1.3819773588709532,2.3286108514793216,-9.512907292166352,-0.5025573807705194,0.6163893342018127,-1.5766310691833496,0.5128796696662903
20.776156494140626,-2.6417747374892238,2.7435248009145257,2.6729846992671487,2.3817045821547507,-9.498764785045385,-0.5208968281246722,0.5579542517662048,-1.5996415615081787,0.4255013465881347
20.78621362304688,-2.561315883895755,2.9419658908098936,3.493362632746994,2.4266417482510207,-9.486665766450765,-0.5338300690537319,0.4875593185424804,-1.4688057899475098,0.343563824892044
20.7962705078125,-2.73831378826797,3.4389509513407943,4.115008092169464,2.4622327015921472,-9.476977900651097,-0.5428592517489567,0.3905776441097259,-1.237518548965454,0.2499119043350219
20.80632739257813,-2.756116571462154,3.838768015539646,4.191887041449546,2.488115623128414,-9.470079957830905,-0.5452188570197671,0.2617043554782867,-1.0703994035720823,0.1666731536388397
20.816384521484373,-2.2124153524637222,4.219009441652894,3.947647784714401,2.5072014318704605,-9.465303829470276,-0.5406988588446751,0.1804978996515274,-0.9435191750526428,0.1204729080200195
20.826441650390624,-1.90929077603966,4.321968296346068,3.442525302696228,2.519961252461373,-9.462319260701536,-0.5335702856063842,0.1457095295190811,-0.8464093804359436,0.0371676646173
20.83649853515625,-2.1931135628834366,3.962677888324857,2.720128435496986,2.5217177407398816,-9.462456623345613,-0.5227000416217371,0.1057431921362876,-0.9952625036239624,-0.0998080372810363
20.8465556640625,-1.396889535190165,3.390992683857679,2.198896091807633,2.510491997848451,-9.466577502667905,-0.5017062073012813,0.0292487237602472,-1.1572327613830566,-0.2483271956443786
20.856612548828124,-0.2977721094802021,2.414839374515414,1.6921940855130553,2.486521047413349,-9.474441660171747,-0.4717496796505525,-0.0415181219577789,-1.1702089309692385,-0.3711620271205902
20.86666943359375,-0.0184071788281202,1.356370770058036,0.7093067917406558,2.4507667202040557,-9.485433594307302,-0.4366671872882172,-0.0636728703975677,-1.2174577713012695,-0.4930977821350097
20.8767265625,0.0301255275420844,1.3703203849554062,0.6743539171073585,2.4022332831814883,-9.499383209204671,-0.4017140203939751,-0.0426323041319847,-1.2136366367340088,-0.6314870715141296
20.886783447265625,1.3599391300641,-0.3461819201231003,-0.0510637957504019,2.34149649040699,-9.515833408746122,-0.3697171094894409,-0.0406634882092475,-1.158650040626526,-0.7257490754127502
20.89684033203125,2.3845702007189398,-0.9591630115747452,-0.1120452840009704,2.275443471045792,-9.53297568220496,-0.3392615828080103,-0.044461153447628,-1.1071217060089111,-0.7199735045433044
20.906897705078126,3.683838735112547,-1.2635258976221084,-0.1811158245524391,2.2141274170786143,-9.548389524435995,-0.3102941392598674,-0.0666859596967697,-0.9857615232467652,-0.6241908669471741
20.91695458984375,4.5695618319451805,-1.4461135848253963,-0.6061562138676643,2.163531786829233,-9.560779634931682,-0.2846364778468385,-0.0483988299965858,-0.8090314865112305,-0.4843775629997253
20.92701171875,4.936389065212011,-1.462778303900361,-0.9381606286216526,2.124709888742864,-9.570002221307158,-0.2665716644492931,-0.0072050169110298,-0.6277257800102234,-0.3673098087310791
20.93706884765625,5.0564685660541056,-1.535526729246974,-1.3305736271090804,2.095610343247652,-9.576710779035093,-0.2557345372829586,0.0435955785214901,-0.5584763884544373,-0.2703062891960144
20.947125732421878,5.215576593470573,-1.7629630274802446,-1.5539999590486286,2.075515941984952,-9.581214520195124,-0.2509288723005913,0.0940119326114654,-0.5522820949554443,-0.1738354414701461
20.9571826171875,5.027048410302401,-2.033629980152845,-1.8078281512536107,2.06427748574242,-9.583634440818429,-0.2511851668829098,0.1528875082731247,-0.5539228320121765,-0.0926058292388916
20.967239501953124,4.115421641406416,-2.2931676360458133,-2.3063024274289607,2.058775235064328,-9.584616437593102,-0.2587854675524867,0.2581577599048614,-0.6037853360176086,-0.0592965595424175
20.97729663085937,4.120838405758143,-2.292566747543216,-2.2863167472377417,2.053358762973547,-9.5852173260957,-0.2787709102816879,0.4250774979591369,-0.6951496005058289,-0.0952276661992073
20.987353515625,2.4744942172721025,-2.242574343883991,-2.6300197100266813,2.0442615565434097,-9.5862770642817,-0.3076658365828916,0.5068156719207764,-0.8899984955787659,-0.143090933561325
20.997410400390624,0.8590120539091527,-1.582567881885171,-2.3858308683045206,2.0309389875032005,-9.588028291863202,-0.3396683369779959,0.5405579209327698,-0.8180398344993591,-0.1991283744573593
21.0074677734375,0.5054691034987568,-0.7998129920959473,-1.7737226141646505,2.014427705424279,-9.59027344044149,-0.3729783763077109,0.4615740776062011,-0.77299964427948,-0.190653994679451
21.01752465820313,-0.2239515248574316,0.7600777785569429,-1.3749378156229852,1.9999999516211449,-9.59243675595522,-0.3943770651020109,0.3068604171276092,-0.7510432004928589,-0.1809523552656173
21.02758154296875,-0.8154957143962382,2.453642860162258,-1.3840987349390983,1.9804243135355413,-9.59614496282339,-0.4028733830295503,0.1486922204494476,-0.6086227893829346,-0.3045574724674225
21.037638671875,-1.284735274389386,3.996090913105011,-1.0133055206507444,1.9414950095519423,-9.604358664417266,-0.3965801281042397,-0.0672968104481697,-0.4882154166698456,-0.5520625710487366
21.047695556640623,-1.9141028524965047,5.37569350566864,0.2513616194283589,1.876993019025028,-9.618368485069274,-0.3664328271217644,-0.3923913240432739,-0.4189439117908478,-0.8171269297599792
21.05775244140625,-1.542874315530807,5.910545647779107,1.9687369444817304,1.7866335336640475,-9.637868719831108,-0.2996790938789956,-0.8634248971939087,-0.3128483593463897,-1.0733530521392822
21.0678095703125,-0.534872600376606,5.318516158941388,3.568739653031528,1.6719688974775373,-9.661298695257306,-0.1849844644130207,-1.4211714267730713,-0.1232402175664901,-1.2905484437942505
21.077866455078127,0.8009751677431166,3.5791830133736133,4.6229310185611245,1.541601811376959,-9.684697691023349,-0.0223229297830373,-1.892480969429016,0.0790638849139213,-1.3670382499694824
21.087923583984374,2.59787889713943,0.5911614738315344,4.9161155079901215,1.4171974330730734,-9.702145669430491,0.1741068043068982,-2.169339418411255,0.2787961363792419,-1.13132643699646
21.097980712890624,5.417701924836635,-4.142665037640929,5.027348854553699,1.3382861011825502,-9.707342653551695,0.3832474395288154,-2.171463966369629,0.5323613286018372,-0.4740833640098572
21.10803759765625,7.184521627745032,-11.530318543446064,5.176279771348834,1.3235732468277217,-9.700713590800762,0.5609752656107768,-1.552239179611206,0.5781590938568115,0.0618513077497482
21.118094482421878,1.8631198303647336,-17.446377986210585,4.812115035289525,1.3383769943363963,-9.692347328993678,0.6614786534432321,-0.6569038033485413,0.3427556753158569,0.1342160403728485
21.128150634765625,-3.528164189276099,-16.470330475330353,4.824885669535398,1.346896985400468,-9.688866501140597,0.694347780605033,-0.1583861708641052,0.2236398756504058,-0.0040222899988293
21.138207763671875,-4.230329877090454,-8.790251774030923,4.422357008290291,1.3433714416228233,-9.688794604948162,0.7021322970014066,-0.0922950357198715,0.1442800760269165,-0.0807775184512138
21.1482646484375,-4.130865294253826,-0.8389929098397493,4.019154977828264,1.3333904380954802,-9.68936042213738,0.7132837325476109,-0.1993841975927353,0.2963534891605377,-0.1667515635490417
21.158321533203125,-3.8270454290419815,5.665255712947249,3.794091253945232,1.3153785421952604,-9.690356447437406,0.7328953187294304,-0.3105088472366333,0.4968927204608917,-0.2520842850208282
21.168378662109376,-3.4639006836801767,6.2593637616246935,3.3523566637322304,1.2913126069530845,-9.691601479062438,0.7587867888983338,-0.36625736951828,0.6111507415771484,-0.3356547355651855
21.178435546875,-3.6289001072227953,6.077819445994496,3.3498590016976,1.2554980739891528,-9.693812140849232,0.7900149439200759,-0.4628864526748657,0.7349997162818909,-0.5140862464904785
21.188492431640626,-4.018147262090444,5.462612495186924,3.363014543607831,1.2009199499748646,-9.697208797550202,0.8320756777971983,-0.5962299108505249,0.7900993227958679,-0.7305757403373718
21.1985498046875,-4.19158192102313,4.751558567517995,3.1662086536988614,1.128799228072539,-9.700971949476004,0.887324248418957,-0.7188623547554016,0.7205803990364075,-0.8644994497299194
21.208606689453124,-4.148302166745067,3.7580502187490463,2.576353294029832,1.0499061624910682,-9.703602297979591,0.952999155182764,-0.7545760273933411,0.5811761021614075,-0.8584332466125488
21.21866357421875,-3.4215509037286043,2.594616680473089,1.909547673410177,0.9784179663386195,-9.704648592162131,1.01631639290452,-0.6422521471977234,0.5239328145980835,-0.6944112777709961
21.228720458984377,-2.627328863507509,1.6607903547286986,1.613043391908705,0.9314859731633216,-9.70396236346364,1.0657691367290911,-0.4706305861473083,0.4983845055103302,-0.3617271184921264
21.238777587890624,-2.44803948719725,1.1914993568092584,1.640255808483064,0.9205391933437436,-9.700942138859627,1.1021524825569242,-0.3794543445110321,0.436798632144928,0.0347941294312477
21.24883447265625,-2.6781232311993834,0.8335112635582685,1.7152838691994547,0.9471155039716512,-9.694450438752767,1.1362100888509303,-0.4100564122200012,0.3350811004638672,0.4136675596237182
21.258891357421877,-3.425442650470137,0.1790922463029623,1.6576770450137557,1.0053539040591568,-9.683323480060697,1.1802001102901996,-0.5546977519989014,0.1692471504211425,0.7005874514579773
21.268948486328124,-4.601579602974653,-0.8245780155181884,1.326524790109694,1.0752198327720164,-9.667711484909058,1.244847939028591,-0.79549640417099,-0.1519213020801544,0.6807715892791748
21.27900561523437,-5.87286736676991,-2.406495909062028,0.7470023161455989,1.1169356987342238,-9.649954294422267,1.3420881238140163,-1.1200995445251465,-0.6289232969284058,0.2197333723306656
21.2890625,-6.904601109036803,-3.5723715797930957,-0.922945889159292,1.0850450612157585,-9.634942603251336,1.4700208223745226,-1.2793077230453491,-1.0714114904403689,-0.6729341745376587
21.29911962890625,-6.902617826265097,-4.264068480563164,-3.346550023280084,0.9495850358903408,-9.629034840512276,1.5969873062513769,-1.0385459661483765,-1.295374035835266,-1.73516845703125
21.30917651367188,-5.787807741382718,-3.961256915611029,-4.589365433567762,0.7170381166450679,-9.633468439045547,1.6889391753703356,-0.6128162145614624,-1.511145830154419,-2.5453617572784424
21.3192333984375,-3.6510862200677394,-2.8865286657482385,-4.7135593839913605,0.421756910665147,-9.641729486912489,1.7405594724923372,-0.285510778427124,-1.5417882204055786,-2.9357738494873047
21.32929052734375,-0.6249778187155723,-1.8000690615594386,-4.424293529310822,0.1120201495597139,-9.646309215918183,1.7625399797625838,-0.1050925999879837,-1.15948224067688,-2.903552532196045
21.33934765625,1.7474352034807203,-0.6842004075348377,-4.205302987861633,-0.169805417318549,-9.644684829586744,1.7668085969924925,0.0133602768182754,-0.3830724954605102,-2.590167284011841
21.349404541015623,1.976274354249239,-0.6894593509763479,-4.1971696580275895,-0.3986456457993015,-9.639425301623344,1.758675413288921,0.1707355231046676,0.5402132272720337,-2.1537768840789795
21.359461669921878,2.8109400485396385,0.2441805122852325,-4.2631598412856455,-0.5693690364792943,-9.635136664518711,1.7350322335034607,0.4342345297336578,1.4948360919952393,-1.747392654418945
21.369518798828125,2.8789561846673486,1.0164362198919057,-4.272901775360107,-0.690057243804261,-9.634963061517476,1.6916531105041503,0.7112907767295837,2.494197130203247,-1.4687708616256714
21.37957568359375,2.815582321387529,1.8411206183940168,-3.530989183568954,-0.7755725770696997,-9.637537295919657,1.6391209592342375,0.8027094006538391,3.4706921577453613,-1.349623441696167
21.3896328125,2.3830665181577206,2.455649523809552,-2.120135128173232,-0.8446419485773891,-9.639000938731431,1.595804964599013,0.7343484163284302,4.272008419036865,-1.3909142017364502
21.399689697265625,1.9651286908566952,2.032496007686853,-0.999104269079864,-0.913326485485956,-9.637077861714362,1.5693730308778584,0.6393819451332092,4.774179935455322,-1.5315473079681396
21.40974658203125,1.6481658509552477,0.9757441440194844,-0.3503397704549134,-0.9961943729825318,-9.630483870276809,1.559411462703347,0.5087054371833801,4.750433921813965,-1.7413994073867798
21.419803466796875,0.9870727627635002,-0.2688192789793014,0.2752111719734966,-1.1048371185310184,-9.617737201428412,1.564882441460341,0.3595567047595978,4.1774001121521,-1.953885078430176
21.42986059570313,0.5751439666189253,-1.2662000852674244,0.4960805129066109,-1.2404326068043707,-9.598985739207269,1.57834558801502,0.2677928805351257,3.174752712249756,-2.040047645568848
21.43991748046875,0.5154258493676781,-1.8228595700383183,0.4479563873372972,-1.390805539101362,-9.576531330814955,1.5893594417214392,0.2031662166118621,1.9493210315704343,-1.8916904926300049
21.44997436523437,1.126620349663496,-1.857944911944866,0.7419166834443807,-1.534233036174625,-9.553568972900509,1.5955724710173904,0.0763126611709594,0.8721781373023987,-1.529943823814392
21.46003173828125,2.3846482343912125,-1.3345248489528894,1.2225627497233449,-1.6500775297954675,-9.53215793608129,1.607982016865909,-0.1821050494909286,0.1784284263849258,-1.039138913154602
21.470088623046877,3.580682896542549,-0.3864379426658153,1.621486518344283,-1.724727989371121,-9.51328664687276,1.6410621564298866,-0.5010082125663757,-0.086243912577629,-0.5300822257995605
21.4801455078125,4.026072209870815,0.4937649294406175,1.409736303412169,-1.7547231685318052,-9.497459547665716,1.6998828864499926,-0.7579545378684998,-0.1236434802412986,-0.0683319047093391
21.49020263671875,3.6481647796630856,0.795072519570589,0.566170094307512,-1.7464204734802244,-9.4845270008564,1.778800794211775,-0.923411786556244,-0.0866973474621772,0.258463054895401
21.500259521484374,2.609365336793661,0.9006669834643601,-0.3682401688046753,-1.7167774687580764,-9.472507477238771,1.869404609722644,-0.9946867823600768,-0.0871575400233268,0.364301860332489
21.51031640625,0.8916961798928678,0.6628752954334021,-1.3652788836568592,-1.6886664959087967,-9.458725035601852,1.9624827063925565,-0.9846561551094056,-0.089211918413639,0.2350696772336959
21.52037353515625,-0.7578840679049491,0.277727392578125,-2.228218486273289,-1.6824065587311985,-9.440936280933022,2.051496330102533,-0.906531035900116,-0.022651532664895,-0.0994260162115097
21.530430419921878,-2.118804317960888,-0.076586396074295,-2.919407437521219,-1.7098232657060026,-9.417771093922854,2.1336603801786898,-0.8004708886146545,0.1817044615745544,-0.5084809064865112
21.540487548828125,-2.084053176444769,-0.130917705720663,-2.9135563734054566,-1.76791816566959,-9.389475558286906,2.209661377580464,-0.6912853121757507,0.4533977508544922,-0.849965512752533
21.550544677734376,-1.0021709631741047,0.0039677345871925,-2.7669144443303346,-1.844235243283212,-9.3579639832139,2.279843897961825,-0.5847760438919067,0.6390066146850586,-1.0074856281280518
21.5606015625,0.5033969733998179,0.1190747077137231,-2.558010997131466,-1.922260586119443,-9.32627763609588,2.3443286450929937,-0.520882248878479,0.6870191693305969,-0.965331733226776
21.570658447265625,1.6728689150571825,0.1250233869850635,-2.373445141723007,-1.99069889318198,-9.296611396628618,2.4042704880975188,-0.4851422011852264,0.6478385925292969,-0.8354474306106567
21.5807158203125,2.401883592960983,-0.2184533658325672,-2.3374498453646897,-2.046644213896245,-9.269169262951612,2.4625465898469088,-0.4953543543815613,0.5947545766830444,-0.6886984705924988
21.590772705078123,2.766957698950171,-0.9645908818423748,-2.637262520761788,-2.0889485472708937,-9.243983383768796,2.520993810379505,-0.5088036060333252,0.5209354162216187,-0.5188875198364258
21.60082958984375,2.6207600065112118,-1.5232652135670184,-3.038615416225791,-2.117079978386313,-9.22191183721423,2.577731596645713,-0.4972686767578125,0.4198058843612671,-0.3454073667526245
21.610886474609377,2.2273970868878066,-1.9756740502685308,-3.3627877491146325,-2.1314785060949624,-9.20330066024661,2.6318074702262875,-0.4844401180744171,0.3895641565322876,-0.1966053545475006
21.620943603515624,1.7607120336830615,-2.444561143562197,-3.736560271474719,-2.133459012387693,-9.187667037785053,2.684308641836047,-0.4525546133518219,0.4528965353965759,-0.0924786850810051
21.631000732421874,1.2961189843215049,-2.877627566412091,-4.012521238902211,-2.12571015182659,-9.174484315606952,2.735064723344147,-0.4118165969848633,0.5595224499702454,-0.046512234956026
21.6410576171875,0.8474703769363462,-3.1577520832598207,-4.257022361443936,-2.1150503722548484,-9.162360162571073,2.78354058496058,-0.3606727123260498,0.6306493282318115,-0.0965224057435989
21.65111474609375,0.8457926529824733,-3.3307395829468964,-4.485264130841196,-2.111427505582571,-9.149934396240116,2.826830276110768,-0.2753242254257202,0.6536286473274231,-0.2245723903179168
21.66117163085937,1.4764555315971373,-3.120726713201404,-4.708979070463776,-2.119897081633657,-9.137736008924245,2.859757563200593,-0.1481716185808181,0.606258749961853,-0.3474999070167541
21.671228515625,2.6901439238607883,-2.828629434487224,-4.479994373744726,-2.1375318147845563,-9.126815386459231,2.881415560518205,-0.0514060705900192,0.6082391738891602,-0.3992570638656616
21.68128564453125,4.506073986896872,-2.8164380614340305,-4.154533170089126,-2.151077086664736,-9.118655460879204,2.897127801173925,0.0213102120906114,0.7317406535148621,-0.2922784388065338
21.69134155273437,6.182186413919926,-3.212761438298225,-3.811710205005109,-2.14002538516596,-9.116777976569534,2.9111908133178948,0.0544982030987739,0.9039225578308104,0.0386963114142417
21.7013984375,6.932464682996272,-4.001279713919758,-3.720427467319369,-2.086899359656125,-9.12478125028312,2.924654690524936,0.0914231985807418,0.9760931730270386,0.5259410738945007
21.711455322265625,6.777550015616416,-4.663525479277968,-3.7508597227230656,-1.98690271576941,-9.144133601006866,2.9338381139338017,0.1245681568980217,0.861046314239502,1.0502794981002808
21.72151245117188,5.957372280883789,-4.669291203197837,-3.954257850503921,-1.8471262885496016,-9.173233438763022,2.934327651016414,0.1775421500205993,0.5993592739105225,1.499117732048035
21.731569580078126,4.472129047197103,-4.420689951860904,-4.5756437822073694,-1.6803401277206838,-9.209498930364846,2.9209508675709364,0.2676471173763275,0.1574513167142868,1.851466178894043
21.74162646484375,4.288769206577539,-4.379272484323383,-4.544321592226624,-1.4969802871011195,-9.250917566946148,2.889628677590191,0.3652413189411163,-0.4204122722148895,2.17870569229126
21.751683837890624,2.924866871970892,-3.795984520345926,-5.006070504203438,-1.2993534361980854,-9.29565921047032,2.841263290610909,0.4454192519187927,-1.0591357946395874,2.5168089866638184
21.76174072265625,1.9444342778742312,-3.009938187795877,-5.28548307338953,-1.0868614629879594,-9.341448901742696,2.7796517608284947,0.5298491716384888,-1.6290961503982544,2.825427770614624
21.7717978515625,1.265244391977787,-2.3573306038767097,-5.515412942004203,-0.8604742354162037,-9.386527814397216,2.7061168612793085,0.6584472060203552,-2.0006344318389893,3.045230865478516
21.78185498046875,0.9554407761812208,-1.9642022236615415,-5.497511959132551,-0.6204023274935782,-9.429803477022052,2.619980838832259,0.8329537510871887,-2.205334186553955,3.2166433334350586
21.791912109375,0.7163444352924824,-1.7191963664680718,-5.094803265145421,-0.3675391078632324,-9.47025531439781,2.519839671908319,1.0429792404174805,-2.2251951694488525,3.303431510925293
21.801968994140623,0.3027086890995502,-1.7621493730098008,-4.315636170715093,-0.1060851426206994,-9.507058566138149,2.403117957061529,1.2904138565063477,-2.241879940032959,3.323768138885498
21.812026123046877,-0.8554080380678176,-2.3653414763748644,-3.40464243902564,0.1558523318224586,-9.53922772833705,2.2691923016965387,1.5054560899734497,-2.342347383499145,3.2539777755737305
21.8220830078125,-2.907877158725261,-3.34761122277081,-2.058379659875482,0.4069837044252082,-9.563571311476826,2.1314031027711926,1.4515728950500488,-2.36682391166687,3.0473036766052246
21.832139892578127,-5.281421815299987,-4.068157201406359,0.4149477055743336,0.6396631274763495,-9.575051321390273,2.019805452939868,1.0618664026260376,-1.8073484897613523,2.696884632110596
21.84219702148437,-6.629999739524722,-3.630727322649956,2.9096716409265992,0.8529404789105057,-9.572846504822373,1.9502581617221235,0.5512204766273499,-0.5112002491950989,2.216303825378418
21.85225390625,-7.051099830248951,-3.66147200500369,4.536730114184319,1.0500334421325477,-9.56080593841672,1.912800245465338,0.1887802630662918,1.1340166330337524,1.7707873582839966
21.86231103515625,-6.660170421382785,-4.144696835729479,5.324570052152872,1.239847354262322,-9.545797169855236,1.8737465844497083,0.2072104066610336,2.7307140827178955,1.4370248317718506
21.8723681640625,-5.170015450257063,-4.27155386788249,6.042475745412707,1.427279705017805,-9.535058918219804,1.7932970832064747,0.6463958621025085,3.2972500324249268,1.2829581499099731
21.882425048828125,-2.803292748656869,-3.818810100138187,7.616058356809615,1.5979621426329016,-9.53230582011938,1.6589290909014642,1.2207778692245483,2.337656021118164,1.240286350250244
21.89248193359375,-0.7999591225683689,-2.1357494614124297,11.186783338439463,1.743424214273691,-9.532541966962814,1.503832052692026,1.3631577491760254,1.002262830734253,1.239974021911621
21.9025390625,0.7554980495512486,-0.533309588843584,14.502787709069253,1.866452189657837,-9.528921438378095,1.3734620439819991,0.9971755146980286,0.8896050453186035,1.0451340675354004
21.912595947265626,0.696065032851696,0.4277414284348487,7.1655521388590335,1.969429602921009,-9.521667521727084,1.2765525524556636,0.5277061462402344,1.608290433883667,0.752585768699646
21.92265283203125,-3.085343849653005,0.9942693962693214,2.3336682809993623,2.048804168409109,-9.514036003935336,1.20660764022246,0.2598558068275451,1.6039389371871948,0.4733892679214477
21.932709716796875,-6.200593008226156,0.8062421483606099,-1.3982457721047103,2.095733531235904,-9.510061839607358,1.1562816206946969,0.2895227968692779,0.8016383051872253,0.2030926048755645
21.94276708984375,-5.6869987581998105,-0.1040291142731904,-4.471373844915628,2.108565101888776,-9.513029457241297,1.1075203662656248,0.614413857460022,-0.0722886174917221,0.0118504762649536
21.952823974609377,-1.767822157949209,-0.9262696267545224,-5.5718976302921766,2.111090967104584,-9.521277645626665,1.0290494716189802,1.072436809539795,-0.0141806881874799,0.0988565608859062
21.962880859375,-0.5603729523360729,-0.6407850441783666,-4.878052027055621,2.136954891679436,-9.528286647605896,0.9030788669116796,1.4042320251464844,0.5492728352546692,0.3994443714618683
21.97293798828125,-2.1146721865922213,0.2735410468041896,-3.960000778070092,2.195327001149207,-9.528626839345693,0.7457851954407989,1.53797447681427,0.7779178619384766,0.6817612051963806
21.982994140625,-4.762312601244449,1.7455740857839583,-3.4795074181348085,2.267404541496932,-9.522987372153995,0.584768156065233,1.4971766471862793,0.4576607644557953,0.6843196749687195
21.993051025390624,-6.486442916983366,2.8380419904768464,-3.08830036137104,2.321579345407337,-9.517416294023397,0.4465982141939923,1.353030800819397,-0.3617424070835113,0.4349091351032257
22.00310791015625,-5.039057997047901,3.019492782604694,-1.721909424819052,2.3520154002033173,-9.51436450523734,0.3395570220906287,1.185205578804016,-0.7921148538589478,0.2600030899047851
22.0131650390625,-4.63849332935214,2.827115522792935,-1.5419566161639988,2.367293633355945,-9.513222933986782,0.2547738390246406,1.0653334856033323,-1.085037112236023,0.1224454641342163
22.023221923828125,-4.36551225451827,2.7921289650857446,-1.4235028168275952,2.373087414326519,-9.513401213163135,0.1845033480988815,1.0105592012405396,-1.3456623554229736,0.069680780172348
22.03327880859375,-4.001469099012017,2.820595765635371,-0.418721999948658,2.37805073582232,-9.513137593790889,0.1243849246847443,0.9567604064941406,-1.4963359832763672,0.0868843495845794
22.0433359375,-3.993065427803993,2.9062469271749256,0.847907672375068,2.3835635078944266,-9.51229763583541,0.0720642972736619,0.8777960538864136,-1.526901125907898,0.0680043995380401
22.05339306640625,-4.117805321672559,2.889715479090809,1.969205731037259,2.39008925640136,-9.510880170252918,0.0318977842118823,0.7569022178649902,-1.706610083580017,0.09930020570755
22.06344995117188,-3.85858506116569,2.930568298482895,2.73186125112772,2.401563421095908,-9.508038224825263,0.008901008004602,0.6266262531280518,-1.8732376098632808,0.1537506580352783
22.073507080078127,-3.731159289214015,2.8239462451070545,3.3009587771892543,2.420184242674708,-9.503319964131713,0.0018422528806768,0.5230018496513367,-2.0443601608276367,0.2313800156116485
22.08356396484375,-3.592806757317484,2.8603344863057134,3.659359542894363,2.444039019384235,-9.497212294906378,0.0057142996933078,0.4442567229270935,-2.030435800552368,0.2656991183757782
22.093620849609376,-3.264942584173381,2.9620237594544885,3.8251673602104175,2.471414371435344,-9.490115030121803,0.0155809584092698,0.3926806449890136,-1.980661511421204,0.3112932741641998
22.103677978515623,-2.4460110501095653,2.9709090766996145,3.6405654105752703,2.501377255761623,-9.482240351223943,0.0251070463595213,0.3911730349063873,-1.7553431987762451,0.3234623074531555
22.11373486328125,-2.4758424170106648,2.962975361090898,3.635623570258915,2.531208038140833,-9.47430605109334,0.0300486195311066,0.414871335029602,-1.7025060653686523,0.3038734495639801
22.12379174804688,-2.1960940399989486,3.0055571962326764,2.9480896343871947,2.557019648006558,-9.467357839390637,0.0341877811454702,0.4070546925067901,-1.6878528594970703,0.2475044429302215
