seconds_elapsed,acc_z,acc_y,acc_x,grav_z,grav_y,grav_x,gyro_z,gyro_y,gyro_x
8.05370703125,1.1647288387835024,-1.6335522191911935,-3.396750224471092,-0.3480066878648474,-9.561136193284392,2.1526631868124007,1.1480576992034912,-2.3785085678100586,3.3116021156311035
8.063763916015626,-0.9868459682703018,-1.2444564554929731,-2.8388275878965854,-0.08755241945046,-9.59364379365742,2.0309337268061936,1.237370252609253,-2.9793810844421387,3.243478536605835
8.07382177734375,-3.094651191702485,-1.6198738224506375,-1.9091610121801492,0.1557686355943791,-9.617011809763312,1.9129019522741435,1.1992696523666382,-3.2099623680114746,3.0749969482421875
8.08387890625,-3.886531052711606,-2.37937526242435,-0.5574876061581074,0.3842629732469096,-9.629639820668102,1.814592969213426,0.9761691093444824,-2.9021003246307373,2.8226773738861084
8.093936767578125,-4.8189685544461005,-3.16862594397366,1.094304618600756,0.5970930193049833,-9.63107599095106,1.7482114485502245,0.6285237669944763,-1.8407247066497805,2.451571464538574
8.103994140625,-5.6265375674963,-3.809951670899987,2.544946056114137,0.7966843386813998,-9.62346493142545,1.710148844398558,0.3150028884410858,-0.181488037109375,2.043619155883789
8.114052001953125,-5.6176428979009385,-4.077373358041048,3.4836347271978854,0.9872569602239876,-9.610726445883513,1.6821543375357983,0.1533310413360595,1.6417063474655151,1.6511647701263428
8.12410888671875,-5.218086530464888,-3.89948522683084,3.821420282636583,1.1736814491111784,-9.597826632300018,1.6354143598012625,0.3066004812717438,3.182240724563598,1.368619680404663
8.1341669921875,-4.596081005558371,-3.4216754068911075,3.953539473101496,1.3474484818033874,-9.59096083818376,1.5389089190311729,0.7270357012748718,4.1690545082092285,0.9632065892219543
8.144223876953125,-4.69837876599431,-2.1255986542761325,4.617092813926935,1.4747358681976794,-9.595365210622548,1.3872658206678925,1.1555341482162476,4.174831390380859,0.3862500488758087
8.154281982421875,-4.032463956734538,-0.5862649339616298,6.132973177939653,1.5429428507223724,-9.60944342033565,1.2034595514550803,1.4312090873718262,3.3502211570739746,0.0473269373178482
8.1643388671875,-0.8400912264704704,0.1879834087669849,6.908812589251995,1.5831918590024112,-9.624280339461563,1.0183893997862934,1.4212414026260376,2.485759258270264,0.1576459854841232
8.17439697265625,3.2337884442359206,0.3878255976319313,6.262077112236619,1.632725851369649,-9.631838207495212,0.8557350780650973,1.193097710609436,1.878587007522583,0.4322539865970611
8.184454833984375,-1.9241661274798212,0.2937099746078253,2.2657373389370736,1.6902825528033076,-9.6322923810035,0.7295586485873907,0.8784382939338684,1.1137784719467163,0.463911771774292
8.194511962890624,-4.975197227033973,0.5972288110464811,0.1376380269516259,1.7297075313493608,-9.63129927831292,0.6454154804579914,0.6506410241127014,0.2256975322961807,0.2498622387647628
8.204570068359375,-4.434985603716969,0.0661906742662191,-2.2581986139953134,1.7476440239258109,-9.631923547691104,0.5849509652862325,0.6859750151634216,-0.5168591737747192,0.1703218668699264
8.214626953125,-2.8418168328404425,0.0448562098145484,-3.750489135845005,1.765473402865976,-9.632287120306492,0.5220578347280621,0.8977093696594238,-0.8669734597206116,0.3033449053764343
8.22468505859375,-1.7446571170695124,0.6387766269654035,-3.918699045866728,1.8019680270485576,-9.62975204887092,0.4372305202594027,1.1461244821548462,-0.7347573637962341,0.5352122783660889
8.234741943359374,-2.54735633212626,1.583736925664544,-2.801868853333592,1.8602203095309435,-9.622866965532303,0.3322499870128929,1.2340575456619265,-0.5669599175453186,0.6991249918937683
8.244800048828125,-3.930570393185317,2.6899440173745157,-1.7383099399998785,1.9269224404506384,-9.612776948672533,0.2277184213765896,1.1373225450515747,-0.6385698914527893,0.6925520300865173
8.25485693359375,-4.323203975620865,3.314063173434138,-1.2734738756626844,1.9873609809309245,-9.60213397410512,0.1407171604023314,0.9775417447090148,-0.8843042850494385,0.5867239832878113
8.264914794921875,-3.7092087386906143,3.469057335790992,-1.07173250211291,2.0389538055241108,-9.59207844403684,0.0714049474489409,0.8755807280540466,-1.0305461883544922,0.5080398321151733
8.274971923828126,-3.23813553352952,3.399403953850269,-0.8529245506890117,2.085027866695821,-9.582429741203784,0.0097167197181028,0.8609914779663086,-1.0473227500915527,0.4575366675853729
8.285030029296875,-3.292452230128646,3.19818696950078,-0.1246106414657086,2.127074864308536,-9.573048164874317,-0.0519619045007508,0.8870614171028137,-1.1309162378311155,0.4182102978229522
8.295087158203126,-3.0324130544543264,2.8104665858089923,1.3972984082520008,2.1696024850450453,-9.563012508550283,-0.1095171263633761,0.8362303972244263,-1.3006680011749268,0.4571946561336517
8.30514501953125,-3.0377526619166133,2.2594302016168832,2.4378468867458403,2.2180380146510896,-9.551270048308371,-0.1546762372477911,0.7583097219467163,-1.5599353313446045,0.5056633949279785
8.315201904296876,-2.837912518878281,1.646535619404912,3.135451404124498,2.270187157952785,-9.53842225717306,-0.18744069845872,0.7075989842414856,-1.7494183778762815,0.5095678567886353
8.325260009765625,-2.68866683704555,1.3736486525952816,3.606806056575477,2.3175652874603867,-9.526503855842352,-0.212127322882507,0.6527889966964722,-1.7342959642410278,0.3923464715480804
8.335317138671876,-2.629240834608674,1.2498159366995096,3.753126206350326,2.3506156164079903,-9.517891510319709,-0.233949223791249,0.6205940246582031,-1.603323221206665,0.2202635109424591
8.345375,-2.3157366107285022,1.397400699582696,3.837766145020723,2.36975593181625,-9.512547811204197,-0.2570879429196007,0.6162144541740417,-1.398083209991455,0.119402676820755
8.355431884765625,-1.907237642902136,1.765124004906416,3.7868601336479184,2.380092470782995,-9.509169274681806,-0.2850408756629564,0.6041265726089478,-1.157655954360962,0.0186891797930002
8.36548974609375,-1.3349616329349576,1.8794605781823397,3.265034938631952,2.379581306390464,-9.50828430854082,-0.3170246165586635,0.5740954279899597,-0.9411977529525756,-0.0819034725427627
8.375546875,-1.4006725608602166,2.147967137950659,2.4519421937242147,2.376758065663278,-9.50804114743471,-0.3442965813005343,0.5074506998062134,-1.1460096836090088,-0.0348298735916614
8.38560498046875,-1.4056392433568834,2.1461492748737334,2.467460957634449,2.3817251865513622,-9.506223868879676,-0.3598151260150596,0.4638606011867523,-1.4088407754898071,0.0390145219862461
8.395662109375,-1.119024195446074,2.0144407110363245,1.8602903060272336,2.389148322289437,-9.504103223463892,-0.3666080375581979,0.4004581272602081,-1.4535404443740845,-0.0031235846690833
8.405719970703124,-0.5455313570350409,2.1931898429900407,1.5252752382151782,2.391610620749742,-9.50343569946587,-0.3678285192638635,0.3667672872543335,-1.4765299558639526,-0.0661230534315109
8.41577783203125,-0.0378220733940601,1.852611149701476,1.2007149289220571,2.385187309703976,-9.505078790497778,-0.3670836922459304,0.3349173367023468,-1.3727704286575315,-0.1767525374889373
8.4258349609375,0.3435398811817169,1.6737024432718752,1.093678011135012,2.368342557886988,-9.50932592654824,-0.3661399085897952,0.2839332520961761,-1.1947407722473145,-0.2680212259292602
8.435892822265625,0.8841494177751242,1.8175930278122423,1.0999192436121403,2.344431228684634,-9.515399693503976,-0.3622058205438777,0.1819357573986053,-1.054782509803772,-0.3154001533985138
8.445949951171874,1.1501777508616446,2.15199274020493,1.2730157566316425,2.3154292983449998,-9.522990879285334,-0.3490034438172355,0.0387964360415935,-0.9963544011116028,-0.3698921501636505
8.4560078125,1.1270856290876865,2.671037656852602,1.276221128544211,2.279713695710897,-9.532520339652896,-0.3230297021923586,-0.0944912806153297,-1.011911392211914,-0.4490438997745514
8.46606494140625,1.2917416460201143,2.953227289536595,0.9663974198076872,2.236263845562935,-9.544014378091692,-0.2850974646884016,-0.2201591879129409,-0.9937637448310852,-0.5157589912414551
8.476123046875,1.9436403510175644,2.969526682430505,0.8639567437697201,2.187704105055332,-9.556573415413498,-0.237124839886371,-0.3243465423583984,-0.9492053985595704,-0.5432296395301819
8.486179931640624,2.595349963183701,2.639472305765748,0.6295148776233196,2.1372382386654616,-9.569188566836717,-0.1822481165179982,-0.3979941308498382,-0.9005444049835205,-0.5431721210479736
8.496238037109375,3.130755939784646,1.9762661709427836,0.2859262984616681,2.0880049828104674,-9.580999416139722,-0.1228214199613779,-0.4454865157604217,-0.8592689633369446,-0.5029135346412659
8.506294921875,3.7053129002958536,1.1037269653320312,-0.1362894801531918,2.044212456704676,-9.591022797504069,-0.0622797524667577,-0.4523236453533172,-0.7574906945228577,-0.4163544178009033
8.51635302734375,4.4445483818322415,-0.1188011514693498,-0.7766239858187735,2.0111171195715665,-9.59821592387855,-0.0073275726881547,-0.3756057620048523,-0.6583425998687744,-0.2701641619205475
8.526409912109376,4.96253940551281,-1.8542659311711789,-1.9427019011236728,1.992766054844856,-9.601989012676476,0.0330266078620101,-0.1981260478496551,-0.5571238398551941,-0.1142869442701339
8.536468017578125,4.821083939164876,-3.8245337384819984,-3.313702815689146,1.9844341336987912,-9.60364554771185,0.0490590683318674,0.1178485825657844,-0.5505248308181763,-0.0788973122835159
8.54652490234375,3.100782241803408,-5.737488589987159,-4.6655385726660485,1.9708850624263283,-9.606500937142968,0.0336563936655293,0.4588352143764496,-0.7521802186965942,-0.2100050002336502
8.556582763671875,0.3625952947854995,-5.022504921653867,-3.6218574952349054,1.9439185834370551,-9.612052141529322,-0.0025151237698519,0.5920736789703369,-0.8884877562522888,-0.325957715511322
8.56664013671875,1.2457970564469694,-2.158134896221757,-2.4766949421867728,1.915147831504792,-9.617746553778648,-0.0394614700649632,0.5234317779541016,-0.910669207572937,-0.248216837644577
8.576697998046875,1.7422490330144762,0.2259475209802389,-2.176648165772855,1.8981345912531016,-9.620945057559013,-0.0700109677733154,0.4434979856014251,-0.7489561438560486,-0.1217947080731391
8.586755126953125,1.603242421123385,2.227717551013827,-1.394645701786131,1.8882516412727532,-9.622658291217684,-0.0966425020200665,0.3276408910751343,-0.4171611368656158,-0.1108067706227302
8.59681298828125,0.6266495513200759,4.0097207945287225,-0.3025927893686108,1.872896981883049,-9.625470426028969,-0.1138488171584438,0.1261236518621444,-0.1625185012817382,-0.2249224931001663
8.606869873046875,-0.0385820979811251,4.915491238611937,1.0110489008303731,1.8427626865126192,-9.63131973657906,-0.1108289487474598,-0.1686752289533615,-0.0250075105577707,-0.406451553106308
8.616927978515625,0.0824773538090288,4.728246665513515,2.5414389247760174,1.7932300093196332,-9.64099941907227,-0.076458668908244,-0.5609368085861206,0.0791614055633544,-0.6201873421669006
8.62698486328125,0.7188835983812809,3.6191637261062857,4.410190185156464,1.7224537608288228,-9.654197923341393,-0.0006691915836036,-1.0728973150253296,0.2359757870435714,-0.8301986455917358
8.63704296875,1.925863871308416,1.3273428284943103,5.369471854674816,1.6368578366078437,-9.668291915145517,0.1232757396001368,-1.5761706829071045,0.3975295722484588,-0.9118171334266664
8.647099853515625,3.2305478548794984,-2.626155728074908,5.778567619350552,1.5553117722995575,-9.67824398483932,0.2880402218757197,-1.9300802946090696,0.4584123492240906,-0.7490053176879883
8.657157958984374,2.8804519761830565,-8.767865754699706,6.282786722788214,1.5040791593208909,-9.67900912399292,0.4742489125877618,-1.956955909729004,0.2968846559524536,-0.3023677468299866
8.667215087890625,-0.2642727215908467,-13.94017603789568,6.467223837250471,1.4989325902126729,-9.670395024904607,0.6380189404658972,-1.3868935108184814,0.0385599061846733,0.1534261703491211
8.67727294921875,-4.245844841608405,-13.4608330170393,5.9515030965894455,1.519896613916755,-9.660421912422777,0.73250909589082,-0.5307236909866333,-0.2549371719360351,0.2388636469841003
8.687330078125,-6.073394615289568,-6.510536909276246,5.471589582368731,1.5311452992923558,-9.65616016332507,0.7645575543195009,-0.1037752926349639,-0.4397642612457275,0.0348031967878341
8.697387939453124,-5.850460889172553,0.2923573909550905,5.096953136655688,1.5202479115724563,-9.656229136908054,0.7851511372759937,-0.2103006243705749,-0.5134503245353699,-0.1669412851333618
8.707446044921875,-4.34372887725532,3.7573575603097673,4.257402592933178,1.4947785392731427,-9.656970895186069,0.8239908632799983,-0.4420928359031677,-0.364304780960083,-0.2669898569583893
8.7175029296875,-3.179676914820075,5.13781180126667,2.785833956594765,1.4654285261482,-9.657017072415352,0.8746010335113853,-0.5162979364395142,0.0076442784629762,-0.3035731017589569
8.727560791015625,-3.602830430942773,5.882935171797871,1.8638639267303048,1.433534527628869,-9.65754372663796,0.9204430394928902,-0.4950541853904724,0.4146112501621246,-0.4001928567886352
8.737617919921876,-4.222969577455521,6.032654608622193,1.669368067329377,1.39332234422788,-9.65957201759517,0.9600638328719884,-0.4807426929473877,0.6191011071205139,-0.5347689986228943
8.74767578125,-4.481787686902284,5.552180537909269,1.5015695145875214,1.340594962646812,-9.66317384147942,0.998126583154127,-0.4827802777290344,0.6575493812561035,-0.67398601770401
8.75773291015625,-4.391972975942492,4.72405973521769,1.1563137693986296,1.277565382760018,-9.667786303710937,1.0354282128706571,-0.4526808559894562,0.5737675428390503,-0.743488609790802
8.767790771484375,-4.326313632073998,4.72868447240889,1.1211742861520495,1.211906331152469,-9.672412794467808,1.070567769182473,-0.4089536070823669,0.536512017250061,-0.7118808627128601
8.777847900390626,-3.7230011171996593,3.673905954641104,1.2469264988683164,1.156267519104108,-9.675869656923412,1.100438664376363,-0.333959698677063,0.5452272891998291,-0.5325908660888672
8.787906005859375,-2.978441810292005,2.610492294996977,1.3934043234229088,1.1245815373122692,-9.677128132551909,1.1220037227135151,-0.2355194240808487,0.5594012141227722,-0.2363520562648773
8.797962890625,-2.6018255889385937,1.9214806877881287,1.2940350176542996,1.1235555552653969,-9.675850952222945,1.1339845217559483,-0.1418465375900268,0.5076513290405273,0.0862982124090194
8.808020751953125,-2.748780237224698,1.4424468790113925,1.3066004847168922,1.1513988170892,-9.671767482301592,1.1408722354430705,-0.1217665672302246,0.4124955236911773,0.3708063662052154
8.81807763671875,-3.0786744548916816,0.6235737971365451,1.6571110816940664,1.202218684548512,-9.664079265886544,1.153531956660375,-0.2428503930568695,0.3384697735309601,0.5704651474952698
8.828135986328125,-3.5913252865880727,-0.6333575245261192,2.1464142094202336,1.2589241029150784,-9.653030633127688,1.1851172545567157,-0.5075787305831909,0.2152421027421951,0.4761935174465179
8.83819287109375,-4.676627537435293,-2.3503584267765283,2.331573500677198,1.281050886788219,-9.641598554009198,1.2525460923157632,-0.9101234078407288,-0.1317379027605056,-0.1092023625969886
8.848250732421874,-5.9843830374062055,-4.340925510272384,1.8645576080828905,1.2161808666665106,-9.635525371575357,1.3593845649212597,-1.1368038654327393,-0.6899306178092957,-1.1580151319503784
8.858307861328125,-6.949498235383629,-5.382815904894471,-0.1825049773558974,1.0340243374221023,-9.640350015252828,1.4713332201473417,-0.9049487113952636,-1.0686403512954712,-2.3188209533691406
8.868365966796874,-6.348063789340853,-5.068006443634629,-2.589459736101329,0.7484750190466642,-9.65468716816306,1.54828128914088,-0.4781576693058014,-1.1917170286178589,-3.140460252761841
8.878423095703125,-4.279012951716781,-3.870065071079135,-3.230574742886424,0.4078879232559353,-9.6686952352494,1.587553707473725,-0.2136396169662475,-1.1312817335128784,-3.426840543746948
8.888480712890624,-2.0964654987722637,-2.417810499280691,-2.925381251233816,0.0610946526017272,-9.673955347734688,1.6066247570380567,-0.1495727449655532,-0.8753290772438049,-3.3193788528442383
8.898537841796875,0.1084837190618738,-1.0876257253587245,-2.663176421958208,-0.2509386447759345,-9.668176764333248,1.6228959467507895,-0.2001372277736663,-0.1508774012327194,-2.8764524459838867
8.908595703125,3.111726829665899,0.0235655845046043,-2.3961396424815056,-0.4932183649411424,-9.655140757149455,1.644809380134195,-0.2095094323158264,0.789389431476593,-2.199410915374756
8.91865283203125,4.423613730353117,1.075595680347085,-2.5843337713897228,-0.6524472057256847,-9.642050389429926,1.666008089376986,-0.0567097626626491,1.6453150510787964,-1.5210243463516235
8.9287109375,4.005588224768639,1.632106112036109,-3.091680651459097,-0.7427396171998232,-9.634127779737115,1.6740139934390783,0.1767887473106384,2.368271350860596,-1.0765869617462158
8.938767822265625,1.720423277914524,2.4085627784639594,-2.296670237339288,-0.7913227385830134,-9.630672670847176,1.6716338203042744,0.2862014770507812,3.03696084022522,-0.8894492387771606
8.94882568359375,1.7828806108713149,2.0574603530734774,-1.608537604922056,-0.8183163247749209,-9.628225862216947,1.6727321369349957,0.2152977436780929,3.4764225482940674,-0.816124439239502
8.9588828125,1.8039292441189287,2.0527818398684263,-1.6249457188874483,-0.8393656886748969,-9.623548518055676,1.6891402509003877,0.0643287003040313,3.6193618774414062,-0.88071209192276
8.96894091796875,0.6804149707119912,1.131812657609582,-2.063999691714346,-0.8710532048366963,-9.615666824895143,1.7177382766142486,-0.0150297712534666,3.381232976913452,-1.027397632598877
8.978998046875,0.7333912855528295,1.1216647730827332,-2.092851984450221,-0.9240298850037156,-9.605519524890184,1.7465907154805955,0.0032087978906929,2.7717702388763428,-1.184636473655701
8.9890556640625,-0.2513455085437744,-0.0582107814282178,-1.7090362069815397,-1.0029168131053448,-9.594012626969814,1.76619777161777,0.056852851063013,1.879995346069336,-1.2958308458328247
8.99911279296875,-0.0818646287381649,-0.5388023410409689,-1.0885388946808874,-1.1050611365452407,-9.58133843883574,1.7740287575043736,0.0743533968925476,0.8857869505882263,-1.3164349794387815
9.0091708984375,0.8209656702399253,-1.1153174498826264,-0.2246393609911203,-1.219750322651118,-9.56731108252704,1.7745855146043,0.0214635543525218,0.1057193428277969,-1.2272781133651731
9.019227783203124,1.7689562765456734,-1.182290798959136,0.6696114718206226,-1.331266285548359,-9.551961537703871,1.7771129872553049,-0.1210159957408905,-0.3001554310321808,-1.041098713874817
9.029285888671875,2.4559949762463567,-0.7676420763313769,1.0232881316132842,-1.426488846901059,-9.535056580132244,1.7939388882413505,-0.3352824747562408,-0.3684237003326416,-0.8084625601768494
9.0393427734375,2.7928268842220305,-0.3143564567953348,0.843810831515491,-1.4972645108699798,-9.516834110221266,1.8326073493316768,-0.5552648305892944,-0.1650411486625671,-0.5656365156173706
9.04940087890625,2.4713211401939392,-0.0564765049815177,0.1418926887214183,-1.5410238653585313,-9.497884495079516,1.8936276352226733,-0.7067669630050659,0.1791987866163253,-0.3580121994018554
9.0594580078125,1.5463643496036528,0.1428361070513725,-0.8505544605568051,-1.5622260817326603,-9.47902548083067,1.9692450401343404,-0.7503274083137512,0.5035092234611511,-0.2419028580188751
9.069515869140623,0.4159935613654553,0.644836949917674,-1.6610804237164556,-1.572692384558916,-9.460288631656766,2.04939015160352,-0.7325130105018616,0.6827394366264343,-0.2482862025499344
9.079572998046874,-0.5906323353908955,0.9727414550721644,-2.212781263166666,-1.5859959566377102,-9.44043417662978,2.129133550404012,-0.715937077999115,0.6831115484237671,-0.3491792976856231
9.089630615234377,-1.1649160319186749,0.8577122233569622,-2.7200413417354223,-1.6125076775968077,-9.418330481371283,2.2057370437435804,-0.6840193867683411,0.5403035283088684,-0.4935442209243774
9.09968798828125,-0.7860755586445332,0.479438882446289,-3.061426090709865,-1.6549631098799409,-9.394548039245604,2.2746315701410174,-0.6186860203742981,0.3374273180961609,-0.6040526628494263
9.109745849609377,0.3551461478233337,-0.0841945329904556,-3.130682874548435,-1.7071224823147058,-9.370507822966577,2.3344613310731948,-0.5561083555221558,0.1975327879190445,-0.6192460060119629
9.119802734375,0.9598564006663858,-0.6806424227923155,-3.1530718164891,-1.7596696850232778,-9.347769921457768,2.386029459616542,-0.4946478307247162,0.0443267114460468,-0.5522956848144531
9.12986083984375,1.113089836961031,-1.2013199090778828,-3.1222330261111257,-1.8083057056374847,-9.327331529062986,2.429261283099651,-0.4369722902774811,-0.0994301885366439,-0.4678212702274322
9.139917724609376,1.1565873256430028,-1.2194967862814663,-3.1589088520795103,-1.8518040711022912,-9.30915582090318,2.465937401328981,-0.4043168723583221,-0.170691579580307,-0.3873382806777954
9.14997607421875,1.0932429807186126,-1.7474702747941016,-3.139236475621164,-1.889314740459621,-9.292642492997643,2.499535427287221,-0.3803856968879699,-0.1400511115789413,-0.3300938606262207
9.160032958984376,0.883590322587639,-2.278192769753933,-3.3823870603367685,-1.9210272449322043,-9.277420958468316,2.531696990701556,-0.3421899974346161,-0.0468936339020729,-0.3044755756855011
9.170091064453125,0.5139924555636942,-2.917482606938481,-3.871627498090267,-1.9502134457975624,-9.26316680766642,2.5614003473088145,-0.2935084700584411,0.0629172921180725,-0.3321625888347626
9.180148681640626,0.1143114388346672,-3.5728584865272044,-4.242137511523068,-1.9814893124185504,-9.248989229232071,2.588492352373898,-0.2361047118902206,0.183943510055542,-0.413080096244812
9.19020556640625,0.0644718876495957,-4.000069753608107,-4.391163705386221,-2.017242616714537,-9.234477304276824,2.6125705625757574,-0.1665267050266266,0.3350302577018738,-0.4954602122306824
9.200263916015626,0.6715197896599769,-3.896466171270609,-4.349954912163317,-2.0529740014396607,-9.220916396436095,2.6325641338124868,-0.0690270736813545,0.5522007346153259,-0.5147215127944946
9.21032080078125,1.949842274397612,-3.431245783790946,-4.1946228961542245,-2.0797282989829777,-9.210288619437812,2.648716811712086,0.0190596431493759,0.8110072612762451,-0.4381175339221954
9.22037890625,3.5822236962437626,-2.860996165084839,-3.687219025200605,-2.086297155979276,-9.204133603939413,2.6648946240529416,0.0451445057988166,1.041520118713379,-0.2207727134227752
9.230435791015625,5.162212083029747,-2.415403438138961,-2.971155160415172,-2.061870862992108,-9.20395532476306,2.6844492193505167,0.0371787250041961,1.1673067808151243,0.1105780526995658
9.240493896484375,6.151582016819715,-2.450578796416521,-2.387442833545804,-2.0043756824873387,-9.211126823827623,2.70332723056078,0.0513823553919792,1.024972677230835,0.4729235470294952
9.250551025390624,5.879290677815676,-3.080818481183052,-2.1229013780161736,-1.921825263442099,-9.225228414416312,2.715167013697326,0.0565124005079269,0.672900915145874,0.8045797944068909
9.26060888671875,5.2866848503947255,-3.804744165384769,-1.94338301525563,-1.8195820096723732,-9.24500103637874,2.718355872866512,0.0804294347763061,0.3579555451869964,1.090704321861267
9.270666015625,4.923273563051223,-4.226164574104547,-2.3971757075309754,-1.6990319687090814,-9.269201411655544,2.7139582224294543,0.1163546815514564,0.1914941072463989,1.340509057044983
9.2807236328125,4.409663530933857,-4.201873597934842,-3.2037995486855504,-1.5581694998182356,-9.297383550044891,2.702064371018112,0.1797178089618683,0.0016488743713125,1.6259466409683228
9.290780517578124,3.539046233296394,-3.910733181554079,-4.361029556146264,-1.3942908969990908,-9.3302494623363,2.678204772002995,0.2854959070682525,-0.3161069750785827,1.967974305152893
9.3008388671875,2.564817754536867,-3.544949319860339,-5.460888740134239,-1.2059580902725455,-9.367877474462986,2.637975052945316,0.4318022429943084,-0.7245277762413025,2.326300859451294
9.310895751953124,1.721566602730751,-2.989652355614304,-6.221614753466844,-0.995674586892128,-9.409170438838004,2.578088739520312,0.6242457032203674,-1.0993794202804563,2.6283438205718994
9.320953857421877,1.2463280945837496,-2.1102175452709195,-6.56774874279499,-0.7665899369299412,-9.452429734849929,2.4968577325105668,0.8726525902748108,-1.255763053894043,2.830510377883911
9.3310107421875,1.3762147036910055,-1.060917751175165,-5.68852845198512,-0.5217839131575077,-9.496316222849488,2.3912641453996297,1.172858953475952,-1.2514146566390991,2.946045160293579
9.341069091796877,0.3697930973351001,-1.273560384902358,-3.979900533543527,-0.2677407447612844,-9.539252862778303,2.2586190313644705,1.4862369298934937,-1.3075271844863892,2.977892637252808
9.3511259765625,-1.1251613830268383,-2.100261383923888,-1.4588459328874943,-0.01283289267699,-9.5786543143183,2.102287482924014,1.701642990112305,-1.450644850730896,2.943577766418457
9.361183837890623,-3.074822455638647,-3.443926986187696,1.507709186386317,0.2341024598578922,-9.610307928210496,1.9384446820706127,1.6878468990325928,-1.439038634300232,2.7696354389190674
9.371240966796876,-4.954668818268179,-4.035606930935383,4.057229564678669,0.4632963971471414,-9.630346507632732,1.7922538577638565,1.381109356880188,-1.217779517173767,2.4762938022613525
9.381298828125,-5.813274775594473,-4.289256697833538,6.027814182853699,0.6685843937952071,-9.636917702716588,1.6891463883802291,0.8393125534057617,-0.4959667325019836,2.082658529281616
9.39135595703125,-5.214984472796321,-4.744136308562755,6.688679892030358,0.8549935389827936,-9.632447279304266,1.6295251556321977,0.4049656391143799,0.6832256317138672,1.744805932044983
9.401413818359377,-4.485756006011367,-4.7240410305172205,6.5811646892070765,1.0303246061213314,-9.622464229950308,1.58650463681221,0.2824601829051971,1.803380370140076,1.4657800197601318
9.411470703125,-3.166469058200717,-3.798285198503733,6.870041252309084,1.195143412400037,-9.61328548271656,1.5253766527630388,0.5123540759086609,2.419852495193481,1.254518985748291
9.42152880859375,-1.7097795726947485,-1.8882377588778732,8.670309635832906,1.3425687469378114,-9.608719197714327,1.428433112836629,0.8289823532104492,2.538655996322632,1.0135436058044434
9.431585693359375,-0.2066224966548383,-0.5592471631765366,9.124459178721905,1.462530905010551,-9.609377369362116,1.3004936922743917,1.1316522359848022,2.11959171295166,0.8033801913261414
9.44164404296875,0.0760001206189393,-0.0842097305595874,6.753010033121704,1.551907078422606,-9.614103228840232,1.1536911658100784,1.284307837486267,1.626607894897461,0.5665588974952698
9.451700927734375,-0.2131839009970426,0.5650549726724624,4.522629400378466,1.6112481790550053,-9.62037456419468,1.011268242669478,1.1050571203231812,1.572044014930725,0.3091608881950378
9.461758544921874,-2.3759468954108653,0.9632634326308964,1.2527180878818034,1.6455660437203945,-9.626234396138786,0.8933845713712274,0.8696606159210205,1.19272780418396,0.1203323528170585
9.47181591796875,-3.942501361736655,0.5959679973304272,-2.8956723416686057,1.6563381976254283,-9.632883332633972,0.7965560361266135,0.8895201086997986,0.4770756363868713,-0.0383193418383598
9.481873779296874,-1.975378866714239,-0.5227238974213599,-5.7764721083760255,1.6541066391810777,-9.641560560086369,0.6889428528215735,1.2661055326461792,0.1798392981290817,-0.0086109228432178
9.491930908203123,-1.9894154292427,-0.5156301397681236,-5.627125596517324,1.668143347840011,-9.648654902261494,0.5395968158869072,1.6663720607757568,0.5888909697532654,0.2605076432228088
9.50198876953125,-1.3846340108595787,0.2010141552537679,-3.523668923683464,1.7115920289441942,-9.649582538500429,0.355541686479561,1.8082040548324585,0.9133558869361876,0.5598541498184204
9.512045654296877,-1.4493711253166195,0.1943085201352834,-3.3413188446283337,1.7763292895317078,-9.642876318860054,0.17319142476134,1.62726092338562,0.6444796323776245,0.7012917995452881
9.522103759765624,-3.830540869942307,1.4773106871217487,-1.6618902787946164,1.842605303993821,-9.631961541613936,0.0226104757368564,1.3795796632766724,-0.1008852869272232,0.6359326839447021
9.532160888671877,-5.437434214788675,2.2454197964429854,-1.5210526520840824,1.8965600354127583,-9.621058454805612,-0.093237936007278,1.2116159200668335,-0.8250523209571838,0.4762356877326965
9.542218994140624,-5.164141589787602,2.5727000322192906,-1.5727999365866183,1.9385532570116224,-9.611353637871144,-0.1851425593178719,1.1212414503097534,-1.2946040630340576,0.3740037977695465
9.55227587890625,-4.24241223681122,2.607625799649954,-1.0614873677566647,1.9771981910958885,-9.60168623033762,-0.262057182699535,1.072664499282837,-1.6280784606933594,0.3688793480396271
9.562333740234376,-3.6278181572049855,2.501704003497958,-0.4106500449130311,2.020261526144296,-9.590634674969316,-0.3296069982234388,1.0371277332305908,-1.7552762031555176,0.4206757247447967
9.572390869140625,-2.864673684553802,2.0625258197695016,0.6743778094395995,2.070995249690115,-9.5774753336668,-0.3915627018010243,1.007002353668213,-1.824207663536072,0.5019351840019226
9.58244873046875,-2.611881119006872,1.5928811861068009,1.7072367563441395,2.132143107483536,-9.56168213672936,-0.4456420825129374,0.9486483931541444,-1.988236904144287,0.6051523089408875
9.592505859375,-2.717366861829161,1.1409966655403374,2.50173790576756,2.204558647613972,-9.543148116651176,-0.4885135847836732,0.8938080072402954,-2.227370023727417,0.6821967363357544
9.602563720703126,-2.9028882643967866,1.1619815859019755,3.03809519174397,2.282939525889605,-9.52313233358264,-0.5181978713642805,0.7742570042610168,-2.2334144115448,0.7274199724197388
9.612620849609376,-2.7413527175724504,1.961552001413703,4.252818187752366,2.366810087622702,-9.501641217264533,-0.5361192029042169,0.6333515644073486,-2.0478458404541016,0.7823284864425659
9.622678955078126,-2.943626809759438,3.0073493403464555,5.551082221278548,2.4495235882751643,-9.480373972830176,-0.5410658655261621,0.4397405087947845,-1.817328929901123,0.7199984192848206
9.63273583984375,-3.472607429488003,3.714274789908528,5.907552895703912,2.5216604575946926,-9.461854565799236,-0.5337673060158268,0.3234964609146118,-1.621566653251648,0.5960258841514587
9.6427939453125,-3.5987723877236246,4.23192094567418,5.323266568338871,2.5792911010473967,-9.446940489783882,-0.522443180783838,0.2623880207538605,-1.436236023902893,0.4422588646411896
9.652850830078124,-3.1792753482818603,4.686027233943343,4.897844230501353,2.618882814462483,-9.43672187810838,-0.5100207389211282,0.2296101003885269,-1.2979668378829956,0.2353424280881881
9.66290869140625,-2.8472347662359474,4.795462591174244,4.130674447856843,2.636096107330918,-9.43258287860751,-0.4977724845815449,0.2071368545293808,-1.2127991914749146,-0.0052060591988265
9.6729658203125,-2.583011582875252,4.926113754913211,3.2281513151317838,2.630596340870857,-9.43484380927682,-0.4837976256450638,0.1551146656274795,-1.14597749710083,-0.2299483567476272
9.68302392578125,-1.9080492515459653,4.865599372717738,2.488817049396038,2.6046122970476744,-9.44286228055954,-0.4676617892824113,0.0900441631674766,-0.9437580108642578,-0.4275766611099243
9.693080810546874,-0.7052835275739431,4.642203289785981,1.9261866735219957,2.5577970621198416,-9.456343693423271,-0.4534532677205279,0.0780351683497428,-0.7499935626983643,-0.6408340930938721
9.703138671875,-0.3166524587780237,3.9140129338771104,1.0569139223612845,2.4904382208570834,-9.47484556479752,-0.4420532277081161,0.0633461326360702,-0.6960503458976746,-0.8365887403488159
9.71319580078125,0.309326061412692,3.4983237622857093,0.8797287517886608,2.4068958681650456,-9.496996021807194,-0.4293196740696206,0.0282312873750925,-0.7196201086044312,-0.9697630405426024
9.72325390625,1.2312255102589726,2.7531840251415964,0.8864094716615974,2.313389463080465,-9.520992398944497,-0.4114595711976289,-0.0402009636163711,-0.7644080519676208,-1.0364842414855957
9.733310791015626,2.749604997611045,1.6491121918946503,0.4655377463331446,2.219411202700436,-9.544440494549274,-0.3850326424451544,-0.1081603094935417,-0.9312475919723512,-0.9765773415565492
9.743369140625,5.045087340340018,0.2981213613092899,-0.1244287820927798,2.1381163366742437,-9.564279752007126,-0.3512690871942788,-0.1300824135541916,-1.0866072177886963,-0.7755647897720337
9.75342626953125,7.263326284390687,-1.3630875110924243,-0.7792869214177132,2.0819909832179544,-9.57796399396658,-0.3135163892420008,-0.1527429819107055,-1.16762113571167,-0.4642711579799652
9.763484375,8.640682559332252,-3.588845744732022,-2.2586606785491106,2.0563113291688264,-9.584650339862703,-0.2764996956803836,-0.1071753799915313,-1.1098501682281494,-0.1485423892736435
9.773541259765626,8.642498668843507,-3.587801204115152,-2.2824022041425107,2.0544947812661527,-9.585696049523351,-0.2527582248859107,0.0409291312098503,-0.8207002878189087,0.0419644340872764
9.783599365234377,6.919063934153318,-8.273417519170046,-5.784029976409673,2.061136995759606,-9.584183306872845,-0.2559418964233249,0.3164628744125366,-0.4498684406280517,0.0299505591392517
9.79365625,3.4383576616227627,-9.045388564616442,-6.641125529173016,2.0560358732283115,-9.58419382826686,-0.2938292353396304,0.6192073225975037,-0.3437286913394928,-0.1713428646326065
9.803714599609377,1.1713957493267952,-7.05328418855071,-5.7826405678778885,2.03159730528146,-9.587464228239655,-0.3514536134483292,0.7343806028366089,-0.614138662815094,-0.3460127711296081
9.813771484375,1.114512563240528,-3.2293934241473674,-3.8104558210298416,2.002738290543854,-9.591706103593111,-0.3982513857847079,0.5473047494888306,-0.9802045226097108,-0.2860817909240722
9.823829345703125,1.0487497589975594,-0.3526917404085397,-2.3989554305545986,1.986798378612101,-9.59416869431436,-0.4182717719631269,0.3123411834239959,-1.0948110818862915,-0.1425673216581344
9.833886474609375,0.5198725996434689,1.795326835468411,-1.3277540396437049,1.9819186437465248,-9.595186931446197,-0.4180677372910082,0.1246661096811294,-1.015516996383667,-0.0591813549399375
9.843944091796876,-0.2069362387791276,3.7458898253560062,-0.081588807471469,1.981339090292901,-9.595973697909711,-0.4024890598870813,-0.0639160051941871,-0.8476467728614807,-0.0429737828671932
9.8540009765625,-0.7623404627919197,5.060969384604692,1.1511048756439235,1.9770988223746415,-9.598131752726434,-0.3705951344329863,-0.3063400983810425,-0.5677181482315063,-0.1161489263176918
9.864059326171876,-1.0343898097336293,5.637261790606379,2.2607164420351387,1.957354695854336,-9.604005028674006,-0.3197671201998368,-0.6049972176551819,-0.1693020313978195,-0.3320720791816711
9.8741162109375,-1.3692853428192435,5.433061991053819,3.684907241126895,1.9118712940521536,-9.615432431617378,-0.2420452355558983,-1.0089377164840698,0.1463430076837539,-0.6207507848739624
9.88417431640625,-1.3458254106462002,4.30504931024909,4.649390863202512,1.8357389253556728,-9.632447279304266,-0.1280907477995846,-1.44845449924469,0.3958707451820373,-0.9368236064910888
9.894231201171875,-0.2409993980310857,1.8148925366818904,4.979222244766354,1.7345326134182513,-9.652013565039637,0.0209182186508434,-1.7897462844848633,0.5744335055351257,-1.11590313911438
9.90428955078125,-0.1367225926071405,1.831068595457077,4.803203122298419,1.6302553696028887,-9.66818845477104,0.1969374073341488,-2.0885918140411377,0.9288578033447266,-1.0052498579025269
9.914346435546875,2.266051227191836,-2.724458865916729,5.842375197872519,1.5556934650935232,-9.67451415066123,0.3924253099797293,-2.200036764144897,0.9431496858596802,-0.5682786703109741
9.924404296875,1.013241223242879,-10.24783075572252,7.02103786946237,1.5196746417291462,-9.67117886875868,0.5738186362992972,-1.6522644758224487,0.4437710642814636,-0.2764086425304413
9.93446142578125,-3.426536290925741,-16.855246322995423,7.848557783651351,1.4962112024247645,-9.667718499171734,0.6833294699192046,-0.6628936529159546,0.0522411055862903,-0.2638710141181946
9.944518310546876,-4.571144132700562,-15.433265893429516,7.63712452571392,1.4651160991981624,-9.670087566390633,0.7163943388488143,-0.0816930159926414,-0.2003859132528305,-0.3574877083301544
9.954576416015623,-4.005633817476034,-6.68272712110579,6.2219572832942,1.4254323235854505,-9.675356446704267,0.725267819525674,-0.0784314423799514,-0.2620609700679779,-0.4218712151050567
9.96463330078125,-2.951646157824993,0.9195119691878556,5.066490778374671,1.3794038551211356,-9.680493809592724,0.7454336785893887,-0.2908427119255066,-0.071727380156517,-0.4953619837760925
9.974691162109377,-2.0711505863822994,4.733435466328263,4.3937215731754895,1.3280499538503587,-9.684793552613256,0.7819437195368111,-0.4736633896827698,0.255481094121933,-0.5767332911491394
9.984748291015626,-1.7725581004299222,6.281696589463949,3.68454308398962,1.2690277099087834,-9.688795189470053,0.8289760312814265,-0.6041184663772583,0.6146474480628967,-0.7124658823013306
9.99480615234375,-2.2082995877079665,6.94173870729804,3.398091409946978,1.199892141297087,-9.69282663694322,0.8830405066851525,-0.6897926330566406,0.8385511040687561,-0.8273034691810608
10.004863525390626,-2.80987446513474,6.716864953029155,3.101650549070537,1.1245061339884996,-9.696300450533627,0.9421562010638416,-0.7343762516975403,0.9563679099082948,-0.8809458613395691
10.01492138671875,-3.1198405780166385,6.122236095348,2.58037568141371,1.0482577376969158,-9.698725047332047,1.0031455803599207,-0.7281234264373779,1.007896900177002,-0.87153160572052
10.024978271484375,-3.2857781591922044,5.390563742542266,2.0724166607953607,0.9791141319092362,-9.699828624659776,1.0606956328570842,-0.6613131761550903,1.0932103395462036,-0.7472183108329773
10.035036376953125,-2.8219021720588207,4.30803329449594,1.674785708463937,0.9318291605778038,-9.699176882752775,1.1081745193254202,-0.5319812893867493,1.1748851537704468,-0.4633141756057739
10.04509326171875,-2.429871523952484,3.186461460393667,1.4514770115546882,0.9173344790183008,-9.69659504956603,1.1423410658866169,-0.3899115324020386,1.131698727607727,-0.0987176671624183
10.0551513671875,-2.550080204132199,2.45061795938313,1.215629224133119,0.9383332817748188,-9.691731827443837,1.1663022255800664,-0.3143225014209747,0.9361300468444824,0.2816999852657318
