time,seconds_elapsed,z,y,x
1759159648935846400,0.044846435546875,-0.06955225965380668,-0.008967150309681891,-0.21117957543730734
1759159648945905200,0.0549052734375,-0.08696925840079783,0.0551993246525526,-0.16885317636132238
1759159648955963400,0.06496337890625,-0.08619009072184562,0.06010580139458179,-0.1022293713748455
1759159648966022100,0.075022216796875,-0.06834989812672138,0.11950608486831188,-0.06206570329070091
1759159648976081400,0.085081298828125,-0.085476974016428,0.10534253495931625,-0.0641705666154623
1759159648986139400,0.095139404296875,-0.08455401395261287,0.15413140804767608,-0.01837503012418747
1759159648996198400,0.105198486328125,-0.09158698132932186,0.154109196215868,-0.007228197687864303
1759159649006256400,0.11525634765625,-0.09126607881188392,0.18295125981867313,-0.0355272404551506
1759159649016315100,0.125315185546875,-0.08211655767261981,0.14691723888516425,-0.06034370180368423
1759159649026373400,0.135373291015625,-0.0704267044007778,0.1553203255712986,-0.05622223795950412
1759159649036432400,0.145432373046875,-0.07436404384970664,0.10427169085741042,-0.11871873388290405
1759159649046490000,0.155489990234375,-0.052118309772014614,0.13919219759106635,-0.19800912821888922
1759159649056549400,0.16554931640625,-0.022099603605270385,0.0900689779818058,-0.20193828436136244
1759159649066608000,0.175608154296875,-0.021956980264186857,0.11225625987052917,-0.15046294866800308
1759159649076666400,0.185666259765625,-0.058231239694356916,0.07812135055661201,-0.09463117133080959
1759159649086725000,0.19572509765625,-0.09165653943419456,0.1025257239729166,-0.0780173056602478
1759159649096783400,0.205783447265625,-0.11878887650966644,0.10536883844435214,-0.19701836361587047
1759159649106842400,0.21584228515625,-0.12830781548321246,0.17496376819610596,-0.22047347348332405
1759159649116900400,0.225900390625,-0.14270049797296525,0.1418266377478838,-0.18378712612092493
1759159649126959400,0.23595947265625,-0.1544791985720396,0.15992694258391857,-0.12763152365684508
1759159649137018400,0.246018310546875,-0.14418576809465886,0.0715337888598442,-0.02316167987883091
1759159649147076400,0.256076416015625,-0.11679565686583518,0.09130757986605167,-0.11472001963555813
1759159649157135400,0.26613525390625,-0.060137365576624864,0.11112696357965468,-0.18353052101135253
1759159649167193300,0.276193359375,-0.032814474365115164,0.13702303685843945,-0.1900543698221445
1759159649177252400,0.28625244140625,-0.04790098433792591,0.08045359289646148,-0.17968144436776637
1759159649187310300,0.296310302734375,-0.12222644974291325,0.070666942897439,-0.22371581640541552
1759159649197369300,0.306369384765625,-0.1362625738799572,0.09675181674659251,-0.27686522279083725
1759159649207427300,0.31642724609375,-0.1550537835896015,0.23027941270470617,-0.26068857949376106
1759159649217486300,0.326486328125,-0.1428928056746721,0.22665011629164217,-0.13968494954407215
1759159649227544300,0.33654443359375,-0.16140519844293594,0.14208558094501494,-0.1360924780100584
1759159649237603300,0.346603271484375,-0.09134732735455035,0.06439969919621943,-0.21006489219367502
1759159649247662300,0.356662353515625,-0.029826398465037342,-0.011171382355690002,-0.1005997243463993
1759159649257720300,0.36672021484375,-0.04619827207326889,-0.04449263719916344,-0.06067746380269527
1759159649267779300,0.376779296875,-0.0850625479966402,0.02876782932281494,-0.05602934573590755
1759159649277837300,0.38683740234375,-0.126729021859169,0.1208861410498619,-0.05782967315614223
1759159649287896300,0.396896240234375,-0.1549485696494579,0.1662082148104906,-0.07366787827908992
1759159649297954300,0.406954345703125,-0.17982523675262926,0.2193032606601715,-0.0574561636686325
1759159649308013300,0.417013427734375,-0.16552490872144698,0.2584475225687027,-0.0028290859460830685
1759159649318071300,0.4270712890625,-0.13994564630687237,0.2970943563491106,-0.0033949031352996824
1759159649328130300,0.43713037109375,-0.09229133020639418,0.2953682632088661,0.024148352828621863
1759159649338189300,0.447189208984375,-0.08156652257442473,0.23716157343387603,0.009529460367560387
1759159649348247300,0.457247314453125,-0.045594460961222646,0.12601298254430293,0.009057751202583312
1759159649358306300,0.467306396484375,-0.045940497919917105,0.027927286845445633,-0.029993571725487708
1759159649368364300,0.4773642578125,-0.04176642710566521,0.0010977321088314056,-0.11584814688265323
1759159649378423600,0.487423583984375,-0.03007540479004383,0.03782499600350857,-0.14604980840086937
1759159649388481300,0.497481201171875,-0.012356208226084709,0.09702829560041427,-0.15233400323688984
1759159649398540300,0.507540283203125,-0.006728431472182273,0.11560732386410236,-0.15918343074023722
1759159649408598500,0.5175986328125,-0.015045593440532683,0.14013035522401332,-0.16163900719881058
1759159649418657300,0.5276572265625,-0.021536709025502202,0.16008827062547207,-0.13432663738131523
1759159649428715300,0.53771533203125,-0.09278115954995154,0.11784428913593291,-0.11160919413864612
1759159649438774300,0.547774169921875,-0.0929009865373373,0.11724281611144542,-0.11114274567067622
1759159649448833300,0.557833251953125,-0.1352811616271734,0.10311141490638255,-0.09420505487322807
1759159649458891300,0.567891357421875,-0.11652560775279998,0.14422726914882658,-0.07078092466592788
1759159649468950300,0.5779501953125,-0.11637304753959178,0.14568740482926368,-0.07206336569190025
1759159649479008500,0.588008544921875,-0.11613982330560683,0.14739187065958975,-0.07350070501863956
1759159649489067300,0.5980673828125,-0.06973229239583015,0.1878536449074745,-0.1259188745200634
1759159649499125200,0.608125244140625,-0.040707273441553116,0.1869517276316881,-0.1446352654278278
1759159649509184300,0.618184326171875,-0.01780161415040493,0.18246143047511576,-0.17660685922801495
1759159649519242200,0.6282421875,-0.04304711456596851,0.16421967134177684,-0.17319442043602465
1759159649529301500,0.638301513671875,-0.06448270130455494,0.15542846212089062,-0.13813888914585112
1759159649539360300,0.6483603515625,-0.08176233740746974,0.17763503323197363,-0.1475859319269657
1759159649549418500,0.65841845703125,-0.06600654987096786,0.20205109708607197,-0.19516250661611556
1759159649559477200,0.668477294921875,-0.04889700963795185,0.17954408172369002,-0.1710749440640211
1759159649569535200,0.67853515625,-0.073660279494524,0.1056716207832098,-0.08356149578392505
1759159649579594500,0.688594482421875,-0.08752513871788978,0.04561082757413387,0.005121580797433853
1759159649589652200,0.69865234375,-0.07012041493058205,0.06331541109085083,-0.01945171944499016
1759159649599711500,0.70871142578125,-0.07331716514527797,0.12351999668478965,-0.09726502696573734
1759159649609769500,0.71876953125,-0.04373392778635025,0.14920330399572848,-0.15744856977164745
1759159649619828200,0.728828125,-0.024066519764065743,0.09071662823557854,-0.17596563871502877
1759159649629886500,0.738886474609375,-0.04079612076878547,0.08434066346287727,-0.19104513442516327
1759159649639945200,0.7489453125,-0.0515741198927164,0.12469780829250812,-0.1566173796445131
1759159649650003500,0.75900341796875,-0.13171966975331306,0.17936814063489437,-0.06104103641808033
1759159649660062200,0.769062255859375,-0.14794658193290233,0.24590894351303577,-0.037836686441302295
1759159649670121500,0.77912158203125,-0.16856792967915535,0.19997896698713302,-0.0215630125105381
1759159649680179500,0.789179443359375,-0.17796996427476405,0.07723989154696465,0.02012859579324722
1759159649690238200,0.79923828125,-0.14584171860814094,-0.010353051710128784,0.008591302734613417
1759159649700296400,0.80929638671875,-0.12364391532540321,-0.03366787632405758,-0.02392097381353378
1759159649710355200,0.819355224609375,-0.10305237819552421,-0.046298225316405296,-0.07324117729961872
1759159649720413400,0.829413330078125,-0.08060264597833156,-0.03386895185410976,-0.14786650243401528
1759159649730472400,0.839472412109375,-0.04292962566614151,0.0008136544704437256,-0.17324995001554488
1759159649740530200,0.8495302734375,-0.04498714271783828,0.035113983479142186,-0.17559446731507777
1759159649750589400,0.85958935546875,-0.05545417619645595,0.07014730293750762,-0.2186667163223028
1759159649760647400,0.8696474609375,-0.04245674745738506,0.04914017074406147,-0.2525374217420816
1759159649770706400,0.87970654296875,-0.06989946565628051,-0.041114685198664666,-0.18497253651320933
1759159649780764400,0.889764404296875,-0.09842296482920646,-0.039276363855600356,-0.14697043037712573
1759159649790823200,0.8998232421875,-0.1147603516459465,0.0013683657437562943,-0.1752443387031555
1759159649800882400,0.90988232421875,-0.12990823641717433,0.038539866274595255,-0.16939911980628966
1759159649810940200,0.919940185546875,-0.13024784363508224,0.08403320494890212,-0.13750702098309994
1759159649820999400,0.92999951171875,-0.15846914499104023,0.1191302372932434,-0.08843757738769054
1759159649831057400,0.940057373046875,-0.16020985117852687,0.14338321954011915,-0.08724223012328147
1759159649841116400,0.950116455078125,-0.14727087462842464,0.15694237381517886,-0.04171148204803467
1759159649851174400,0.96017431640625,-0.12292729148864745,0.17154256157577036,-0.036166707402467725
1759159649861233200,0.970233154296875,-0.08507014678120613,0.15057809948027134,-0.0665361267030239
1759159649871291400,0.98029150390625,-0.0932756650686264,0.18866613033413887,-0.11180734705924987
1759159649881350400,0.990350341796875,-0.07443418647646903,0.23137772933542727,-0.15143208596110344
1759159649891408400,1.000408447265625,-0.08047580472826957,0.2641834358721971,-0.1383937406897545
1759159649901467400,1.01046728515625,-0.1324935767352581,0.26180910795629025,-0.11988193244338034
1759159649911525400,1.020525390625,-0.15929916607439518,0.26363340077400205,-0.08714169235825538
1759159649921584400,1.03058447265625,-0.14043839825987814,0.25282909816503524,-0.10825579205751418
1759159649931642400,1.040642333984375,-0.1015799675554037,0.23096447235941886,-0.13355740657448767
1759159649941701400,1.050701416015625,-0.07410334708690643,0.20292378826737403,-0.15901391939222811
1759159649951760400,1.060760498046875,-0.031174890464544296,0.18316285674273966,-0.16893442490398883
1759159649961818400,1.070818359375,-0.038515900877118106,0.17463585141599178,-0.14503215579092502
1759159649971877400,1.08087744140625,-0.03669745327830314,0.12742811003923415,-0.08923486524522305
1759159649981935400,1.090935302734375,-0.005457096362113952,0.09380173476934432,-0.11596622030436991
1759159649991994400,1.100994384765625,-0.0273491946965456,0.1064946276038885,-0.09570844517350197
1759159650002052400,1.11105224609375,-0.0005699088424444198,0.14545242702960967,-0.05550502960085869
1759159650012111400,1.121111328125,-0.05586451056301593,0.15050795685350893,-0.059116790357232094
1759159650022169300,1.13116943359375,-0.05245324081480503,0.13825403995811938,-0.09318331061005591
1759159650032228400,1.141228271484375,-0.017321721678972245,0.16107786618471145,-0.1607137090474367
1759159650042286300,1.151286376953125,-0.0067798693984746925,0.24996201829612252,-0.20634791749715803
1759159650052345300,1.161345458984375,-0.0020890812337398526,0.317845467954874,-0.16315350341498852
1759159650062403300,1.1714033203125,-0.03256079186499119,0.3363280501067638,-0.12045008772015571
1759159650072462300,1.18146240234375,-0.08786708402335643,0.3362812883555889,-0.12184709503650665
1759159650082520300,1.191520263671875,-0.15594634851515293,0.2581763044118881,-0.07717384057343006
1759159650092579000,1.2015791015625,-0.18507716593146323,0.2015700355708599,-0.08890811750888825
1759159650102638300,1.211638427734375,-0.2316238130509853,0.15518530101478098,-0.14326222350895404
1759159650112696000,1.221696044921875,-0.2919605005919933,0.18493629615604876,-0.22230419604182242
1759159650122755300,1.23175537109375,-0.26765491137504577,0.20601006384491918,-0.3264303409487009
1759159650132813300,1.241813232421875,-0.23494974260330198,0.25940730751156804,-0.36565059070289135
1759159650142872000,1.2518720703125,-0.1864730042040348,0.2895727286726236,-0.31917817786335945
1759159650152930300,1.261930419921875,-0.1639379317909479,0.31470132471024986,-0.3164852855175733
1759159650162989000,1.271989013671875,-0.15527823999524115,0.3622878362715244,-0.37834172997176646
1759159650173047300,1.28204736328125,-0.16576456269621848,0.34383331117033955,-0.33660569800436496
1759159650183106300,1.292106201171875,-0.1241103637933731,0.24114099845886228,-0.23034137202501295
1759159650193164000,1.3021640625,-0.06421557480096816,0.07978957602977753,-0.18156360485255718
1759159650203223300,1.312223388671875,-0.024844518399238586,-0.03374561773538589,-0.1758633473843336
1759159650213281300,1.32228125,-0.02702536956965923,-0.055040919220447536,-0.20944062281548975
1759159650223340300,1.33234033203125,0.030084172618389127,-0.04320844260752201,-0.05829962875545024
1759159650233398300,1.342398193359375,0.07237725394666195,-0.04417991798818111,0.08756605525016783
1759159650243457300,1.352457275390625,0.06548164921402931,-0.029845103165507314,0.07045534597337245
1759159650253515300,1.362515380859375,0.06081424192488193,0.057197220471501345,0.13594751658141613
1759159650263574000,1.372573974609375,0.006267828223109245,0.1670885047763586,0.23325579816699027
1759159650273632300,1.38263232421875,-0.035709611284732816,0.2852688939988613,0.26435411626398564
1759159650283691300,1.392691162109375,-0.1057803418546915,0.32857495176196094,0.11303659659326076
1759159650293749200,1.402749267578125,-0.1580436130553484,0.2919523172855377,0.024580899026989934
1759159650303808300,1.412808349609375,-0.09062427377700805,0.40782910574078557,0.12466098341345787
1759159650313866200,1.4228662109375,-0.02791208927631378,0.3909972134053707,-0.03193359987735748
1759159650323925200,1.43292529296875,0.03984802626371384,0.28249942928552624,-0.15327332991361617
1759159650333983200,1.442983154296875,0.11191665265262127,0.27503099310100076,-0.07964052294790744
1759159650344042200,1.453042236328125,0.1772106703400612,0.3513952708572149,-0.16169278321266173
1759159650354101200,1.463101318359375,0.06891863792538643,0.31808687549531456,-0.23874621227681636
1759159650364159200,1.4731591796875,-0.03874678702354431,0.2933464019924402,-0.2876858920127153
1759159650374218200,1.48321826171875,-0.20663082609176633,0.2740665319830179,-0.38073300902247426
1759159650384276200,1.493276123046875,-0.3476607605040073,0.2970633766889572,-0.42712241975367066
1759159650394335200,1.503335205078125,-0.34689620587229725,0.17052490896582603,-0.5296837995618582
1759159650404393200,1.513393310546875,-0.2846270889639854,0.27849603886306284,-0.5113415026634931
1759159650414452200,1.5234521484375,-0.17620061651468277,0.12962825043201445,-0.7801572745114564
1759159650424510200,1.53351025390625,-0.17468319768905638,0.12159984227716922,-0.7384335175037383
1759159650434569200,1.5435693359375,-0.21399287929236888,0.09539981761574745,-0.7441279297530651
1759159650444627200,1.553627197265625,-0.24131986215710638,-0.05345744942128658,-0.7785843261063099
1759159650454686200,1.563686279296875,-0.21334055286347864,0.1855968058913946,-0.7449556127488612
1759159650464744400,1.573744384765625,-0.007471358793973922,0.20778350325822828,-0.9728940152853727
1759159650474803200,1.58380322265625,-0.09442015892863273,0.2203741047620773,-0.8142477601617574
1759159650484861200,1.593861083984375,-0.20438217038214204,0.1755365996479988,-0.5390256284028292
1759159650494920200,1.603920166015625,-0.2530529700487852,0.3311211291134357,-0.47633214860260487
1759159650504978200,1.613978271484375,-0.05550970577597618,0.14245909043252467,-0.5340244591146707
1759159650515037200,1.624037109375,0.17602818255722522,-0.11951426817476749,-0.3602846797555685
1759159650525095200,1.63409521484375,0.26175124028921126,-0.07899462625980377,-0.24392156908810136
1759159650535154200,1.644154296875,0.3603980770021677,-0.06926642844974994,-0.41615328197181223
1759159650545212200,1.654212158203125,0.39356151093542574,-0.05412848055064678,-0.5693325038611888
1759159650555271200,1.664271240234375,0.37792321229875087,-0.04609831883013248,-0.7484633286088704
1759159650565329400,1.674329345703125,0.3323483328208327,-0.07422083598673343,-0.7554828519821166
1759159650575388200,1.68438818359375,0.2367576688081026,-0.07983809134662151,-0.7408394096016884
1759159650585446100,1.694446044921875,0.18022154259383677,0.022453239348530767,-0.9575514847248792
1759159650595505200,1.704505126953125,0.13080343169122935,0.04744213465452194,-0.7637322094112634
1759159650605563100,1.714563232421875,0.20525953773856162,0.014009820652008056,-0.7740671409428119
1759159650615622400,1.724622314453125,0.2844710216194391,-0.057175593161582945,-0.8788859442889689
1759159650625680100,1.73468017578125,0.456499320885539,-0.09081132078170776,-0.9296323811858892
1759159650635739400,1.744739501953125,0.49866293061524625,-0.09063830230236053,-1.006428036096692
1759159650645797400,1.75479736328125,0.6137646430447697,-0.13337152861356735,-0.7868716774582862
1759159650655856000,1.764856201171875,0.5175497096538544,-0.04913724813461304,-0.43551030887067316
1759159650665914400,1.774914306640625,0.3019733605623245,0.0020627777487039565,-0.2164537164479494
1759159650675973000,1.78497314453125,0.13917992263138293,0.006008885025978088,-0.2785205887824297
1759159650686031000,1.795031005859375,0.15800328104496,0.08692191212773323,-0.19306758016347883
1759159650696090000,1.805090087890625,0.2618839267581701,0.18267361192107198,-0.07389408825039863
1759159650706148000,1.815148193359375,0.4599544297754764,0.12682254536151885,-0.13218962535262108
1759159650716207400,1.825207275390625,0.5393517916172742,0.07713117047548293,-0.20318682311773298
1759159650726265000,1.83526513671875,0.47724546405524015,-0.09179331755638122,-0.11602525701522827
1759159650736324400,1.845324462890625,0.2776625106483698,-0.24100538938045502,-0.16907880181074142
1759159650746382300,1.85538232421875,0.20313713875710962,-0.2221703405290842,-0.18008768708109854
1759159650756441000,1.865441162109375,0.18248744169920683,-0.07009294240176678,-0.11608049433380364
1759159650766499300,1.875499267578125,0.16225304744392632,0.09379296694099902,0.014679390476644039
1759159650776558000,1.88555810546875,0.09844371535629033,0.17148820104002951,0.09938391881585121
1759159650786616300,1.8956162109375,0.08445522975325584,0.20561960322260855,0.14197978248298168
1759159650796675300,1.90567529296875,0.015204875655472279,0.23802725035250186,0.1459022166237235
1759159650806733000,1.915733154296875,-0.07684417022764682,0.2115431480526924,0.1565726637199521
1759159650816792300,1.925792236328125,-0.019102467615902424,0.13025368885397912,0.20198446159064767
1759159650826850000,1.93585009765625,-0.07993278389275074,-0.01817979981303215,0.20108692822903393
1759159650836909300,1.945909423828125,-0.10307985072433948,-0.10121990207135677,0.28329642488211393
1759159650846967300,1.95596728515625,-0.11022796891331672,-0.14388590836524962,0.2741881125360727
1759159650857026000,1.966026123046875,-0.054231356403231616,-0.17946107961535454,0.2645432090952992
1759159650867084300,1.976084228515625,0.0020700842723250386,-0.10378244603574276,0.1192395428866148
1759159650877143000,1.98614306640625,0.033631928227841855,-0.017056348741054533,-0.08842296434044837
1759159650887201300,1.996201171875,0.002642623463273048,0.07144377248883246,-0.30415771886408327
1759159650897260300,2.00626025390625,-0.059654550495743745,0.17081132469177246,-0.4250499973937869
1759159650907318000,2.016318115234375,-0.07715396682918071,0.30577099927961826,-0.3268009278267622
1759159650917377300,2.026377197265625,-0.051534956926107406,0.4058323789656162,-0.23022505216896533
1759159650927435300,2.036435302734375,-0.09525602523088454,0.5015367324858904,-0.1788756809428334
1759159650937494300,2.046494384765625,-0.07036006890535354,0.5677870279848575,-0.07506079394221306
1759159650947552300,2.05655224609375,-0.04551788859367371,0.5104910233139991,-0.0921165581613779
1759159650957611300,2.066611328125,-0.07265636314898728,0.48031800336837766,0.00998334161490202
1759159650967669200,2.076669189453125,-0.0582689413562417,0.4892962595939636,0.12173311326801776
1759159650977728300,2.086728271484375,-0.1500444309949875,0.41674949429929253,0.09167758222222328
1759159650987786200,2.0967861328125,-0.14306874676346779,0.4070090215295553,0.18703911365419626
1759159650997845200,2.10684521484375,-0.1926657213643193,0.3183656924366951,0.4036535736218095
1759159651007903000,2.116903076171875,-0.27465368422120806,0.12945055577754974,0.4494868117749691
1759159651017962200,2.126962158203125,-0.27717501939237116,-0.1822685382515192,0.12979688499718903
1759159651028020200,2.137020263671875,-0.10703560261279343,-0.29446868402063847,0.17084142756909132
1759159651038079200,2.147079345703125,-0.18815701176822183,-0.31674715132415293,0.27920199517533184
1759159651048137200,2.15713720703125,-0.1505617328673601,-0.2937929767161608,0.1936554630540311
1759159651058196200,2.1671962890625,-0.15633856270313262,-0.2818693146884441,0.09117167852669954
1759159651068254200,2.177254150390625,-0.0870411545932293,-0.20546295135617254,0.07273366616889834
1759159651078313200,2.187313232421875,0.03612432956546545,0.01945581109821796,0.3561018411129713
1759159651088371200,2.19737109375,-0.00008826280534267425,0.14177519982159137,0.23301176027804613
1759159651098430200,2.20743017578125,-0.06721037270277738,0.12352525738179683,0.05137772053778171
1759159651108488200,2.21748828125,-0.05226648607105017,0.21876666956543922,0.22827421036213635
1759159651118547200,2.227547119140625,-0.10632248590737581,0.26887422403693195,0.3554039219766855
1759159651128605200,2.237605224609375,-0.3124137982949614,0.05186462727189064,-0.13814064271152018
1759159651138664200,2.247664306640625,-0.3847615338861942,-0.041353754651546476,-0.32965865534543987
1759159651148722200,2.25772216796875,-0.2469219199478626,-0.11508768390417098,-0.1685493711091578
1759159651158781200,2.26778125,-0.28305677090734244,-0.34802024146616456,-0.23866247951611874
1759159651168839200,2.277839111328125,-0.36576807960271834,-0.602988105225563,-0.443781184011884
1759159651178898200,2.287898193359375,-0.3978209219455719,-0.8026683815270662,-0.7449199569135904
1759159651188956200,2.2979560546875,-0.22175153059512376,-0.6059270812869072,-0.7394586227677762
1759159651199015200,2.30801513671875,-0.17382278146743774,-0.2873953846335411,-0.5777702600019052
1759159651209073200,2.3180732421875,-0.10822218204885721,-0.11251929472088813,-0.42983262856043875
1759159651219132200,2.328132080078125,-0.0947413537070155,-0.03393734091520309,-0.24687738668639211
1759159651229190100,2.338190185546875,-0.06821545809209346,0.08331658111214638,0.02419524701053742
1759159651239249200,2.348249267578125,-0.008170446974039076,0.10723930849134922,0.13024680245546624
1759159651249307100,2.35830712890625,0.03128945675492287,0.2421130583614111,0.11304079784434289
1759159651259366400,2.368366455078125,0.0017947744622826575,0.3872936827123165,0.06978570308350027
1759159651269424000,2.378424072265625,-0.03693213881701231,0.47040626568496224,-0.061159036774560804
1759159651279483100,2.388483154296875,-0.030247546486556528,0.6737257752716541,-0.16611955014634877
1759159651289541000,2.398541015625,-0.04188055500462651,0.7636129669457674,-0.23297259731143713
1759159651299599000,2.40859912109375,-0.03232669084817171,0.5911661500066518,-0.1756339225426316
1759159651309658400,2.418658447265625,-0.028044775745272636,0.399361137124896,-0.07571611604578793
1759159651319716000,2.428716064453125,-0.02423442367687821,0.13115034543275833,-0.06313238267414271
1759159651329775000,2.438775146484375,0.005690174465626478,-0.08762509196102619,-0.07870967183858156
1759159651339833300,2.448833251953125,0.05551788908243179,-0.1305319212734699,-0.18485468228720128
1759159651349892000,2.45889208984375,0.06660042411088943,-0.024932196682691574,-0.38159590946212407
1759159651359950000,2.4689501953125,-0.052887832839787007,0.1751402938067913,-0.5295017209932208
1759159651370009000,2.479009033203125,-0.22075784338265655,0.27573943363130093,-0.5276369500346482
1759159651380067000,2.489067138671875,-0.3007197072394192,0.23263854305148124,-0.4261462681978941
1759159651390126300,2.499126220703125,-0.34100130261480804,0.1930868693858385,-0.24581731970682738
1759159651400184000,2.50918408203125,-0.33930472782999277,0.08471943364739418,-0.14631503520831465
1759159651410243300,2.519243408203125,-0.16938158414959906,-0.05098083017468452,-0.17358809592872856
1759159651420301300,2.52930126953125,0.019454934315383435,-0.12356442034840583,-0.2552775142304599
1759159651430360000,2.539360107421875,0.13558511300981044,-0.13051321657299994,-0.38475174314454197
1759159651440418300,2.549418212890625,0.1497549465291202,-0.15312135422229767,-0.5631418325275183
1759159651450477000,2.55947705078125,0.16084347290694712,-0.1728220799922943,-0.6338531990885734
1759159651460535300,2.569535400390625,0.16416443402320147,-0.17788696216642855,-0.5958024315051734
1759159651470594000,2.579593994140625,0.09324000923335551,-0.10620412022471427,-0.4628650565251708
1759159651480652000,2.589652099609375,0.022561229767650366,-0.01752747338414192,-0.41848040974512696
1759159651490711300,2.599711181640625,0.006349661287665367,0.16441139452159403,-0.40571912784948944
1759159651500769000,2.60976904296875,0.04787643441855907,0.26878713027536866,-0.35280542991608377
1759159651510828300,2.619828369140625,0.0687847824126482,0.39870997973978517,-0.431042954198271
1759159651520886300,2.62988623046875,0.14591361480057238,0.45885845123231406,-0.5771228654764592
1759159651530944000,2.639944091796875,0.17619126416444778,0.6102145493477582,-0.6740446319624781
1759159651541003300,2.650003173828125,0.20680121422261,0.6897334917426109,-0.6810504190713167
1759159651551061200,2.660061279296875,0.2858373415365815,0.6870920373231172,-0.5926791849181056
1759159651561120300,2.670120361328125,0.23471754128262398,0.5005220024853945,-0.38116497069895267
1759159651571178200,2.68017822265625,0.18252324366495012,0.24441782817244528,-0.07267068393528461
1759159651581237000,2.690237060546875,0.2531539462052286,-0.09072422702014446,0.18963819023668765
1759159651591295200,2.700295166015625,0.3107926268339157,-0.20009587136507034,0.269872002902627
1759159651601354200,2.710354248046875,0.2132809316307306,-0.24646774643957614,0.09802461316138505
1759159651611412200,2.720412109375,0.1364240480519831,-0.1075058504730463,-0.036145372353494166
1759159651621471200,2.73047119140625,-0.029729952353239057,0.17401450464725493,-0.0015717793613672256
1759159651631529200,2.740529296875,-0.18144260882139204,0.7002776821106672,0.12972002036869526
1759159651641588200,2.750588134765625,-0.31116847440898415,0.703021427860856,0.06226502525508403
1759159651651646200,2.760646240234375,-0.4712358483768999,0.4999789816498756,0.0454503763154149
1759159651661705200,2.770705322265625,-0.5559837774664164,0.24112696993350982,0.10570172366052866
1759159651671763200,2.78076318359375,-0.5226460098795592,0.0620662878125906,0.1718073499917984
1759159651681822000,2.790822021484375,-0.49652080402001736,-0.020415011519193647,0.17532208011448383
1759159651691880200,2.800880126953125,-0.4211633652187884,-0.14411094929277896,-0.05112199221104383
1759159651701939200,2.810939208984375,-0.3408680316239595,-0.2064239053428173,-0.3225467775136232
1759159651711997200,2.8209970703125,-0.26960531479045746,-0.1821633243113756,-0.46789428286403417
1759159651722055200,2.83105517578125,-0.16197320758923886,-0.026865795093774795,-0.5867135545119643
1759159651732114200,2.8411142578125,-0.09809270996153355,0.09873276143074035,-0.6105746148318052
1759159651742172200,2.851172119140625,-0.0790717831492424,0.09936346054971218,-0.48786125835478306
1759159651752231200,2.861231201171875,-0.008772942911833524,0.052529228660464285,-0.3133762135863304
1759159651762289400,2.871289306640625,0.017072569223493338,-0.14830664741694927,-0.17134733126461504
1759159651772348200,2.88134814453125,0.0661614481717348,-0.31024434530138967,-0.09182751208692788
1759159651782406100,2.89140625,0.07481018018200992,-0.27657471541166306,-0.1504921747624874
1759159651792465200,2.901465087890625,0.0444755399338901,-0.22097557778656482,-0.4185533288508653
1759159651802523100,2.911523193359375,0.04517565102726221,-0.34074411298334595,-0.6500625756114721
1759159651812582100,2.92158203125,0.01459784967303276,-0.3332604792296886,-0.6897375833958387
1759159651822640000,2.93164013671875,-0.0869406168282032,-0.22168460283875463,-0.5341448706239461
1759159651832699100,2.94169921875,-0.1661386567056179,-0.11174012704193591,-0.3901102014377713
1759159651842757000,2.951757080078125,-0.2566460261046886,-0.06221183376312255,-0.40311142956912516
1759159651852815000,2.961815185546875,-0.3402810255162418,-0.005409165567159652,-0.47829818797856566
1759159651862874400,2.971874267578125,-0.41455549138635395,0.11493921534419059,-0.5607338946029543
1759159651872932000,2.98193212890625,-0.45578445061445233,0.18556407266557215,-0.5712710707083344
1759159651882991000,2.9919912109375,-0.4964696583546698,0.19580138904154298,-0.5821729884728789
1759159651893049300,3.00204931640625,-0.47580432533621786,0.18400106113255024,-0.5558724260464311
1759159651903108000,3.012108154296875,-0.4367722916305065,0.0808358702123165,-0.4256821578174829
1759159651913166300,3.022166259765625,-0.3193967890501022,-0.0627063392817974,-0.25400398716330524
1759159651923225000,3.03222509765625,-0.17909823765233157,-0.08196808911263942,-0.2311605794534087
1759159651933283000,3.042282958984375,-0.07773103606477379,0.006318681627511978,-0.19870617057234047
1759159651943342300,3.05234228515625,0.050027036581188435,-0.035087679994106294,-0.2964773934945464
1759159651953400000,3.062400146484375,0.07371186355128884,0.11931260812282561,-0.266850609254837
1759159651963459300,3.072459228515625,0.09794760240241884,0.06565057604014873,-0.1619955655515194
1759159651973517000,3.08251708984375,0.14934709638059138,-0.17910276769697664,0.11622954741567372
1759159651983575000,3.092574951171875,0.22371523188352582,-0.6760872437059879,0.29887773263454437
1759159651993634300,3.10263427734375,0.2018589355148375,-0.5599830762356519,0.5959118832290172
1759159652003692000,3.112692138671875,0.20809797603487967,-0.4984551330834627,0.7660238274797797
1759159652013751300,3.122751220703125,0.1801385404855013,-0.3059960402071476,0.7431979554265737
1759159652023809300,3.132809326171875,0.21792378900051115,-0.2017564980536699,0.8931371724814176
1759159652033868000,3.142867919921875,0.15742095111235976,0.04084638965129852,1.11382838036865
1759159652043926300,3.15292626953125,0.2778996804051101,-0.08941314442157745,1.232746436215937
1759159652053985000,3.162985107421875,0.39371874732375145,-0.18720307204425335,1.1113242885932326
1759159652064043300,3.173043212890625,0.40433541840612885,-0.31288112354576586,1.0851634268984198
1759159652074102300,3.183102294921875,0.08994038316607475,-0.06953998469412326,1.1706970995381474
1759159652084160000,3.193159912109375,-0.3870068285949528,0.3679442545980215,1.1790467024713753
1759159652094218000,3.203218017578125,-0.84605977948606,0.7193336802363395,1.140326511193812
1759159652104277200,3.21327734375,-1.1536007110476494,0.9212374778062105,0.9164590113580227
1759159652114335000,3.2233349609375,-1.371777013504505,0.9785065944701432,0.543132479199767
1759159652124394000,3.23339404296875,-1.373828685337305,0.6145628076851367,0.18459756572097538
1759159652134452200,3.2434521484375,-1.2541460748583078,0.17898820140659807,-0.18614333385825155
1759159652144511000,3.253510986328125,-1.1299230444706976,-0.14809738858044147,-0.35427141081541774
1759159652154569200,3.2635693359375,-1.1041678409673272,-0.3136591221809387,-0.2660395851328969
1759159652164628000,3.2736279296875,-0.7976362325787544,-0.47246728986799713,-0.21899726345092058
1759159652174686000,3.28368603515625,-0.44192353691384195,-0.6085445703089237,-0.14327391394674777
1759159652184744200,3.293744140625,-0.1358089848935604,-0.6265455064237118,-0.02915565959662199
1759159652194803000,3.303802978515625,0.08364858954548836,-0.45677112356424326,-0.05596913998126983
1759159652204861200,3.313861083984375,0.05661386762559414,-0.19512860434651375,-0.21673487147688864
1759159652214920000,3.323919921875,0.050720717933773994,-0.10033259784281254,-0.43045390226393937
1759159652224978000,3.33397802734375,0.19994287276044487,-0.1741553744226694,-0.7310171037673949
1759159652235037200,3.344037109375,0.37817046505808827,-0.3025818478494882,-0.8743272580713033
1759159652245095000,3.354094970703125,0.5517864719070494,-0.29986382106244563,-0.8368754792943597
1759159652255154200,3.364154296875,0.619489742693305,-0.0998942064255476,-0.604668605658412
1759159652265212200,3.374212158203125,0.544949173232913,-0.04908697925209999,-0.39050153884291644
1759159652275271000,3.38427099609375,0.4020220268972218,-0.06121171680986881,-0.34000293922722336
1759159652285329200,3.3943291015625,0.2562706169210374,-0.10845277593433857,-0.3481558505445719
1759159652295387100,3.40438720703125,0.0858726953357458,-0.13177227672338485,-0.37310382931828495
1759159652305446100,3.414446044921875,-0.09117021722197532,-0.05786065281629562,-0.3759416830927133
1759159652315504000,3.424504150390625,-0.20363617432042955,0.018389058649539946,-0.28072511308938264
1759159652325563000,3.43456298828125,-0.24353797659799456,0.03157236534953117,-0.06983984442353249
1759159652335621000,3.44462109375,-0.30799335150420665,0.14492226567566394,0.07388765850961208
1759159652345680000,3.454679931640625,-0.4164671702265739,0.2878928127616644,0.11906126371026038
1759159652355738000,3.464738037109375,-0.5405373481400311,0.24682138218283653,0.09761486331671476
1759159652365796000,3.474796142578125,-0.5815316218294203,0.1257569619566202,-0.03534837675690651
1759159652375854800,3.484854736328125,-0.504625930672884,0.1137058741569519,-0.25065204638689753
1759159652385913000,3.4949130859375,-0.39459655307158825,0.10451602100729941,-0.33263620985150333
1759159652395972000,3.50497216796875,-0.20053090178146957,0.08039806331694126,-0.19713322216719387
1759159652406029800,3.51502978515625,0.007766542348265648,-0.051100072640180585,0.029034663565456864
1759159652416089000,3.525089111328125,0.14206395363509655,-0.2100046864390373,0.1811249211743474
1759159652426147000,3.53514697265625,0.22608502975478767,-0.24340309817194938,0.13808920478522776
1759159652436206000,3.5452060546875,0.2755547247141599,-0.18491817597746849,-0.04015139312446117
1759159652446264000,3.55526416015625,0.26974282356500623,-0.1426367850869894,-0.1811006635159254
1759159652456322000,3.565322021484375,0.24084289229512212,-0.055227381703257555,-0.2963993598222732
1759159652466381000,3.575381103515625,0.21009411828815935,-0.013446926072239875,-0.40927316706925626
1759159652476439000,3.58543896484375,0.20423004856035112,-0.022454992914199827,-0.3748343063727021
1759159652486498000,3.595498046875,0.18024974577501415,-0.02979951045811176,-0.16994652455598114
1759159652496556000,3.60555615234375,0.10313348060771822,-0.03864508021473884,0.03714695061147213
1759159652506615000,3.615614990234375,0.03116130033060908,-0.007960019093751906,0.19479191973805426
1759159652516673000,3.625673095703125,0.03918327874466777,-0.03615852409601211,0.35920272973775863
1759159652526731000,3.63573095703125,0.03371770681515336,-0.0863350521504879,0.34268121852576733
1759159652536790000,3.6457900390625,0.0380588047593832,-0.0032271453529596327,0.11301116989105939
1759159652546848000,3.655847900390625,0.07895487877130508,0.09861644157469272,-0.1818967823296785
1759159652556907000,3.665906982421875,0.09015884822234511,0.11646481747627258,-0.41714112396538255
1759159652566965000,3.675965087890625,0.09055354662835598,0.06415653809010982,-0.5696180428043007
1759159652577024000,3.68602392578125,0.12505495116710663,0.0036006548404693603,-0.6189324010714888
1759159652587082200,3.696082275390625,0.15863208046779034,-0.010585106900334358,-0.6090533966138959
1759159652597141000,3.70614111328125,0.12355667543336749,-0.012444471031427382,-0.5386813450098037
1759159652607199000,3.716198974609375,0.05620338712856173,-0.031247955700755118,-0.4710945402100682
1759159652617257200,3.72625732421875,0.03870163270756602,-0.10343699359893799,-0.38138445866853
1759159652627316000,3.73631591796875,0.07938742496967315,-0.15215923119187355,-0.31462270651608704
1759159652637374200,3.746374267578125,0.09926116921901702,-0.12142448571026325,-0.27322774307131764
1759159652647433000,3.756432861328125,0.09643456749096513,-0.1228992344379425,-0.2117705270677805
1759159652657491000,3.766490966796875,0.07562778017520905,-0.16533143197596073,-0.17516659729182718
1759159652667549200,3.776549072265625,0.016885083827376364,-0.1607704076707363,-0.20038550196141003
1759159652677608000,3.78660791015625,-0.016444938844442366,-0.10511398690044879,-0.21028174981474876
1759159652687666000,3.796666015625,-0.046145518972724675,-0.04502747472822666,-0.17607348300367592
1759159652697725200,3.80672509765625,-0.06068813132718205,0.01420914261639118,-0.12183072842359542
1759159652707783000,3.816782958984375,-0.05629354963004589,0.09322072001099586,-0.10840016896426677
1759159652717842200,3.82684228515625,-0.03143091105222702,0.09955927538275718,-0.059414896520972246
1759159652727900000,3.83689990234375,-0.029261750319600103,0.06855506531000137,-0.05933978545814752
1759159652737958000,3.8469580078125,-0.013585019368678331,-0.005082417830824851,-0.0959118587911129
1759159652748017200,3.85701708984375,-0.04353592099621892,-0.066118193551898,-0.11167612189501523
1759159652758075000,3.867074951171875,-0.07175985270068048,-0.052798108729720114,-0.1133048921406269
1759159652768134100,3.877134033203125,-0.09242533184960484,-0.03336977016031742,-0.0915589242786169
1759159652778192100,3.887192138671875,-0.14659472893252967,0.01075578729212284,-0.10705722992271184
1759159652788251100,3.897251220703125,-0.17898937045037747,0.01621346817612648,-0.05604395878314972
1759159652798309000,3.90730908203125,-0.17216493125781415,-0.025806641429662703,-0.01929039140343666
1759159652808367000,3.9173671875,-0.15678382225260137,-0.06523615002036094,-0.06536328353136778
1759159652818426000,3.927426025390625,-0.13583236576914787,-0.08688917890191078,-0.13636808008104562
1759159652828484000,3.937484130859375,-0.0952111631758511,-0.11226678126454352,-0.17606062352210283
1759159652838542800,3.94754296875,-0.04032455773428082,-0.130123340472579,-0.18294804494827985
1759159652848601000,3.95760107421875,0.02419321488365531,-0.08890461037755013,-0.17572481569647788
1759159652858659000,3.9676591796875,0.09043065090104938,-0.029366964259743687,-0.19378508078306914
1759159652868718000,3.977718017578125,0.15756488962769508,-0.006238017606735229,-0.17495967654287814
1759159652878776000,3.987776123046875,0.1567921516895294,-0.01617898138463497,-0.14987813451737164
1759159652888835000,3.9978349609375,0.5145435135751962,-0.02713642872869968,-0.038058512498438356
1759159652898893000,4.00789306640625,1.0204840339779853,-0.12013386137783527,0.005478139150142669
1759159652908952000,4.0179521484375,0.39122736889943477,-0.07288578799068927,-0.06668956369906663
1759159652919010000,4.028010009765625,-0.44648309991434215,-0.03465864092707634,-0.06980126597881317
1759159652929068000,4.038068115234375,-1.0360570122934878,-0.0939034415781498,-0.0961246247589588
1759159652939127000,4.048126953125,-1.1259897966749965,-0.08875146564245223,-0.18735504773557185
1759159652949185000,4.05818505859375,-0.7702655567027628,-0.04157236583828926,-0.24804595554172992
1759159652959244000,4.068244140625,-0.32395664431154725,-0.05084346753060817,-0.09394202002286911
1759159652969302000,4.078302001953125,0.19080007362291215,-0.08568272572159767,0.1961801592260599
1759159652979360000,4.088360107421875,0.6477665736287832,-0.05377835193872452,0.40652269931733603
1759159652989419000,4.0984189453125,0.845625479722023,-0.0866051012635231,0.48272594129294155
1759159652999477200,4.108477294921875,0.7936211517184972,-0.08794131830334663,0.30331717638671396
1759159653009536000,4.118535888671875,0.607760726454854,-0.0036281273692846294,0.0006549567773938179
1759159653019594000,4.128593994140625,0.40715515200197694,0.11978490180969238,-0.23539485602229832
1759159653029652200,4.13865234375,0.15168854494020342,0.12286182503700256,-0.40211949592232704
1759159653039711000,4.1487109375,-0.15870631474778055,0.05345101968050003,-0.49975774011462926
1759159653049769200,4.158769287109375,-0.49022345744147894,-0.021378303593397138,-0.5780030093118548
1759159653059828000,4.168827880859375,-0.6901580007649958,-0.09195873725116252,-0.6338885626628995
1759159653069886000,4.178885986328125,-0.6961896821446716,-0.1366325762361288,-0.604707768625021
1759159653079945700,4.18894580078125,-0.5129413390755653,-0.215346631988883,-0.41462446496933697
1759159653090003700,4.199003662109375,-0.23724077614992856,-0.14101882849633693,-0.189477154456079
1759159653100061700,4.209061767578125,0.006646013885736465,0.006205284380912781,-0.006909048736095428
1759159653110120700,4.21912060546875,0.17096256973072885,0.05288461796939373,0.1244938101530075
1759159653120178700,4.2291787109375,0.26548092833682896,0.019527122768759727,0.17291005053669214
1759159653130237700,4.23923779296875,0.22071707298085091,0.010053191980719566,0.06745733320116996
1759159653140295700,4.249295654296875,0.1286051909945905,0.05909808565676212,-0.041319852381944654
1759159653150353700,4.259353759765625,-0.0004588496834039688,0.044783729100227355,-0.12786094849854707
1759159653160412700,4.26941259765625,-0.15835048704743385,0.054126142463088035,-0.20876871490329502
1759159653170470700,4.279470703125,-0.26979499214366076,0.07850655048191547,-0.2340364271506667
1759159653180530000,4.289530029296875,-0.35939956748411056,0.06445055260062217,-0.2285574112176895
1759159653190587600,4.299587646484375,-0.36927652611508965,0.03798398595750332,-0.22481997825503347
1759159653200645600,4.309645751953125,-0.357657838383317,-0.020119827964901922,-0.24096447284817693
1759159653210705000,4.319704833984375,-0.3233446498930454,-0.11428864248096943,-0.19610534042418
1759159653220762600,4.3297626953125,-0.24677447430118918,-0.1884288144469261,-0.15448562831282614
1759159653230821600,4.339821533203125,-0.08256035591736435,-0.30482991903722284,-0.08515051854103803
1759159653240879900,4.3498798828125,0.4227775224171579,-0.23159575600028037,-0.09527765254080295
1759159653250937600,4.3599375,0.3412748588591814,0.01798983019888401,-0.1160585747629404
1759159653260996900,4.369996826171875,0.3123480395823717,0.05627016875445842,0.05820873560160398
1759159653271054800,4.380054931640625,0.2919697068117559,-0.028625205981731412,0.0474067710801959
1759159653281113600,4.390113525390625,0.19310557408630846,-0.104181089964509,-0.05801672016084194
1759159653291171800,4.400171875,0.08645371009409428,-0.16916063487529753,-0.03509498651772737
1759159653301229800,4.410229736328125,0.03315875775814056,-0.19909692345559596,0.05964870527684688
