time,seconds_elapsed,z,y,x
1759159579420713000,0.026712890625,4.608688558197021,-5.80339518661499,-6.473322738647461
1759159579430771000,0.03677099609375,4.575469010162354,-5.776011505126953,-6.359298884582519
1759159579440829000,0.046828857421875,4.545391851806641,-5.787084687805176,-6.312761589813232
1759159579450887000,0.056886962890625,4.517559257507324,-5.7966614944458,-6.330269189453125
1759159579460945000,0.06694482421875,4.53910707244873,-5.787683238220215,-6.299593480682373
1759159579471004000,0.07700390625,4.531176279449463,-5.814019456481933,-6.225971779632568
1759159579481062000,0.087061767578125,4.553173007202148,-5.804442649841309,-6.267720671081543
1759159579491119900,0.097119873046875,4.589235669708252,-5.6946086486816405,-6.321889483642578
1759159579501178000,0.10717822265625,4.612279860687256,-5.59899021987915,-6.345083312225341
1759159579511235800,0.11723583984375,4.595071536254882,-5.600935508728027,-6.307224998474121
1759159579521293800,0.1272939453125,4.607491457366943,-5.7885810638427735,-6.227318518066406
1759159579531352000,0.13735205078125,4.657620054626465,-5.961562133789062,-6.256198575592041
1759159579541410000,0.14741015625,4.694879817962646,-5.9187657791137696,-6.376357571411132
1759159579551467800,0.1574677734375,4.708646477508545,-5.845592990875244,-6.415712261199951
1759159579561526000,0.167526123046875,4.701763147735595,-5.820304235839844,-6.3706713424682615
1759159579571584000,0.177583984375,4.650736724853515,-5.8283846664428705,-6.3612441734313965
1759159579581642000,0.18764208984375,4.602104503631591,-5.883600942230224,-6.321141295623779
1759159579591700000,0.197699951171875,4.580706326293945,-5.9376201171875,-6.312911227416992
1759159579601758000,0.207758056640625,4.565742565917969,-5.862950952911377,-6.3818941627502435
1759159579611816000,0.21781591796875,4.575917922973632,-5.877316162872314,-6.316801805114745
1759159579621874200,0.227874267578125,4.611082759857178,-5.941361057281494,-6.29495471496582
1759159579631932000,0.237931884765625,4.653579839324951,-5.861753852081298,-6.326228974151611
1759159579641990000,0.247989990234375,4.64101028060913,-5.783044472503661,-6.321889483642578
1759159579652049200,0.258049072265625,4.633229125213623,-5.7697267257690426,-6.36513475112915
1759159579662107000,0.26810693359375,4.6164697135925294,-5.7583542678833,-6.382941625976562
1759159579672164900,0.278164794921875,4.598962113952637,-5.837961473083496,-6.2846297203063965
1759159579682223000,0.28822314453125,4.604498705291748,-5.960215395355224,-6.270414147949219
1759159579692281000,0.298281005859375,4.611531672668456,-5.858461824798583,-6.319196006774902
1759159579702338800,0.3083388671875,4.611681310272217,-5.766584336090087,-6.282983706665039
1759159579712396800,0.318396728515625,4.613626599121093,-5.717652839660644,-6.3049804344177245
1759159579722455000,0.328455078125,4.598962113952637,-5.720645591735839,-6.308422099304199
1759159579732513000,0.338512939453125,4.595221173858643,-5.7411459434509275,-6.316053617095947
1759159579742570800,0.34857080078125,4.585494729614258,-5.762843395996094,-6.3420905601501465
1759159579752629000,0.35862890625,4.547187503051758,-5.781697734069824,-6.348973889923095
1759159579762687000,0.36868701171875,4.5887867568969725,-5.896320138549805,-6.358999609374999
1759159579772745000,0.378744873046875,4.623353043365478,-5.999420447540283,-6.451924561309814
1759159579782804000,0.388803955078125,4.655225852966308,-6.060921502685546,-6.433519136047363
1759159579792862000,0.398862060546875,4.644900858306885,-5.978471183013916,-6.455665501403808
1759159579802920000,0.408919921875,4.625148694610595,-5.88015927734375,-6.432022760009765
1759159579812978000,0.41897802734375,4.597465737915039,-5.86130493927002,-6.281188055419921
1759159579823036000,0.429035888671875,4.522946211242676,-5.768679262542724,-6.210259831237793
1759159579833094000,0.439093994140625,4.466682472229004,-5.701940891265869,-6.195894621276855
1759159579843152100,0.449152099609375,4.489726663208008,-5.692064809417724,-6.268319221496582
1759159579853209900,0.4592099609375,4.553472282409667,-5.801300260162353,-6.2678703086853025
1759159579863267800,0.469267822265625,4.575319372558593,-5.9117328117370604,-6.262184079742431
1759159579873326000,0.479326171875,4.59671754989624,-5.898714340209961,-6.3061775352478024
1759159579883384000,0.489384033203125,4.62844072189331,-5.908740059661865,-6.335656143188476
1759159579893442800,0.49944287109375,4.657769692230224,-5.913827738189697,-6.3247325981140134
1759159579903501000,0.5095009765625,4.634426226043701,-5.870133557891846,-6.291363412475586
1759159579913559000,0.51955908203125,4.608688558197021,-5.894524487304687,-6.26293226776123
1759159579923616800,0.52961669921875,4.617517176818847,-5.93088642501831,-6.272658712005615
1759159579933675000,0.539675048828125,4.670189613342285,-5.934028814697265,-6.28253479385376
1759159579943733000,0.54973291015625,4.71762473373413,-5.913079550170898,-6.312013401794434
1759159579953791000,0.559791015625,4.737825810241699,-5.884648405456542,-6.295553265380859
1759159579963849000,0.569848876953125,4.742314938354492,-5.890184996795654,-6.27580110168457
1759159579973907000,0.579906982421875,4.731391393280029,-5.865644429779052,-6.254702199554443
1759159579983966000,0.589966064453125,4.718821834564209,-5.863549503326416,-6.223727215576171
1759159579994024000,0.60002392578125,4.69921930847168,-5.937320841979981,-6.157587394714355
1759159580004082000,0.61008203125,4.682609534454345,-5.95677373046875,-6.139630882263183
1759159580014141000,0.620140869140625,4.661660269927978,-5.902904193115234,-6.10970336151123
1759159580024198700,0.63019873046875,4.674529103851318,-5.840355674743652,-6.134393566131592
1759159580034256600,0.640256591796875,4.651036000061035,-5.791424178314209,-6.172251879882812
1759159580044315000,0.65031494140625,4.681113158416748,-5.750573112487793,-6.168660577392577
1759159580054372900,0.660372802734375,4.680364970397949,-5.767931074523926,-6.131849726867675
1759159580064430600,0.6704306640625,4.66091208190918,-5.840804587554931,-6.04625701751709
1759159580074489900,0.68048974609375,4.656273316192626,-5.990442191314697,-5.959467207336425
1759159580084547800,0.6905478515625,4.651784188079834,-5.96275923461914,-6.0616696907043455
1759159580094605600,0.70060546875,4.6736312782287595,-5.841103862762451,-6.190806942749023
1759159580104663800,0.710663818359375,4.69847112045288,-5.720944866943359,-6.289418123626708
1759159580114721800,0.7207216796875,4.701912785339355,-5.559186617279052,-6.374561920166015
1759159580124779800,0.73077978515625,4.685452648925781,-5.4698529678344725,-6.410474945068359
1759159580134837800,0.740837646484375,4.66061280670166,-5.485864191436767,-6.499808594512939
1759159580144895700,0.750895751953125,4.6459483215332025,-5.622782598876952,-6.514323442077636
1759159580154954800,0.760954833984375,4.60958638381958,-5.818658222198486,-6.445041231536865
1759159580165012700,0.7710126953125,4.570082056427002,-5.925649108886718,-6.434267324066162
1759159580175070700,0.78107080078125,4.5313259170532225,-5.870133557891846,-6.4463879699707025
1759159580185128700,0.791128662109375,4.510675927734375,-5.736956090545654,-6.479158605194091
1759159580195187000,0.80118701171875,4.500051657867432,-5.680841989135742,-6.474819114685058
1759159580205244700,0.81124462890625,4.484938259887695,-5.670516994476318,-6.515670180511474
1759159580215302700,0.821302734375,4.5042415107727045,-5.74593434677124,-6.47377165145874
1759159580225362000,0.83136181640625,4.480000218963623,-5.926995847320557,-6.3980550239562985
1759159580235419600,0.841419677734375,4.4960114425659174,-6.146065299224853,-6.320692382812499
1759159580245477600,0.8514775390625,4.543745838165283,-6.1845221633911125,-6.3621419990539545
1759159580255535900,0.861535888671875,4.592228421783447,-6.100874742889404,-6.35256519241333
1759159580265593900,0.87159375,4.645200133514404,-6.0407204261779786,-6.292710150909423
1759159580275651600,0.881651611328125,4.639513904571533,-5.923404544830322,-6.299443843078613
1759159580285709800,0.891709716796875,4.600159214782715,-5.7992053337097165,-6.266972483062744
1759159580295768800,0.901768798828125,4.576965386199951,-5.729623847961426,-6.270563785552978
1759159580305826600,0.91182666015625,4.573972634124756,-5.712864436340332,-6.234650760650634
1759159580315884800,0.921884765625,4.581155239105224,-5.802497360992431,-6.181679048919677
1759159580325942800,0.93194287109375,4.633229125213623,-5.963357785034179,-6.14786095046997
1759159580336000800,0.942000732421875,4.69233597869873,-6.0975827156066895,-6.157737032318115
1759159580346058800,0.952058837890625,4.722562774658203,-6.0339867340087885,-6.30138913192749
1759159580356116700,0.96211669921875,4.7484500801086424,-5.9115831741333,-6.341791284942627
1759159580366175700,0.97217578125,4.730343930053711,-5.8366147346496575,-6.342539472961425
1759159580376233700,0.982233642578125,4.675277291870117,-5.764639047241211,-6.356156494903564
1759159580386291700,0.992291748046875,4.637867890930176,-5.7614966575622555,-6.343736573791504
1759159580396349700,1.002349609375,4.636221877288818,-5.795015480804443,-6.305728622436523
1759159580406408000,1.012407958984375,4.632480937194824,-5.804891562652587,-6.247818869781494
1759159580416465700,1.022465576171875,4.663156645965576,-5.844844802856445,-6.234800398254394
1759159580426525000,1.03252490234375,4.668244324493408,-5.856666173553466,-6.261435891723632
1759159580436583000,1.0425830078125,4.661510632324219,-5.9211599807739255,-6.200683024597168
1759159580446640600,1.052640625,4.642207381439209,-5.937021566772461,-6.242880828857421
1759159580456698600,1.06269873046875,4.596118999481201,-5.859210012817383,-6.309319924926758
1759159580466756900,1.0727568359375,4.576965386199951,-5.782894834899902,-6.304082608795166
1759159580476814800,1.08281494140625,4.573224446105956,-5.743091232299804,-6.318597456359863
1759159580486873900,1.092873779296875,4.571428794860839,-5.796212581634522,-6.292111600494384
1759159580496931800,1.102931884765625,4.574421546936035,-5.851428857421874,-6.3061775352478024
1759159580506989800,1.11298974609375,4.601954866027832,-5.871929209136963,-6.36483547592163
1759159580517047800,1.1230478515625,4.606892906951904,-5.8457426284790035,-6.417058999633789
1759159580527105800,1.133105712890625,4.592976609802246,-5.8098296035766595,-6.411522408294678
1759159580537163800,1.143163818359375,4.532074105072021,-5.813121630859374,-6.4225955909729
1759159580547222800,1.153222900390625,4.520851284790039,-5.826738652801513,-6.430825659179687
1759159580557280800,1.16328076171875,4.5221980232238765,-5.887940432739257,-6.387131478881836
1759159580567338800,1.1733388671875,4.566041841125488,-5.959916120147705,-6.371120255279541
1759159580577397000,1.18339697265625,4.57756393661499,-5.952733515167236,-6.370222429656982
1759159580587454700,1.193454833984375,4.5973161003112795,-5.889137533569335,-6.362441274261474
1759159580597512700,1.2035126953125,4.6167689888000485,-5.747281085205078,-6.36483547592163
1759159580607572000,1.213572021484375,4.614524424743652,-5.683685103607178,-6.327276437377929
1759159580617629700,1.223629638671875,4.585494729614258,-5.66931989364624,-6.286575009155273
1759159580627687700,1.233687744140625,4.55870959854126,-5.68862314453125,-6.262782630157471
1759159580637746000,1.243745849609375,4.529081352996826,-5.748927098846435,-6.201131937408447
1759159580647804000,1.253803955078125,4.544494026184082,-5.804741925048828,-6.209810918426514
1759159580657862700,1.263862548828125,4.578162487030029,-5.8816556533813475,-6.278045665740966
1759159580667921000,1.2739208984375,4.606294356536865,-5.942109245300292,-6.320692382812499
1759159580677979000,1.283978759765625,4.620360291290283,-5.963956335449218,-6.34583150024414
1759159580688036600,1.29403662109375,4.631433473968506,-5.998522621917724,-6.361393811035156
1759159580698094800,1.3040947265625,4.600308852386474,-6.015282033538818,-6.357054320526123
1759159580708153600,1.314153564453125,4.575020097351074,-5.972336041259766,-6.363488737487793
1759159580718211600,1.324211669921875,4.552873731994628,-5.954080253601074,-6.349273165130615
1759159580728269800,1.334269775390625,4.551227718353271,-5.951686051940918,-6.294505802154541
1759159580738327800,1.344327880859375,4.538957434844971,-5.9026049179077145,-6.252756910705566
1759159580748385800,1.3543857421875,4.5611038002014155,-5.8610056640625,-6.221781926727295
1759159580758444800,1.36444482421875,4.584147991180419,-5.829881042480468,-6.1930515068054195
1759159580768502800,1.374502685546875,4.561552713012695,-5.811325979614257,-6.1918544059753415
1759159580778560800,1.384560791015625,4.547187503051758,-5.785588311767578,-6.233752935028075
1759159580788618800,1.39461865234375,4.537161783599854,-5.793369467163085,-6.226719967651367
1759159580798676700,1.4046767578125,4.569483506011963,-5.910984623718261,-6.219687000274658
1759159580808735700,1.41473583984375,4.621108479309082,-6.017975510406494,-6.208913092803955
1759159580818793700,1.424793701171875,4.648492160797119,-6.069151570892334,-6.241683728027343
1759159580828851700,1.434851806640625,4.684704460906982,-6.069001933288574,-6.2593409652709955
1759159580838910000,1.444909912109375,4.695179093170165,-6.0333881835937495,-6.2946554397583006
1759159580848967700,1.4549677734375,4.646846147155761,-5.888389345550537,-6.275052913665771
1759159580859026700,1.465026611328125,4.5964182746887206,-5.827935753631592,-6.227767430877686
1759159580869085000,1.4750849609375,4.557063584899902,-5.860257476043701,-6.1744964439392085
1759159580879142700,1.485142578125,4.565592928314209,-5.884498767852783,-6.184971076202392
1759159580889200600,1.49520068359375,4.608090007781982,-5.876268699645996,-6.2207344635009765
1759159580899259000,1.5052587890625,4.64101028060913,-5.909488247680664,-6.213701496124267
1759159580909317600,1.515317626953125,4.641908106231689,-5.94330634613037,-6.233304022216797
1759159580919375600,1.525375732421875,4.638915354156494,-5.940912144470214,-6.293907251739501
1759159580929433900,1.535433837890625,4.600907402801513,-5.903802018737792,-6.301838044738769
1759159580939491800,1.545491943359375,4.5693338684082025,-5.898415065002441,-6.265625744628906
1759159580949550800,1.55555078125,4.52010309677124,-5.965751986694335,-6.2675710334777825
1759159580959608800,1.56560888671875,4.506486074829101,-5.964255610656738,-6.285527545928955
1759159580969666800,1.575666748046875,4.5425487373352045,-5.92475128326416,-6.333860491943359
1759159580979724800,1.585724853515625,4.499453107452393,-5.906495495605468,-6.311564488983154
1759159580989782800,1.59578271484375,4.4689270362854,-5.9293900489807125,-6.357503233337402
1759159580999841800,1.605841796875,4.516661431884765,-5.940912144470214,-6.400299588012695
1759159581009900000,1.615900146484375,4.523844036865234,-5.922057806396484,-6.3709706176757805
1759159581019958000,1.6259580078125,4.447528858947754,-5.9120320869445795,-6.380248149108886
1759159581030016000,1.63601611328125,4.45605820236206,-5.9777229949951165,-6.338648895263671
1759159581040075000,1.646074951171875,4.440645529174804,-6.045658467102051,-6.264727919006347
1759159581050133000,1.656133056640625,4.4285248832702635,-6.017526597595214,-6.3244333229064935
1759159581060191000,1.66619091796875,4.441842630004882,-5.960215395355224,-6.354959394073486
1759159581070249000,1.6762490234375,4.477306742095947,-5.906495495605468,-6.331466290283203
1759159581080308000,1.686307861328125,4.474912540435791,-5.872378121948242,-6.363189462280273
1759159581090366000,1.696365966796875,4.474164352416992,-5.876717612457275,-6.353463018035888
1759159581100424000,1.706423828125,4.459649504852295,-5.927744035339355,-6.293607976531982
1759159581110482000,1.71648193359375,4.476408916473388,-6.001964286804199,-6.318298181152343
1759159581120541000,1.726541015625,4.477157104492187,-6.011241818237305,-6.29480507736206
1759159581130599000,1.736598876953125,4.46219334411621,-5.963956335449218,-6.279841316986084
1759159581140657000,1.746656982421875,4.438400965118408,-5.893626661682129,-6.290016674041747
1759159581150715000,1.75671484375,4.4473792213439935,-5.88659369430542,-6.264428643798828
1759159581160774000,1.76677392578125,4.484040434265136,-5.832724156951904,-6.302735870361328
1759159581170832000,1.776831787109375,4.498704919433593,-5.8098296035766595,-6.301987682342529
1759159581180890000,1.78689013671875,4.486284998321533,-5.797858595275879,-6.30782354888916
1759159581190948000,1.796947998046875,4.4568063903808595,-5.776310780334472,-6.322039121246338
1759159581201006800,1.8070068359375,4.463988995361328,-5.830329955291748,-6.286874284362793
1759159581211065000,1.817065185546875,4.501548033905029,-5.925050558471679,-6.334309404754638
1759159581221123000,1.827123046875,4.510376652526856,-5.9032034683227534,-6.378602135467529
1759159581231180800,1.837180908203125,4.514716143035888,-5.862651677703857,-6.318597456359863
1759159581241240000,1.847239990234375,4.491372676849365,-5.868936457061767,-6.278943491363525
1759159581251298000,1.857298095703125,4.488679199981689,-5.859958200836181,-6.259191327667236
1759159581261355800,1.867355712890625,4.459350229644775,-5.86085602645874,-6.16102905960083
1759159581271414000,1.8774140625,4.449174872589111,-5.887491519927978,-6.145466748809814
1759159581281473000,1.88747314453125,4.4762592788696285,-5.989245090484618,-6.123918933868408
1759159581291531000,1.897531005859375,4.506635712432861,-6.110451549530029,-6.094141050720214
1759159581301589000,1.907589111328125,4.547935691070556,-6.208763455200195,-6.168062026977538
1759159581311647000,1.91764697265625,4.548384603881836,-6.267720671081543,-6.242282278442382
1759159581321706000,1.9277060546875,4.5431472877502435,-6.35870033416748,-6.207865629577636
1759159581331764000,1.937763916015625,4.535216494750976,-6.409427481842041,-6.21789134902954
1759159581341822000,1.947822021484375,4.508132088470458,-6.296750366210937,-6.209511643218994
1759159581351880200,1.957880126953125,4.510825565338134,-6.138882694244384,-6.146663849639892
1759159581361939000,1.96793896484375,4.479551306152343,-5.972635316467285,-6.083217505645751
1759159581371997000,1.977996826171875,4.425382493591308,-5.890035359191894,-6.074688162231445
1759159581382055200,1.98805517578125,4.41775097579956,-5.904101293945312,-6.085312432098388
1759159581392114000,1.998114013671875,4.432565098571777,-6.015581308746338,-6.179733760070801
1759159581402172200,2.008172119140625,4.444985019683838,-6.108057347869873,-6.257395676422119
1759159581412230000,2.01822998046875,4.446182120513916,-6.120177993774414,-6.246921044158936
1759159581422288000,2.028287841796875,4.391714032745361,-6.175992819976806,-6.2128036705017085
1759159581432347100,2.03834716796875,4.290409374999999,-6.205321790313721,-6.243329741668701
1759159581442404900,2.04840478515625,4.236090924835205,-6.03323854598999,-6.2481181449890135
1759159581452462800,2.058462890625,4.246415919494629,-5.874173773193359,-6.184971076202392
1759159581462521000,2.06852099609375,4.2688615600585935,-5.840804587554931,-6.161477972412109
1759159581472579800,2.078579833984375,4.360140498352051,-5.928342585754394,-6.153996092224121
1759159581482637800,2.088637939453125,4.444536106872558,-6.094141050720214,-6.1261634979248045
1759159581492696000,2.098696044921875,4.5045407859802244,-6.2693666847229,-6.2009822998046875
1759159581502754800,2.1087548828125,4.536413595581054,-6.420949577331543,-6.254402924346923
1759159581512813000,2.11881298828125,4.534169031524658,-6.387580391693115,-6.286575009155273
1759159581522871000,2.12887109375,4.4193969894409175,-6.355109031677245,-6.2867246467590325
1759159581532929000,2.138928955078125,4.313154290771484,-6.263830093383788,-6.259191327667236
1759159581542988000,2.148988037109375,4.205115940856933,-6.026055941009521,-6.258892052459716
1759159581553046000,2.1590458984375,4.0906431739807125,-5.8862944190979,-6.216544610595703
1759159581563104000,2.16910400390625,3.847930980682373,-5.8563668983459465,-6.2128036705017085
1759159581573163000,2.1791630859375,3.7479730613708493,-6.048501581573486,-6.296900003814697
1759159581583221000,2.189220947265625,3.7542578407287595,-6.161477972412109,-6.330568464660645
1759159581593279000,2.199279052734375,3.8955157386779784,-6.236296774291992,-6.389675318145752
1759159581603338000,2.209337890625,4.108450048828125,-6.249464883422851,-6.387879666900634
1759159581613396000,2.21939599609375,4.23264925994873,-6.320243470001221,-6.276399652099609
1759159581623454200,2.2294541015625,4.199130436706542,-6.325480786132812,-6.368277140808105
1759159581633512000,2.239511962890625,4.191050006103516,-6.271611248779297,-6.488885049438476
1759159581643571000,2.249571044921875,4.16845472793579,-6.2496145210266105,-6.5503861045837395
1759159581653629200,2.259629150390625,4.04769718170166,-6.124218209075927,-6.517016918945312
1759159581663687000,2.26968701171875,3.9469910743713377,-6.220584825897216,-6.48634121017456
1759159581673746000,2.279745849609375,3.8959646514892574,-6.2128036705017085,-6.541557485961913
1759159581683804200,2.28980419921875,3.9076363845825193,-6.381744525146484,-6.546196251678467
1759159581693862000,2.29986181640625,3.916764278411865,-6.40389089050293,-6.442048479461669
1759159581703921200,2.309921142578125,3.9619548347473144,-6.489932512664795,-6.309918475341797
1759159581713979000,2.319978759765625,3.8742671989440916,-6.594080284881591,-6.239139888763427
1759159581724036900,2.330036865234375,3.810671217346191,-6.557269434356689,-6.223727215576171
1759159581734094800,2.3400947265625,3.8946179130554195,-6.651541124725341,-6.3055789848327635
1759159581744153900,2.35015380859375,3.8417958389282223,-6.849062761688232,-6.458358978271484
1759159581754211800,2.3602119140625,3.807379190063476,-7.024438033294677,-6.6240078056335445
1759159581764270000,2.37027001953125,3.76682739944458,-7.121103925323486,-6.692541828155517
1759159581774328800,2.380328857421875,3.5773861930847164,-7.0938698814392085,-6.619518677520752
1759159581784386800,2.39038671875,3.405302948760986,-7.10569125213623,-6.394314083862304
1759159581794445000,2.400445068359375,3.3270424819946287,-7.164049917602538,-6.2870239219665525
1759159581804503800,2.41050390625,3.2430957862854,-7.1787144027709955,-6.236446411895751
1759159581814562000,2.42056201171875,3.1747114013671873,-7.13771369934082,-6.0413189765930175
1759159581824620000,2.4306201171875,3.098994773864746,-7.134421672058105,-5.988197627258301
1759159581834678800,2.4406787109375,3.0796915229797364,-7.264905662536621,-6.309619200134277
1759159581844737000,2.450737060546875,3.1555577880859373,-7.4971432235717765,-6.806715319824218
1759159581854795000,2.460794921875,3.314024010467529,-7.767538373565674,-6.913107656097412
1759159581864853800,2.470853759765625,3.199251968383789,-7.89757345123291,-6.533177780151367
1759159581874912000,2.480912109375,3.0165444541931152,-8.071751622009277,-6.116885966491699
1759159581884970000,2.490969970703125,2.927210804748535,-8.317606204986571,-6.139331607055664
1759159581895028000,2.501028076171875,2.8761843818664548,-8.43297679748535,-6.310367388153076
1759159581905087000,2.5110869140625,2.8987796600341795,-8.263736667633056,-5.882703116607666
1759159581915145000,2.52114501953125,2.5698762069702146,-7.893084323120116,-5.0951604080200195
1759159581925203200,2.531203125,2.039859814453125,-7.808239801788329,-5.799654246520996
1759159581935262000,2.541261962890625,1.9436428352355957,-7.972541890716553,-6.066458094024658
1759159581945320000,2.55131982421875,2.083703632354736,-8.240692476654052,-6.02665449142456
1759159581955378200,2.561378173828125,2.0958242782592773,-8.538920220947265,-5.820453873443603
1759159581965437000,2.57143701171875,2.1549311317443847,-8.936507334136962,-5.7906759902954095
1759159581975495000,2.581494873046875,2.326565463256836,-9.06564458618164,-5.640888748931885
1759159581985553200,2.59155322265625,2.537255209350586,-8.755296195983886,-5.589563050842285
1759159581995612000,2.60161181640625,2.587533444213867,-8.262539566802978,-5.519682289886474
1759159582005670100,2.611670166015625,2.6369138534545895,-7.87198542098999,-5.147533569335937
1759159582015727900,2.621727783203125,2.4851813232421875,-7.681347113800048,-4.856787705230713
1759159582025786600,2.63178662109375,2.242918042755127,-7.706336593627929,-4.8223710563659665
1759159582035844900,2.641844970703125,1.9247884971618652,-7.924059307098388,-4.797980126953124
1759159582045902800,2.65190283203125,2.042104378509521,-8.168267876434326,-4.696076918792724
1759159582055961600,2.661961669921875,2.272097375488281,-8.40185217590332,-4.7393221862792965
1759159582066019800,2.672019775390625,2.3855226791381834,-8.381351824188233,-5.072714767456055
1759159582076077800,2.682077880859375,2.3409306732177733,-8.173954105377197,-5.188534272766113
1759159582086136800,2.69213671875,2.290203525543213,-8.030451643371581,-4.98592495727539
1759159582096194800,2.70219482421875,2.2896049751281735,-8.057685687255859,-4.745008415222168
1759159582106252500,2.71225244140625,2.169595616912842,-8.201337786865233,-4.613177686309815
1759159582116311800,2.722311767578125,2.111236951446533,-8.404994565582275,-4.586691830444336
1759159582126369800,2.732369873046875,2.039261264038086,-8.476820615386963,-4.52638787612915
1759159582136427500,2.742427490234375,1.9915268684387206,-8.456769176483153,-4.2396822273254395
1759159582146486800,2.75248681640625,1.9490297889709471,-8.37057791671753,-3.858854525756836
1759159582156544800,2.762544677734375,1.8516157089233398,-8.179789971923828,-3.61973363494873
1759159582166602500,2.7726025390625,1.8456302047729491,-8.002918324279785,-3.7357027778625485
1759159582176661800,2.782661865234375,1.8882769218444824,-7.933636113739013,-3.878457051849365
1759159582186719700,2.7927197265625,1.8766051887512205,-8.008604553222655,-3.95806425704956
1759159582196778800,2.80277880859375,1.8255787658691405,-8.308478311157225,-4.084508032226562
1759159582206836700,2.812836669921875,1.7157447647094726,-8.648305309295655,-3.8353614219665526
1759159582216894700,2.822894775390625,1.599177071380615,-8.987533757019042,-3.437475033569336
1759159582226953700,2.83295361328125,1.4622586639404296,-9.195679663848876,-3.3873464363098145
1759159582237011700,2.84301171875,1.4528314949035643,-9.361927041625975,-3.403956210327148
1759159582247070000,2.853070068359375,1.5529390518188475,-9.36641616973877,-3.423259461212158
1759159582257128700,2.863128662109375,1.7863737136840818,-9.349058207702637,-3.053654579925537
1759159582267186700,2.873186767578125,1.8721160606384277,-9.143306502532958,-2.6409540687561033
1759159582277245000,2.883244873046875,1.8200421745300293,-8.941445375061035,-2.7424083641052244
1759159582287303700,2.8933037109375,1.6947955001831054,-8.670900587463379,-2.655169641113281
1759159582297361700,2.903361572265625,1.608155327606201,-8.587552442169189,-2.2336405113220215
1759159582307420000,2.913419921875,1.5382745666503905,-8.61897633895874,-1.9774609336853026
1759159582317478700,2.923478759765625,1.4821604652404785,-8.90657981338501,-2.0407576400756833
1759159582327537000,2.933536865234375,1.458816999053955,-9.075520668029785,-1.9792565849304198
1759159582337595600,2.943595703125,1.5391723922729492,-9.516353048706055,-1.9449895736694334
1759159582347653600,2.953653564453125,1.6186299598693847,-9.88850176925659,-2.0317793838500977
1759159582357712000,2.9637119140625,1.678335363769531,-9.677363110351562,-2.1269488998413086
1759159582367770600,2.9737705078125,1.7290625114440916,-9.373748412322998,-1.9680337646484374
1759159582377828900,2.983828857421875,1.7848773376464844,-9.354594799041747,-1.7865233512878418
1759159582387886800,2.993886962890625,1.7769465446472168,-9.312247357177734,-1.3064859184265136
1759159582397945600,3.003945556640625,1.7758990814208984,-9.106495652008055,-0.8307879760742187
1759159582408003800,3.01400390625,1.715445489501953,-9.013271424865723,-0.40177696609497066
1759159582418061800,3.024061767578125,1.7559972801208494,-9.072378278350829,0.14320318679809568
1759159582428120600,3.03412060546875,1.8255787658691405,-9.112181880950928,0.757166275024414
1759159582438178800,3.0441787109375,1.642123063659668,-9.105148913574219,0.9600748657226562
1759159582448237600,3.054237548828125,1.558475643157959,-9.120860861968994,1.011250926208496
1759159582458295800,3.0642958984375,1.4963760375976562,-9.197026402282715,1.325938806915283
1759159582468353800,3.074353759765625,1.41093296585083,-10.058041174316406,1.642123063659668
1759159582478412500,3.08441259765625,1.186177285003662,-11.602450882720946,1.347785897064209
1759159582488470800,3.094470703125,0.7848492317199707,-12.847884658813475,1.3078326568603516
1759159582498528800,3.10452880859375,0.827346311187744,-13.881880500793455,1.5626654960632322
1759159582508587800,3.114587890625,1.523909356689453,-12.658742727661132,2.367416529083252
1759159582518645800,3.124645751953125,2.027739168548584,-10.24763201828003,3.1809961807250975
1759159582528703700,3.134703857421875,2.0286369941711424,-8.508843062591552,3.0358477050781247
1759159582538762800,3.1447626953125,1.759438945007324,-7.747935847473144,2.408117957305908
1759159582548820700,3.15482080078125,1.534084713745117,-7.556250077056884,2.208501393890381
1759159582558879500,3.16487939453125,1.382202545928955,-7.950395525360107,1.9660884757995605
1759159582568937700,3.174937744140625,1.2861352043151855,-8.38958189239502,1.62147307434082
1759159582578995700,3.18499560546875,1.1685200477600097,-8.386140227508545,1.4480430915832518
1759159582589054700,3.1950546875,1.2292729148864745,-8.412476445770263,1.5855600494384765
1759159582599112700,3.20511279296875,1.4474445411682129,-8.667010009765624,1.6192285102844237
1759159582609170700,3.215170654296875,1.6446669029235839,-8.858845417785645,1.5536872398376464
1759159582619229700,3.225229736328125,1.7606360458374022,-9.163058666229247,1.7254712089538573
1759159582629287700,3.23528759765625,1.7757494438171386,-9.201665167999266,1.9289783500671385
1759159582639347000,3.245346923828125,1.696291876220703,-9.014019612884521,1.8748095375061034
1759159582649404700,3.25540478515625,1.6109984420776366,-8.70112738342285,1.7194857048034666
1759159582659462700,3.265462646484375,1.5355810897827147,-8.540266959381103,1.7323545387268064
1759159582669522000,3.27552197265625,1.4622586639404296,-8.61942525177002,1.8670283821105955
1759159582679579600,3.28557958984375,1.356614515686035,-8.766818291473388,2.0171148986816405
1759159582689638700,3.295638671875,1.3121721473693846,-8.84223564376831,2.1447557746887207
1759159582699697000,3.30569677734375,1.209820026397705,-8.837297602844238,2.2680571601867676
1759159582709754600,3.315754638671875,1.0975918235778808,-8.909422927856445,2.323123798370361
1759159582719814000,3.32581396484375,1.00870708694458,-8.975862023925782,2.431910336303711
1759159582729872000,3.335871826171875,0.9756371765136718,-9.04095438156128,2.560598675537109
1759159582739929600,3.3459296875,0.9736918876647949,-9.10395181274414,2.5767595367431637
1759159582749988900,3.35598876953125,0.977432827758789,-9.236830004882812,2.520495797729492
1759159582760046800,3.366046875,1.0070610733032226,-9.388562535095215,2.4356512763977047
1759159582770105900,3.37610595703125,1.0289081634521484,-9.546879119873047,2.3410803108215332
1759159582780163800,3.386163818359375,0.9874585472106933,-9.629479077148437,2.3542484199523925
1759159582790221600,3.3962216796875,0.9814730430603027,-9.585335984039306,2.3484125534057614
1759159582800280800,3.40628076171875,0.9886556480407714,-9.478943647766112,2.249202822113037
1759159582810338800,3.4163388671875,1.0119991142272948,-9.388263259887696,2.113930428314209
1759159582820397600,3.4263974609375,1.0217255584716796,-9.242665871429443,1.8761562759399413
1759159582830455800,3.436455810546875,1.1438298431396483,-9.172485835266112,1.6846201431274412
1759159582840513800,3.446513671875,1.2051812606811523,-9.137769911193848,1.5375263786315918
1759159582850572800,3.45657275390625,1.2014403205871582,-9.15482859802246,1.3453916954040526
1759159582860630800,3.466630859375,1.167023671722412,-9.169792358398437,1.14278237991333
1759159582870689500,3.476689453125,1.1278186195373534,-9.247005361938475,0.9292495193481445
1759159582880747800,3.486747802734375,1.0899603057861327,-9.329455681610106,0.7619546783447265
1759159582890805800,3.4968056640625,0.9967360786437988,-9.351153134155274,0.6043862815856933
1759159582900864800,3.50686474609375,0.9454103805541991,-9.313294820404051,0.4661211357116699
1759159582910922800,3.5169228515625,0.8270470359802246,-9.902567704010009,0.30750527572631836
1759159582920980700,3.526980712890625,0.8141782020568847,-9.988758963775634,0.46791678695678707
1759159582931039700,3.537039794921875,0.7984662536621093,-10.341604433441162,0.4525041137695312
1759159582941097700,3.54709765625,0.7695861961364746,-10.486902546691894,0.47809214401245115
1759159582951156700,3.55715673828125,0.8224082702636718,-10.153360327911376,0.6416460449218749
1759159582961214700,3.567214599609375,0.8394669570922851,-9.823110136413574,0.7547720733642578
1759159582971272700,3.577272705078125,0.8628104232788085,-9.747842421722412,0.9259574920654297
1759159582981331700,3.587331787109375,0.9038111267089843,-9.739313078308104,1.1294646331787108
1759159582991389700,3.5973896484375,0.8788216468811034,-9.67841057357788,1.2502221794128416
1759159583001448700,3.60744873046875,0.8752303443908691,-9.665092826843262,1.364994221496582
1759159583011506700,3.617506591796875,0.8532336166381835,-9.603891046905517,1.43652099609375
1759159583021564700,3.627564697265625,0.833182177734375,-9.47445451965332,1.4535796829223633
1759159583031624000,3.6376240234375,0.7896376350402832,-9.476250170898437,1.5574281799316405
1759159583041681700,3.647681640625,0.7044938385009765,-9.541791441345215,1.6837223175048828
1759159583051741000,3.657740966796875,0.5692214447021484,-9.583689970397948,1.861641428375244
1759159583061799000,3.667798828125,0.4921580787658691,-9.657461309051513,2.0130746833801267
1759159583071856600,3.677856689453125,0.4435258575439453,-9.64668740158081,2.1034557960510254
1759159583081916000,3.687916015625,0.47749359359741206,-9.732579386138916,2.0479402450561524
1759159583091974000,3.697973876953125,0.5702689079284667,-9.773729727172851,2.1089923873901366
1759159583102032600,3.70803271484375,0.6138134506225585,-9.772083713531494,2.1344307800292968
1759159583112091000,3.7180908203125,0.6483797370910644,-9.734375037384032,2.037764888000488
1759159583122148900,3.72814892578125,0.697161595916748,-9.675866734313963,2.0427029289245606
1759159583132207900,3.738207763671875,0.733523533630371,-9.48118821182251,1.9651906501770018
1759159583142265900,3.748265869140625,0.8258499351501465,-9.35309842300415,1.8746598999023436
1759159583152324600,3.75832470703125,0.8952817832946777,-9.34696328125,1.8423381774902343
1759159583162382800,3.7683828125,0.856824919128418,-9.412803826904296,1.704073031616211
1759159583172440800,3.77844091796875,0.7665934440612793,-9.503334577178954,1.4673463424682616
1759159583182499800,3.788499755859375,0.6310217750549316,-9.556605564117431,1.1978490180969237
1759159583192557800,3.798557861328125,0.5976525894165039,-9.399186804962158,0.9513958847045898
1759159583202616600,3.808616455078125,0.4465186096191406,-9.105448188781738,0.7939771255493163
1759159583212674800,3.8186748046875,0.41524435043334956,-9.004442806243896,0.9516951599121093
1759159583222733800,3.82873388671875,0.3419219245910644,-9.54523310623169,0.9304466201782225
1759159583232791600,3.83879150390625,0.32306758651733397,-9.797073193359374,0.7618050407409668
1759159583242849800,3.848849853515625,0.2620154441833496,-10.042927776336668,0.39264907226562495
1759159583252908800,3.85890869140625,0.24525603256225584,-9.95344448928833,0.25004443588256836
1759159583262966800,3.868966796875,0.26755203552246093,-9.926060807800292,0.26396073303222656
1759159583273025800,3.87902587890625,0.3082534637451172,-9.870994169616699,0.5461772537231445
1759159583283083800,3.889083740234375,0.36975451889038086,-9.823708686828613,0.6548141540527344
1759159583293141800,3.899141845703125,0.3794809631347656,-9.847052153015136,0.7644985176086425
1759159583303200800,3.90920068359375,0.397736750793457,-9.894038360595703,0.8710404914855957
1759159583313259000,3.919259033203125,0.4186860153198242,-9.835380419921874,0.7490858444213867
1759159583323317800,3.92931787109375,0.46238019561767574,-9.897928938293456,0.7719803977966309
1759159583333375700,3.939375732421875,0.5749076736450195,-10.007314026641845,0.8511386901855468
1759159583343434000,3.94943408203125,0.7058405769348144,-9.949404273986817,0.8698433906555175
1759159583353492700,3.95949267578125,0.8773252708435058,-9.921422042083739,0.8031050193786621
1759159583363550700,3.96955078125,0.9961375282287597,-9.866355403900146,0.873434693145752
1759159583373609700,3.979609619140625,1.0956465347290039,-9.808744926452636,0.9255085792541503
1759159583383667700,3.989667724609375,1.1369465133666992,-9.7928833404541,0.9831190567016601
1759159583393726700,3.999726806640625,1.0108020133972166,-9.873238733673094,1.0127473022460938
1759159583403784700,4.00978466796875,0.8222586326599121,-9.948506448364258,1.0646715507507323
1759159583413842700,4.0198427734375,0.6676829879760742,-9.925911170196533,1.129314995574951
1759159583423901700,4.029901611328125,0.5069722015380859,-9.803208335113524,1.157446865081787
1759159583433959700,4.039959716796875,0.3942950859069824,-9.623493572998047,1.1266215187072752
1759159583444019000,4.05001904296875,0.32022447204589843,-9.55062005996704,1.0134954902648925
1759159583454076700,4.06007666015625,0.280271231842041,-9.629628714752197,0.8257002975463866
1759159583464134700,4.070134765625,0.3329436683654785,-9.7423058303833,0.6522703147888184
1759159583474194000,4.08019384765625,0.39863457641601563,-9.83178911743164,0.6337152519226074
1759159583484251600,4.090251708984375,0.4438251327514648,-9.88386300354004,0.601992079925537
1759159583494311000,4.100310791015625,0.488417138671875,-9.828646727752686,0.4734533782958984
1759159583504369000,4.110368896484375,0.503081623840332,-9.791835877227783,0.39055414581298825
1759159583514427600,4.120427734375,0.5035305366516113,-9.847501065826416,0.36317046432495115
1759159583524486000,4.13048583984375,0.546476528930664,-9.94012674255371,0.4616320075988769
1759159583534544000,4.1405439453125,0.5895721588134766,-10.071209283447265,0.6027402679443359
1759159583544603000,4.150602783203125,0.6530185028076172,-10.098443327331543,0.6988076095581054
1759159583554660900,4.160660888671875,0.6551134292602538,-10.056395160675049,0.7231985389709472
1759159583564719600,4.1707197265625,0.6742670425415038,-9.917381826782226,0.7731774986267089
1759159583574777900,4.18077783203125,0.7300818687438965,-9.776572841644287,0.8046013954162597
1759159583584835800,4.1908359375,0.7767688011169434,-9.74275474319458,0.7285854927062988
1759159583594894800,4.200894775390625,0.776319888305664,-9.741707279968262,0.6519710395812988
1759159583604952800,4.210952880859375,0.7721300354003906,-9.735572138214112,0.6456862602233886
1759159583615011600,4.221011474609375,0.729034405517578,-9.701005851745604,0.6730699417114258
1759159583625069800,4.23106982421875,0.619948592376709,-9.627084875488281,0.7668927192687988
1759159583635128800,4.24112890625,0.4510077377319336,-9.511415007781983,0.8927379440307617
1759159583645186600,4.2511865234375,0.35778351058959956,-9.49360813293457,1.0012252067565917
1759159583655244800,4.261244873046875,0.354341845703125,-9.657910221862792,1.0817302375793456
1759159583665303800,4.2713037109375,0.40237551651000975,-9.889698870086669,1.0694599540710448
1759159583675361800,4.28136181640625,0.5053261878967285,-9.92680899581909,0.9654618194580078
1759159583685420800,4.2914208984375,0.5885246955871581,-9.909899946594237,0.8611644096374511
1759159583695478800,4.301478759765625,0.682497110748291,-9.88954923248291,0.7398083129882812
1759159583705537800,4.311537841796875,0.7339724464416504,-9.873986921691895,0.6168062026977539
1759159583715595800,4.321595703125,0.7992144416809082,-9.778967043304442,0.5087678527832031
1759159583725653800,4.33165380859375,0.8620622352600097,-9.684396077728271,0.39668928756713867
1759159583735712800,4.341712646484375,0.8845078758239746,-9.705644617462157,0.3779845870971679
1759159583745770800,4.351770751953125,0.8667010009765624,-9.761010530853271,0.41464580001831053
1759159583755829800,4.361829833984375,0.7881412590026855,-9.756970315551758,0.4424783943176269
1759159583765887700,4.3718876953125,0.6726210289001464,-9.791087689208984,0.506224013519287
1759159583775946800,4.38194677734375,0.5756558616638183,-9.790339501190186,0.5865794067382812
1759159583786004700,4.392004638671875,0.4656722229003906,-9.784204359436034,0.6548141540527344
1759159583796062700,4.402062744140625,0.39369653549194333,-9.759514154815673,0.7269394790649414
1759159583806121700,4.412121826171875,0.3755903854370117,-9.681552963256836,0.8245031967163086
1759159583816179700,4.4221796875,0.37289690856933594,-9.598354455566406,0.8574234695434569
1759159583826239000,4.432239013671875,0.42706572113037106,-9.553313536834716,0.8141782020568847
1759159583836296700,4.442296630859375,0.4724059150695801,-9.636362406921386,0.7730278610229492
1759159583846354700,4.452354736328125,0.519092847442627,-9.738115977478026,0.7432499778747558
1759159583856414000,4.4624140625,0.5749076736450195,-9.769539874267577,0.6540659660339355
1759159583866471700,4.4724716796875,0.6491279251098633,-9.804405435943602,0.5225345123291015
1759159583876531000,4.482531005859375,0.7306804191589356,-9.856628959655762,0.47165772705078124
1759159583886589000,4.4925888671875,0.8031050193786621,-9.89463691101074,0.5497685562133788
1759159583896647700,4.502647705078125,0.8614636848449706,-9.8319387550354,0.7228992637634277
1759159583906706000,4.512705810546875,0.9039607643127441,-9.69771382446289,0.9255085792541503
1759159583916764700,4.5227646484375,0.8969277969360351,-9.62080009613037,1.0845733520507812
1759159583926822700,4.53282275390625,0.8310872512817382,-9.597606267547606,1.159392153930664
1759159583936881000,4.542880859375,0.8110358123779297,-9.591022212982176,1.1718120750427246
1759159583946939600,4.552939697265625,0.8110358123779297,-9.65327145614624,1.1876736610412597
1759159583956998000,4.562997802734375,0.7957727767944336,-9.667038115692138,1.1350012245178223
1759159583967056600,4.573056640625,0.7656956184387207,-9.741408004760741,1.0544961936950683
1759159583977114600,4.583114501953125,0.7010521736145019,-9.81188731613159,1.022773021697998
1759159583987174000,4.593173828125,0.6335656143188476,-9.779715231323241,1.022024833679199
1759159583997231600,4.603231689453125,0.6557119796752929,-9.669881230163574,1.0606313354492187
1759159584007289900,4.613289794921875,0.6813000099182128,-9.60867945022583,1.0715548805236816
1759159584017348900,4.623348876953125,0.7187094108581542,-9.57635772781372,0.9593266777038574
1759159584027406600,4.633406494140625,0.7703343841552734,-9.590274024963378,0.7722796730041503
1759159584037465900,4.6434658203125,0.8430582595825195,-9.61406640396118,0.6866869636535644
1759159584047523800,4.65352392578125,0.8450035484313965,-9.902567704010009,0.4722562774658203
1759159584057582600,4.66358251953125,0.8405144203186035,-9.90181951599121,0.4121019607543945
1759159584067640800,4.673640869140625,0.8185176925659179,-9.73587141342163,0.47375265350341794
1759159584077698800,4.68369873046875,0.75971011428833,-9.561094692230224,0.48108489608764643
1759159584087757800,4.6937578125,0.6898293533325195,-9.53191535949707,0.5232827003479004
1759159584097815800,4.70381591796875,0.6150105514526367,-9.594912790679931,0.6290764862060546
1759159584107874600,4.71387451171875,0.5550058723449707,-9.65237363052368,0.6988076095581054
1759159584117932800,4.723932861328125,0.4908113403320312,-9.71058265838623,0.7739256866455078
1759159584127991600,4.733991455078125,0.4513070129394531,-9.764751470947266,0.8321347145080565
1759159584138049800,4.7440498046875,0.4795885200500488,-9.797222830963134,0.9169792358398436
1759159584148107800,4.754107666015625,0.5104138664245605,-9.804854348754882,1.025316860961914
1759159584158166500,4.76416650390625,0.5719149215698242,-9.752181912231444,1.0512041664123535
1759159584168224800,4.774224853515625,0.6941688438415526,-9.688885205841064,1.0422259101867675
1759159584178283800,4.78428369140625,0.802506468963623,-9.725247143554688,1.0580874961853026
1759159584188341500,4.794341552734375,0.9132382957458496,-9.808296013641357,1.0708066925048827
1759159584198400800,4.80440087890625,0.9859621711730956,-9.815478618621826,1.086518640899658
1759159584208458800,4.814458740234375,1.0103531005859374,-9.771485163116454,1.052101992034912
1759159584218516700,4.824516845703125,1.0199299072265624,-9.72300257949829,1.031751277923584
1759159584228575700,4.83457568359375,1.009455274963379,-9.660454061126709,0.9814730430603027
1759159584238633700,4.8446337890625,0.9386766883850097,-9.681403325653076,0.932691184234619
1759159584248692700,4.854692626953125,0.9516951599121093,-9.725097505950927,0.8846575134277344
1759159584258750700,4.864750732421875,1.0443208366394043,-9.81847137069702,0.8550292678833007
1759159584268809700,4.874809814453125,1.1239280418395996,-9.807697463226317,0.7950245887756348
1759159584278867700,4.88486767578125,1.1284171699523926,-9.805602536773682,0.8096890739440917
1759159584288925700,4.89492578125,0.869544115447998,-9.809493114471435,0.812083275604248
1759159584298984700,4.904984619140625,0.4661211357116699,-9.743203656005859,0.7852981445312499
1759159584309042700,4.915042724609375,0.2485480598449707,-9.671227968597412,0.8339303657531738
1759159584319101700,4.925101806640625,0.1623568000793457,-9.740360541534423,0.9730933372497558
1759159584329159700,4.93515966796875,0.2572270408630371,-9.828796365356444,1.1122563087463377
1759159584339218700,4.94521875,0.37184944534301756,-9.801113408660887,1.172859538269043
1759159584349276700,4.955276611328125,0.37409400939941406,-9.7039986038208,1.1572972274780273
1759159584359334700,4.965334716796875,0.3893570449829101,-9.651026892089844,1.1456254943847655
1759159584369394000,4.975393798828125,0.5843348426818847,-9.650428341674804,1.0327987411499022
1759159584379451600,4.98545166015625,0.9005190994262695,-9.699808750915526,0.8925883064270019
1759159584389510700,4.9955107421875,1.1475707832336426,-9.73018518447876,0.7647977928161621
1759159584399569000,5.00556884765625,1.3129203353881835,-9.766846397399902,0.6869862388610839
