time,seconds_elapsed,z,y,x
1759421664164271000,0.11127099609375,8.771780967712402,4.368414402008057,0.37838849425315857
1759421664184272100,0.131272216796875,8.77624225616455,4.356619834899902,0.4096143841743469
1759421664194272300,0.141272216796875,8.778447151184082,4.350678443908691,0.4252181947231293
1759421664204272000,0.151272216796875,8.783339500427246,4.3386549949646,0.4465010166168213
1759421664214272300,0.161272216796875,8.78918743133545,4.324953556060791,0.46403834223747253
1759421664224272100,0.171272216796875,8.794384956359863,4.312258243560791,0.4832988679409027
1759421664234268000,0.181267822265625,8.799749374389648,4.298483371734619,0.5077797174453735
1759421664244275700,0.191275634765625,8.807487487792969,4.279140949249268,0.5361668467521667
1759421664254275800,0.20127587890625,8.818110466003418,4.25365686416626,0.5636302828788757
1759421664264275700,0.211275634765625,8.832170486450195,4.220661163330078,0.5908949971199036
1759421664274274800,0.22127490234375,8.848572731018066,4.182589054107666,0.6157074570655823
1759421664284274700,0.231274658203125,8.865084648132324,4.143739223480225,0.6403520107269287
1759421664294274800,0.24127490234375,8.878360748291016,4.110623836517334,0.6692097783088684
1759421664304274700,0.251274658203125,8.888269424438477,4.08388614654541,0.700640082359314
1759421664314273000,0.26127294921875,8.89554500579834,4.062605381011963,0.73134446144104
1759421664324273000,0.27127294921875,8.899202346801758,4.049614429473877,0.7584072351455688
1759421664334273000,0.28127294921875,8.90445327758789,4.033095836639404,0.7843731641769409
1759421664344273000,0.29127294921875,8.910971641540527,4.013163089752197,0.8120800852775574
1759421664354272800,0.301272705078125,8.920345306396484,3.986135482788086,0.8417388796806335
1759421664364273000,0.31127294921875,8.932445526123047,3.952970027923584,0.8693704605102539
1759421664374272800,0.321272705078125,8.945100784301758,3.919084310531616,0.8923732042312622
1759421664384273000,0.33127294921875,8.95688533782959,3.8866007328033447,0.9159233570098877
1759421664394272800,0.341272705078125,8.966848373413086,3.8574094772338867,0.9414855241775513
1759421664406284800,0.353284912109375,8.974869728088379,3.832310914993286,0.9672051668167114
1759421664416285000,0.363284912109375,8.981742858886719,3.809591293334961,0.9928155541419983
1759421664426284800,0.373284912109375,8.987264633178711,3.7897346019744873,1.0185024738311768
1759421664436285400,0.383285400390625,8.994354248046875,3.7635233402252197,1.052539348602295
1759421664446285300,0.393285400390625,9.012269973754883,3.7072811126708984,1.0979176759719849
1759421664456285400,0.403285400390625,9.030547142028809,3.652933359146118,1.12944757938385
1759421664466285300,0.413285400390625,9.049580574035645,3.596903085708618,1.156613826751709
1759421664476285000,0.423284912109375,9.068480491638184,3.536550998687744,1.194083571434021
1759421664486284500,0.433284423828125,9.087333679199219,3.472121477127075,1.2389897108078003
1759421664496284700,0.44328466796875,9.103156089782715,3.4165918827056885,1.276637315750122
1759421664506284300,0.4532841796875,9.11255931854248,3.3816254138946533,1.302404522895813
1759421664516283400,0.463283447265625,9.109476089477539,3.3920817375183105,1.296769380569458
1759421664526283300,0.473283203125,9.103013038635254,3.4124889373779297,1.2885866165161133
1759421664536285400,0.483285400390625,9.09764575958252,3.426719903945923,1.2887202501296997
1759421664546283800,0.49328369140625,9.095172882080078,3.4317376613616943,1.2928212881088257
1759421664556283000,0.503282958984375,9.096955299377441,3.425250291824341,1.2974706888198853
1759421664566282800,0.51328271484375,9.101621627807617,3.4110026359558105,1.3022738695144653
1759421664576283100,0.523283203125,9.109552383422852,3.3847837448120117,1.3151636123657227
1759421664586283000,0.533282958984375,9.120232582092285,3.3505444526672363,1.3287475109100342
1759421664596283100,0.543283203125,9.129504203796387,3.3214364051818848,1.338128924369812
1759421664606283000,0.553282958984375,9.135316848754883,3.302901268005371,1.3443173170089722
1759421664616284000,0.563283935546875,9.138278007507324,3.2913215160369873,1.3525677919387817
1759421664626283800,0.57328369140625,9.140539169311523,3.282057046890259,1.3597893714904785
1759421664636284000,0.583283935546875,9.142464637756348,3.274782419204712,1.3643641471862793
1759421664646283800,0.59328369140625,9.144868850708008,3.2643003463745117,1.3733495473861694
1759421664656284000,0.603283935546875,9.146895408630371,3.255403757095337,1.3809480667114258
1759421664666283800,0.61328369140625,9.147008895874023,3.25305438041687,1.3857277631759644
1759421664676284000,0.623283935546875,9.1456298828125,3.2561137676239014,1.3876423835754395
1759421664686283800,0.63328369140625,9.14336109161377,3.261369228363037,1.390250563621521
1759421664696284000,0.643283935546875,9.141026496887207,3.265861749649048,1.3950461149215698
1759421664706283800,0.65328369140625,9.140748977661133,3.26142954826355,1.4071729183197021
1759421664716283000,0.663282958984375,9.144862174987793,3.243180513381958,1.4225502014160156
1759421664726283000,0.673282958984375,9.153634071350098,3.209035634994507,1.4434186220169067
1759421664736283000,0.683282958984375,9.165228843688965,3.162071704864502,1.4731768369674683
1759421664746283000,0.693282958984375,9.176368713378906,3.114105224609375,1.5056474208831787
1759421664756283000,0.703282958984375,9.185857772827148,3.0723822116851807,1.5332465171813965
1759421664766283300,0.713283203125,9.191681861877441,3.045152425765991,1.5525524616241455
1759421664776284000,0.723283935546875,9.191498756408691,3.0382254123687744,1.5671309232711792
1759421664786284300,0.7332841796875,9.186604499816895,3.0516724586486816,1.569700837135315
1759421664796284200,0.7432841796875,9.181842803955078,3.0638322830200195,1.573864221572876
1759421664806284800,0.753284912109375,9.179960250854492,3.0676779747009277,1.5773507356643677
1759421664816285400,0.763285400390625,9.180777549743652,3.0659990310668945,1.5758552551269531
1759421664826285600,0.77328564453125,9.182687759399414,3.0635266304016113,1.569525957107544
1759421664836284200,0.7832841796875,9.184359550476074,3.06310772895813,1.5605378150939941
1759421664846284300,0.7932841796875,9.185087203979492,3.0656864643096924,1.5511610507965088
1759421664856285200,0.80328515625,9.18468189239502,3.071605920791626,1.5418277978897095
1759421664866285000,0.81328515625,9.183469772338867,3.079899549484253,1.5324764251708984
1759421664876285000,0.823284912109375,9.182510375976562,3.086275100708008,1.5253758430480957
1759421664886285000,0.83328515625,9.181824684143066,3.0908524990081787,1.5202316045761108
1759421664896285000,0.843284912109375,9.181933403015137,3.090801477432251,1.5196740627288818
1759421664906285000,0.85328515625,9.182513236999512,3.0886452198028564,1.5205589532852173
1759421664916284200,0.8632841796875,9.181940078735352,3.091212272644043,1.5188015699386597
1759421664926284000,0.873283935546875,9.179399490356445,3.100930690765381,1.5143389701843262
1759421664936284200,0.8832841796875,9.175561904907227,3.112657070159912,1.5135384798049927
1759421664946284000,0.893283935546875,9.17349910736084,3.1178362369537354,1.5153833627700806
1759421664956284200,0.9032841796875,9.173826217651367,3.1157145500183105,1.5177600383758545
1759421664966284000,0.913283935546875,9.17550277709961,3.108553886413574,1.5223058462142944
1759421664976284200,0.9232841796875,9.177209854125977,3.1011123657226562,1.527183175086975
1759421664986284000,0.933283935546875,9.177887916564941,3.09786319732666,1.5297017097473145
1759421664996284200,0.9432841796875,9.176960945129395,3.0995686054229736,1.531806230545044
1759421665006284300,0.9532841796875,9.174942016601562,3.105531930923462,1.5318248271942139
1759421665016285000,0.963284912109375,9.171574592590332,3.115084409713745,1.5325886011123657
1759421665026285000,0.97328515625,9.169258117675781,3.122647285461426,1.5310592651367188
1759421665036284700,0.98328466796875,9.168309211730957,3.129122734069824,1.5235060453414917
1759421665046284500,0.993284423828125,9.167587280273438,3.136043071746826,1.5135881900787354
1759421665056284700,1.00328466796875,9.174854278564453,3.104555368423462,1.5343297719955444
1759421665066284300,1.0132841796875,9.182049751281738,3.068063735961914,1.564390778541565
1759421665076284200,1.0232841796875,9.19112777709961,3.0219480991363525,1.6004223823547363
1759421665086284000,1.033283935546875,9.200479507446289,2.972202777862549,1.6393743753433228
1759421665096284200,1.0432841796875,9.209274291992188,2.9219086170196533,1.6799073219299316
1759421665106284000,1.053283935546875,9.217048645019531,2.8730180263519287,1.7210917472839355
1759421665116283100,1.063283203125,9.224408149719238,2.8232922554016113,1.7634320259094238
1759421665126283300,1.073283203125,9.231802940368652,2.7736668586730957,1.8030368089675903
1759421665136283100,1.083283203125,9.238511085510254,2.725731134414673,1.8413819074630737
1759421665146283300,1.093283203125,9.24509334564209,2.675658702850342,1.881346583366394
1759421665156283400,1.103283447265625,9.25101089477539,2.6231374740600586,1.9256978034973145
1759421665166283300,1.113283203125,9.252823829650879,2.5970535278320312,1.9521591663360596
1759421665176283400,1.123283447265625,9.257122039794922,2.556185007095337,1.9854419231414795
1759421665186283500,1.133283447265625,9.264676094055176,2.4982128143310547,2.023630380630493
1759421665196283400,1.143283447265625,9.274703025817871,2.4254181385040283,2.06581711769104
1759421665206283500,1.153283447265625,9.284213066101074,2.3454346656799316,2.114875555038452
1759421665216284400,1.163284423828125,9.29236888885498,2.261533737182617,2.1697285175323486
1759421665226284300,1.1732841796875,9.298992156982422,2.179506778717041,2.2246055603027344
1759421665236284400,1.183284423828125,9.303361892700195,2.1059679985046387,2.2765607833862305
1759421665246284300,1.1932841796875,9.304892539978027,2.058468818664551,2.3134500980377197
1759421665256284400,1.203284423828125,9.304850578308105,2.0349438190460205,2.3343398571014404
1759421665266284300,1.2132841796875,9.303585052490234,2.0302326679229736,2.3434696197509766
1759421665276283400,1.223283447265625,9.301836967468262,2.0341970920562744,2.346965789794922
1759421665286283500,1.233283447265625,9.299333572387695,2.0427184104919434,2.349483013153076
1759421665296283600,1.24328369140625,9.297121047973633,2.0509517192840576,2.3510663509368896
1759421665306283500,1.253283447265625,9.296103477478027,2.057199716567993,2.3496315479278564
1759421665316282600,1.26328271484375,9.29593276977539,2.0568759441375732,2.350590229034424
1759421665326282800,1.27328271484375,9.29638385772705,2.0439605712890625,2.3600497245788574
1759421665336282600,1.28328271484375,9.29706859588623,2.0214128494262695,2.3767147064208984
1759421665346282800,1.29328271484375,9.29655647277832,1.9916105270385742,2.4037277698516846
1759421665356282600,1.30328271484375,9.29415225982666,1.9466806650161743,2.4493966102600098
1759421665366282800,1.31328271484375,9.290058135986328,1.8898273706436157,2.5087335109710693
1759421665376282600,1.32328271484375,9.284746170043945,1.8206499814987183,2.578585624694824
1759421665386282800,1.33328271484375,9.281150817871094,1.741917371749878,2.645056962966919
1759421665396282600,1.34328271484375,9.278212547302246,1.6555640697479248,2.7100284099578857
1759421665406282800,1.35328271484375,9.271976470947266,1.5676381587982178,2.7826857566833496
1759421665416283400,1.363283447265625,9.263084411621094,1.4809430837631226,2.8587493896484375
1759421665426283500,1.373283447265625,9.252215385437012,1.401923418045044,2.932828903198242
1759421665436283400,1.383283447265625,9.237698554992676,1.3306992053985596,3.010735273361206
1759421665446283500,1.393283447265625,9.217326164245605,1.2596648931503296,3.1023409366607666
1759421665456283400,1.403283447265625,9.190948486328125,1.184875249862671,3.2082560062408447
1759421665466283500,1.413283447265625,9.15995979309082,1.1027650833129883,3.324066638946533
1759421665476283400,1.423283447265625,9.119821548461914,1.0039722919464111,3.4628398418426514
1759421665486283500,1.433283447265625,9.06705379486084,0.8919089436531067,3.6281394958496094
1759421665496283400,1.443283447265625,8.999494552612305,0.7748637199401855,3.8182530403137207
1759421665506283500,1.453283447265625,8.915797233581543,0.6613364815711975,4.030083179473877
1759421665516282600,1.46328271484375,8.82178020477295,0.5557913184165955,4.247076034545898
1759421665526282800,1.47328271484375,8.723907470703125,0.45908525586128235,4.455677032470703
1759421665536282600,1.48328271484375,8.624723434448242,0.3650151491165161,4.653091907501221
1759421665546282800,1.49328271484375,8.524246215820312,0.2670729458332062,4.84110164642334
1759421665556282600,1.50328271484375,8.423182487487793,0.1651892513036728,5.01926851272583
1759421665566282800,1.51328271484375,8.315410614013672,0.05739303678274155,5.198172569274902
1759421665576283400,1.523283447265625,8.189054489135742,-0.05806216597557068,5.395033836364746
1759421665586283500,1.533283447265625,8.029799461364746,-0.1863248348236084,5.626538276672363
1759421665596283400,1.543283447265625,7.846226692199707,-0.32271263003349304,5.873919486999512
1759421665606283500,1.553283447265625,7.651943683624268,-0.46601417660713196,6.115630149841309
1759421665616284400,1.563284423828125,7.469442844390869,-0.6109175682067871,6.324909687042236
1759421665626284300,1.5732841796875,7.319823265075684,-0.7542515397071838,6.482405185699463
1759421665636284400,1.583284423828125,7.230490207672119,-0.8906674385070801,6.564833164215088
1759421665646284300,1.5932841796875,7.195437908172607,-1.0241934061050415,6.583841800689697
1759421665656284400,1.603284423828125,7.177428722381592,-1.1646595001220703,6.5801520347595215
1759421665666284300,1.6132841796875,7.146842956542969,-1.3218141794204712,6.583747863769531
1759421665676284700,1.62328466796875,7.111759662628174,-1.4828033447265625,6.587447643280029
1759421665686284500,1.633284423828125,7.082713603973389,-1.6316137313842773,6.583566188812256
1759421665696284700,1.64328466796875,7.059151649475098,-1.7459338903427124,6.579545021057129
1759421665706284500,1.653284423828125,7.031530380249023,-1.8389463424682617,6.583780765533447
1759421665716283600,1.66328369140625,6.992979049682617,-1.9273823499679565,6.599523544311523
1759421665726283800,1.67328369140625,6.951420783996582,-2.024240255355835,6.614413738250732
1759421665736283600,1.68328369140625,6.931704998016357,-2.1323349475860596,6.601126194000244
1759421665746283800,1.69328369140625,6.952906608581543,-2.2317609786987305,6.545731067657471
1759421665756283600,1.70328369140625,6.999192714691162,-2.30364990234375,6.471076011657715
1759421665766283800,1.71328369140625,7.03975248336792,-2.3469648361206055,6.411235332489014
1759421665776283600,1.72328369140625,7.041683673858643,-2.371511697769165,6.400074005126953
1759421665786283800,1.73328369140625,7.009034633636475,-2.383619785308838,6.431339740753174
1759421665796284000,1.743283935546875,6.968774795532227,-2.3858611583709717,6.474112033843994
1759421665806283800,1.75328369140625,6.938425064086914,-2.3820462226867676,6.508027076721191
1759421665816284700,1.76328466796875,6.940522193908691,-2.3789360523223877,6.506931304931641
1759421665826284500,1.773284423828125,6.959218502044678,-2.3692820072174072,6.4904632568359375
1759421665836284700,1.78328466796875,6.980077266693115,-2.353400945663452,6.473821640014648
1759421665846284500,1.793284423828125,6.996973991394043,-2.3413238525390625,6.459944725036621
1759421665856284700,1.80328466796875,7.00908088684082,-2.336911201477051,6.448403358459473
1759421665866284500,1.813284423828125,7.017298698425293,-2.3488516807556152,6.435116291046143
1759421665876284700,1.82328466796875,7.028900623321533,-2.372607946395874,6.413701057434082
1759421665886284500,1.833284423828125,7.035346031188965,-2.402914524078369,6.395326614379883
1759421665896284700,1.84328466796875,7.024764537811279,-2.4291155338287354,6.397059917449951
1759421665906284500,1.853284423828125,7.005295753479004,-2.4465270042419434,6.411762714385986
1759421665916283600,1.86328369140625,6.98429012298584,-2.4630961418151855,6.428308010101318
1759421665926283800,1.87328369140625,6.962002277374268,-2.477182388305664,6.447046279907227
1759421665936283600,1.88328369140625,6.94795560836792,-2.473633050918579,6.46353816986084
1759421665946283800,1.89328369140625,6.937578201293945,-2.4601669311523438,6.479804039001465
1759421665956283600,1.90328369140625,6.919875144958496,-2.451491355895996,6.501985549926758
1759421665966283800,1.91328369140625,6.893788814544678,-2.452305555343628,6.529330730438232
1759421665976283400,1.923283447265625,6.888564109802246,-2.455491065979004,6.53364372253418
1759421665986283500,1.933283447265625,6.910709857940674,-2.4561727046966553,6.509965896606445
1759421665996283400,1.943283447265625,6.93437385559082,-2.463571548461914,6.481941223144531
1759421666006283500,1.953283447265625,6.947220325469971,-2.47979736328125,6.461967468261719
1759421666016284200,1.9632841796875,6.959697723388672,-2.497480869293213,6.441699981689453
1759421666026284300,1.9732841796875,6.969128131866455,-2.5144999027252197,6.424862384796143
1759421666036284400,1.983284423828125,6.972936153411865,-2.5316953659057617,6.413968086242676
1759421666046284300,1.9932841796875,6.970730304718018,-2.5514330863952637,6.408543586730957
1759421666056284400,2.003284423828125,6.959713935852051,-2.5840702056884766,6.407440185546875
1759421666066284300,2.0132841796875,6.945382595062256,-2.653512954711914,6.39459228515625
1759421666076284400,2.023284423828125,6.94260835647583,-2.7614619731903076,6.351757049560547
1759421666086284300,2.0332841796875,6.95789909362793,-2.9024906158447266,6.271644592285156
1759421666096284400,2.043284423828125,6.989068031311035,-3.0786256790161133,6.151851654052734
1759421666106284300,2.0532841796875,7.028503894805908,-3.2965304851531982,5.9919352531433105
1759421666116283400,2.063283447265625,7.0647101402282715,-3.5439083576202393,5.805246829986572
1759421666126283500,2.073283447265625,7.103260517120361,-3.7951362133026123,5.5956220626831055
1759421666136283400,2.083283447265625,7.1427388191223145,-4.040652751922607,5.3688645362854
1759421666146283500,2.093283447265625,7.174794673919678,-4.2642130851745605,5.1487040519714355
1759421666156283400,2.103283447265625,7.207992076873779,-4.440794944763184,4.949197769165039
1759421666166283500,2.113283447265625,7.231367588043213,-4.5921430587768555,4.773874759674072
1759421666176283400,2.123283447265625,7.261303424835205,-4.716236591339111,4.604446887969971
1759421666186283500,2.133283447265625,7.3078131675720215,-4.80596923828125,4.434956073760986
1759421666196283400,2.143283447265625,7.3702921867370605,-4.8632121086120605,4.26594877243042
1759421666206283500,2.153283447265625,7.4356865882873535,-4.898184776306152,4.109580993652344
1759421666216284400,2.163284423828125,7.485630512237549,-4.92256498336792,3.987982749938965
1759421666226284300,2.1732841796875,7.521035194396973,-4.940109729766846,3.8986780643463135
1759421666236284400,2.183284423828125,7.55297327041626,-4.952115058898926,3.8209242820739746
1759421666246284300,2.1932841796875,7.583367824554443,-4.955057144165039,3.7563624382019043
1759421666256284400,2.203284423828125,7.610837459564209,-4.939455032348633,3.7211949825286865
1759421666266284300,2.2132841796875,7.635042190551758,-4.900478363037109,3.7231361865997314
1759421666276284400,2.223284423828125,7.659249782562256,-4.826748371124268,3.7694427967071533
1759421666286284300,2.2332841796875,7.690032005310059,-4.732553482055664,3.825793981552124
1759421666296284400,2.243284423828125,7.726785182952881,-4.616757392883301,3.8926429748535156
1759421666306284300,2.2532841796875,7.76829195022583,-4.492414474487305,3.9550230503082275
1759421666316283400,2.263283447265625,7.811663627624512,-4.368963718414307,4.007540702819824
1759421666326283500,2.273283447265625,7.857016086578369,-4.258305549621582,4.037877082824707
1759421666336283400,2.283283447265625,7.888622283935547,-4.177774906158447,4.060314655303955
1759421666346283500,2.293283447265625,7.899223327636719,-4.133951663970947,4.084492206573486
1759421666356283400,2.303283447265625,7.900759220123291,-4.122711181640625,4.092875957489014
1759421666366283500,2.313283447265625,7.901240825653076,-4.132680416107178,4.081867694854736
1759421666376283400,2.323283447265625,7.905817031860352,-4.15477180480957,4.0504655838012695
1759421666386283500,2.333283447265625,7.926341533660889,-4.1893391609191895,3.9740254878997803
1759421666396283400,2.343283447265625,7.9532389640808105,-4.231362819671631,3.874518871307373
1759421666406283500,2.353283447265625,7.971919059753418,-4.274311542510986,3.7880170345306396
1759421666416284400,2.363284423828125,7.983011245727539,-4.318935394287109,3.7133047580718994
1759421666426284300,2.3732841796875,7.9820146560668945,-4.3692193031311035,3.65618634223938
1759421666436284400,2.383284423828125,7.958563804626465,-4.438169479370117,3.624119281768799
1759421666446284300,2.3932841796875,7.917084693908691,-4.5105881690979,3.6255555152893066
1759421666456284400,2.403284423828125,7.875163555145264,-4.571977138519287,3.6399426460266113
1759421666466284300,2.4132841796875,7.8366379737854,-4.614786148071289,3.668947219848633
1759421666476284400,2.423284423828125,7.805589199066162,-4.635007381439209,3.7094178199768066
1759421666486284300,2.4332841796875,7.785815238952637,-4.662563323974609,3.7164337635040283
1759421666496284400,2.443284423828125,7.772851943969727,-4.716420650482178,3.6753900051116943
1759421666506284300,2.4532841796875,7.767743110656738,-4.789848804473877,3.5902469158172607
1759421666516283400,2.463283447265625,7.772514343261719,-4.850886821746826,3.4967479705810547
1759421666526283500,2.473283447265625,7.7810211181640625,-4.907717704772949,3.3971121311187744
1759421666536283400,2.483283447265625,7.769436836242676,-5.0076470375061035,3.275618314743042
1759421666546283500,2.493283447265625,7.725385665893555,-5.156650066375732,3.14605450630188
1759421666556283400,2.503283447265625,7.689821720123291,-5.294067859649658,3.0016324520111084
1759421666566283500,2.513283447265625,7.693520545959473,-5.375080585479736,2.8440399169921875
1759421666576283400,2.523283447265625,7.713603496551514,-5.3791680335998535,2.7812211513519287
1759421666586283500,2.533283447265625,7.727035999298096,-5.3493475914001465,2.801377058029175
1759421666596283400,2.543283447265625,7.71333646774292,-5.320457935333252,2.89266300201416
1759421666606283500,2.553283447265625,7.6807942390441895,-5.310923099517822,2.9949610233306885
1759421666616284200,2.5632841796875,7.653653144836426,-5.321023941040039,3.0460774898529053
1759421666626284300,2.5732841796875,7.647723197937012,-5.324362277984619,3.055131673812866
1759421666636284200,2.5832841796875,7.657286643981934,-5.315768241882324,3.0461270809173584
1759421666646284300,2.5932841796875,7.668431282043457,-5.301648139953613,3.0427019596099854
1759421666656284200,2.6032841796875,7.671318531036377,-5.2904839515686035,3.054832935333252
1759421666666284300,2.6132841796875,7.666554927825928,-5.285732269287109,3.074951410293579
1759421666676284200,2.6232841796875,7.660311698913574,-5.284133434295654,3.0931973457336426
1759421666686284300,2.6332841796875,7.657895088195801,-5.280920505523682,3.104642391204834
1759421666696284200,2.6432841796875,7.659364700317383,-5.277200698852539,3.1073391437530518
1759421666706284300,2.6532841796875,7.660186290740967,-5.277523040771484,3.104769706726074
1759421666716283400,2.663283447265625,7.657978534698486,-5.282413482666016,3.101896047592163
1759421666726283500,2.673283447265625,7.654121398925781,-5.290920257568359,3.0969223976135254
1759421666736283400,2.683283447265625,7.652340412139893,-5.300949573516846,3.084143877029419
1759421666746283500,2.693283447265625,7.651995658874512,-5.311219692230225,3.0672895908355713
1759421666756283400,2.703283447265625,7.652824401855469,-5.320868015289307,3.048443078994751
1759421666766283500,2.713283447265625,7.65526008605957,-5.328954219818115,3.0281310081481934
1759421666776283400,2.723283447265625,7.659786701202393,-5.335654258728027,3.0047860145568848
1759421666786283500,2.733283447265625,7.665952682495117,-5.339906692504883,2.9814200401306152
1759421666796283400,2.743283447265625,7.6733784675598145,-5.340384006500244,2.961402177810669
1759421666806283500,2.753283447265625,7.681777477264404,-5.3381147384643555,2.9436581134796143
1759421666816284200,2.7632841796875,7.692093849182129,-5.331546783447266,2.9285824298858643
1759421666826284300,2.7732841796875,7.704585075378418,-5.322281360626221,2.9125657081604004
1759421666836284400,2.783284423828125,7.718907833099365,-5.311275959014893,2.8946731090545654
1759421666846284300,2.7932841796875,7.733926296234131,-5.300097465515137,2.8750159740448
1759421666856284200,2.8032841796875,7.7495808601379395,-5.288603782653809,2.85394287109375
1759421666876284200,2.8232841796875,7.7837419509887695,-5.262458324432373,2.8089535236358643
1759421666886284300,2.8332841796875,7.800995826721191,-5.248641490936279,2.786858320236206
1759421666896284200,2.8432841796875,7.817452430725098,-5.235040187835693,2.7662405967712402
1759421666906284300,2.8532841796875,7.833880424499512,-5.220508098602295,2.7471659183502197
1759421666916283400,2.863283447265625,7.851511001586914,-5.203555583953857,2.728945732116699
1759421666926283500,2.873283447265625,7.871245384216309,-5.182559967041016,2.7119951248168945
1759421666936283400,2.883283447265625,7.892486572265625,-5.1587042808532715,2.6956939697265625
1759421666946283500,2.893283447265625,7.91450309753418,-5.13323450088501,2.679722785949707
1759421666956283400,2.903283447265625,7.935580253601074,-5.10761833190918,2.666301727294922
1759421666966283500,2.913283447265625,7.954504489898682,-5.083034515380859,2.6568663120269775
1759421666976283400,2.923283447265625,7.9716315269470215,-5.058548450469971,2.6522610187530518
1759421666986283500,2.933283447265625,7.986912727355957,-5.034101486206055,2.6528096199035645
1759421666996283400,2.943283447265625,7.999682903289795,-5.010928630828857,2.6581928730010986
1759421667006283500,2.953283447265625,8.009641647338867,-4.990285396575928,2.6670165061950684
1759421667016284200,2.9632841796875,8.016279220581055,-4.973423957824707,2.678553819656372
1759421667026284300,2.9732841796875,8.0203857421875,-4.958486557006836,2.693915605545044
1759421667036284400,2.983284423828125,8.02278995513916,-4.944988250732422,2.7115097045898438
1759421667046284300,2.9932841796875,8.024230003356934,-4.933022499084473,2.728985548019409
1759421667056284400,3.003284423828125,8.024627685546875,-4.924282550811768,2.743560552597046
1759421667066284300,3.0132841796875,8.0234956741333,-4.921576023101807,2.751716136932373
1759421667076284400,3.023284423828125,8.020281791687012,-4.928667068481445,2.7483880519866943
1759421667086284300,3.0332841796875,8.016547203063965,-4.940607070922852,2.7378318309783936
1759421667096284400,3.043284423828125,8.011521339416504,-4.957672595977783,2.7216415405273438
1759421667106284300,3.0532841796875,7.999739646911621,-4.984455108642578,2.7073397636413574
1759421667116283400,3.063283447265625,7.975548267364502,-5.025766849517822,2.7023353576660156
1759421667126283500,3.073283447265625,7.93825626373291,-5.081259250640869,2.7083661556243896
1759421667136283400,3.083283447265625,7.89442777633667,-5.14288330078125,2.7201266288757324
1759421667146283500,3.093283447265625,7.851206302642822,-5.203331470489502,2.730241060256958
1759421667156283400,3.103283447265625,7.808273792266846,-5.265227794647217,2.7346994876861572
1759421667166283500,3.113283447265625,7.76039457321167,-5.33787202835083,2.730154514312744
1759421667176283400,3.123283447265625,7.700334072113037,-5.429226398468018,2.720048666000366
1759421667186283500,3.133283447265625,7.617678165435791,-5.554751396179199,2.699265480041504
1759421667196283400,3.143283447265625,7.519829750061035,-5.701280117034912,2.6679298877716064
1759421667206283500,3.153283447265625,7.4092278480529785,-5.8629608154296875,2.6266496181488037
1759421667216284200,3.1632841796875,7.287777900695801,-6.035179615020752,2.575885057449341
1759421667226284300,3.1732841796875,7.158835411071777,-6.212421417236328,2.5153870582580566
1759421667236284400,3.183284423828125,7.023823261260986,-6.391140460968018,2.4473514556884766
1759421667246284300,3.1932841796875,6.8812103271484375,-6.569432258605957,2.3794639110565186
1759421667256284400,3.203284423828125,6.730698585510254,-6.74544620513916,2.3166654109954834
1759421667266284300,3.2132841796875,6.574626445770264,-6.920049667358398,2.248896837234497
1759421667276284400,3.223284423828125,6.419788360595703,-7.088642597198486,2.169724464416504
1759421667286284300,3.2332841796875,6.273090362548828,-7.245767593383789,2.077848434448242
1759421667296284400,3.243284423828125,6.138256072998047,-7.3894476890563965,1.9718297719955444
1759421667306284300,3.2532841796875,6.018550395965576,-7.5181169509887695,1.8507355451583862
1759421667316283400,3.263283447265625,5.897191047668457,-7.640489101409912,1.7367537021636963
1759421667326283500,3.273283447265625,5.758934020996094,-7.765199184417725,1.6451970338821411
1759421667336283400,3.283283447265625,5.596210956573486,-7.895442008972168,1.585768699645996
1759421667346283500,3.293283447265625,5.425591945648193,-8.019399642944336,1.5564265251159668
1759421667356283400,3.303283447265625,5.267055988311768,-8.125327110290527,1.5515846014022827
1759421667366283500,3.313283447265625,5.130239009857178,-8.213482856750488,1.5458152294158936
1759421667376283400,3.323283447265625,5.016045093536377,-8.285319328308105,1.53720223903656
1759421667386283500,3.333283447265625,4.918332099914551,-8.341681480407715,1.5480830669403076
1759421667396283400,3.343283447265625,4.8328046798706055,-8.384977340698242,1.5831674337387085
1759421667406283500,3.353283447265625,4.74896764755249,-8.42219066619873,1.638366937637329
1759421667416284200,3.3632841796875,4.646169185638428,-8.460362434387207,1.733640193939209
1759421667426284300,3.3732841796875,4.520864009857178,-8.500533103942871,1.863577961921692
1759421667436284200,3.3832841796875,4.369646072387695,-8.544044494628906,2.018843412399292
1759421667446284300,3.3932841796875,4.191592693328857,-8.59058952331543,2.191459894180298
1759421667456284200,3.4032841796875,3.991708278656006,-8.637519836425781,2.3727102279663086
1759421667466284300,3.4132841796875,3.7829298973083496,-8.679483413696289,2.554624319076538
1759421667486284300,3.4332841796875,3.3569769859313965,-8.735993385314941,2.92973256111145
1759421667496284200,3.4432841796875,3.1461946964263916,-8.751917839050293,3.1105496883392334
1759421667506284300,3.4532841796875,2.941328525543213,-8.762375831604004,3.2771108150482178
1759421667516283400,3.463283447265625,2.749521493911743,-8.768194198608398,3.4247872829437256
1759421667526283500,3.473283447265625,2.588469982147217,-8.772871017456055,3.5364692211151123
1759421667536283400,3.483283447265625,2.483736991882324,-8.778826713562012,3.5962982177734375
1759421667546283500,3.493283447265625,2.4065158367156982,-8.785192489624023,3.633090019226074
1759421667556283400,3.503283447265625,2.3547494411468506,-8.789830207824707,3.6557066440582275
1759421667566283500,3.513283447265625,2.318828582763672,-8.793614387512207,3.6695473194122314
1759421667576283400,3.523283447265625,2.2905476093292236,-8.797475814819336,3.6780221462249756
1759421667586283500,3.533283447265625,2.2754907608032227,-8.798759460449219,3.6843039989471436
1759421667596283400,3.543283447265625,2.2764644622802734,-8.794331550598145,3.694256544113159
1759421667606283500,3.553283447265625,2.2885687351226807,-8.783238410949707,3.7131385803222656
1759421667616284200,3.5632841796875,2.304063320159912,-8.766036033630371,3.744055986404419
1759421667626284300,3.5732841796875,2.3161580562591553,-8.743901252746582,3.7880947589874268
1759421667636284200,3.5832841796875,2.325347900390625,-8.717220306396484,3.843552589416504
1759421667646284300,3.5932841796875,2.3312859535217285,-8.686966896057129,3.9079208374023438
1759421667656284200,3.6032841796875,2.3385345935821533,-8.653061866760254,3.978184700012207
1759421667666284300,3.6132841796875,2.35062575340271,-8.615458488464355,4.051996231079102
1759421667676284400,3.623284423828125,2.3607311248779297,-8.577786445617676,4.125371932983398
1759421667686284300,3.6332841796875,2.363006591796875,-8.540925979614258,4.199888706207275
1759421667696284400,3.643284423828125,2.35380482673645,-8.504640579223633,4.277933120727539
1759421667706284300,3.6532841796875,2.3307788372039795,-8.469459533691406,4.359572887420654
1759421667716283600,3.66328369140625,2.293515205383301,-8.434093475341797,4.44703483581543
1759421667726283500,3.673283447265625,2.2954726219177246,-8.385645866394043,4.536724090576172
1759421667736283600,3.68328369140625,2.388977527618408,-8.318395614624023,4.611643314361572
1759421667746283500,3.693283447265625,2.4925918579101562,-8.26231861114502,4.6573872566223145
1759421667756283600,3.70328369140625,2.48966646194458,-8.264413833618164,4.655233383178711
1759421667766283500,3.713283447265625,2.4259867668151855,-8.289413452148438,4.644387245178223
1759421667776283600,3.72328369140625,2.362710475921631,-8.328479766845703,4.606970310211182
1759421667786283500,3.733283447265625,2.3237533569335938,-8.376344680786133,4.539512634277344
1759421667796283600,3.74328369140625,2.3437042236328125,-8.417571067810059,4.452166557312012
1759421667806283500,3.753283447265625,2.4496192932128906,-8.449542999267578,4.332969665527344
1759421667816284400,3.763284423828125,2.6576731204986572,-8.460550308227539,4.1864094734191895
1759421667826284300,3.7732841796875,2.9364287853240967,-8.445304870605469,4.02794885635376
1759421667836284400,3.783284423828125,3.222872495651245,-8.419608116149902,3.8591983318328857
1759421667846284300,3.7932841796875,3.4710259437561035,-8.393375396728516,3.6977603435516357
1759421667856284400,3.803284423828125,3.6723031997680664,-8.371790885925293,3.5492818355560303
1759421667866284300,3.8132841796875,3.850957155227661,-8.353198051452637,3.400672674179077
1759421667876284400,3.823284423828125,4.028661251068115,-8.324853897094727,3.2614188194274902
1759421667886284300,3.8332841796875,4.208404541015625,-8.28548526763916,3.132145404815674
1759421667896284400,3.843284423828125,4.387632369995117,-8.237480163574219,3.010453701019287
1759421667906284300,3.8532841796875,4.557061672210693,-8.18487548828125,2.900207757949829
1759421667916283400,3.863283447265625,4.70841121673584,-8.131662368774414,2.8066365718841553
1759421667926283500,3.873283447265625,4.839548587799072,-8.080151557922363,2.7313172817230225
1759421667936283400,3.883283447265625,4.948866844177246,-8.033048629760742,2.6737987995147705
1759421667946283500,3.893283447265625,5.039133071899414,-7.990690231323242,2.631765365600586
1759421667956283400,3.903283447265625,5.110263347625732,-7.953762531280518,2.60636043548584
1759421667966283500,3.913283447265625,5.155520915985107,-7.9237494468688965,2.6086294651031494
1759421667976283400,3.923283447265625,5.166186809539795,-7.900435924530029,2.6577799320220947
1759421667986283500,3.933283447265625,5.137743949890137,-7.87669038772583,2.7805709838867188
1759421667996283400,3.943283447265625,5.098796367645264,-7.843332290649414,2.941877603530884
1759421668006283500,3.953283447265625,5.068062782287598,-7.796428680419922,3.114600896835327
1759421668016284200,3.9632841796875,5.061110973358154,-7.736771106719971,3.2707443237304688
1759421668026284300,3.9732841796875,5.0876054763793945,-7.661661624908447,3.4037327766418457
1759421668036284200,3.9832841796875,5.141941070556641,-7.57738733291626,3.5091047286987305
1759421668046284300,3.9932841796875,5.210837364196777,-7.49246072769165,3.5889267921447754
1759421668056284400,4.003284423828125,5.281614303588867,-7.414176940917969,3.647569179534912
1759421668066284300,4.0132841796875,5.3456034660339355,-7.347014904022217,3.6899924278259277
1759421668076284400,4.023284423828125,5.401952743530273,-7.289932727813721,3.7210171222686768
1759421668086284300,4.0332841796875,5.452741622924805,-7.239321231842041,3.745661973953247
1759421668096284200,4.0432841796875,5.501267433166504,-7.192459583282471,3.764953374862671
1759421668106284300,4.0532841796875,5.56287956237793,-7.143194198608398,3.768211603164673
1759421668116283400,4.063283447265625,5.6370673179626465,-7.086893081665039,3.764256477355957
1759421668126283300,4.073283203125,5.721439361572266,-7.021022319793701,3.760399580001831
1759421668136283400,4.083283447265625,5.811886787414551,-6.945910453796387,3.761188507080078
1759421668146283300,4.093283203125,5.906768798828125,-6.863770961761475,3.7641801834106445
1759421668156283400,4.103283447265625,6.000284671783447,-6.778562068939209,3.770665168762207
1759421668166283300,4.113283203125,6.083225250244141,-6.6967082023620605,3.7840137481689453
1759421668176283400,4.123283447265625,6.149384498596191,-6.624262809753418,3.804532527923584
1759421668186283300,4.133283203125,6.1966681480407715,-6.56575345993042,3.8291537761688232
1759421668196283400,4.143283447265625,6.228046894073486,-6.521852016448975,3.853196382522583
1759421668206283300,4.153283203125,6.254734039306641,-6.475717544555664,3.887634754180908
1759421668216284200,4.1632841796875,6.259334087371826,-6.421087265014648,3.9699599742889404
1759421668226284300,4.1732841796875,6.227682113647461,-6.36981201171875,4.100208282470703
1759421668236284200,4.1832841796875,6.168126583099365,-6.350165367126465,4.218991756439209
1759421668246284300,4.1932841796875,6.1128010749816895,-6.37501335144043,4.261815071105957
1759421668256284200,4.2032841796875,6.0853729248046875,-6.4249701499938965,4.2259039878845215
1759421668266284300,4.2132841796875,6.084527015686035,-6.4787797927856445,4.144179821014404
1759421668276284200,4.2232841796875,6.093252658843994,-6.526355743408203,4.055761814117432
1759421668286284000,4.233283935546875,6.096902847290039,-6.570022106170654,3.979051113128662
1759421668296284200,4.2432841796875,6.086342811584473,-6.609960556030273,3.92875337600708
1759421668306284000,4.253283935546875,6.0570878982543945,-6.643815040588379,3.916849136352539
1759421668316283400,4.263283447265625,6.0109124183654785,-6.679031848907471,3.9280712604522705
1759421668326283300,4.273283203125,5.953985214233398,-6.726215839385986,3.934255838394165
1759421668336283400,4.283283447265625,5.889900207519531,-6.796937942504883,3.909088373184204
1759421668346283300,4.293283203125,5.819496154785156,-6.878246784210205,3.8721237182617188
1759421668356283100,4.303283203125,5.735966682434082,-6.96827507019043,3.8356311321258545
1759421668366283300,4.313283203125,5.6225504875183105,-7.068134784698486,3.820817470550537
1759421668376283100,4.323283203125,5.474245071411133,-7.175842761993408,3.8353822231292725
1759421668386283300,4.333283203125,5.292445182800293,-7.298322677612305,3.859384775161743
1759421668396283100,4.343283203125,5.09581184387207,-7.432543754577637,3.867845058441162
1759421668406283300,4.353283203125,4.913552284240723,-7.571310520172119,3.834383249282837
1759421668416284200,4.3632841796875,4.763476371765137,-7.712466239929199,3.7413125038146973
1759421668426284000,4.373283935546875,4.627865791320801,-7.855991840362549,3.6106069087982178
1759421668436284200,4.3832841796875,4.481801509857178,-8.004561424255371,3.465644359588623
1759421668446284000,4.393283935546875,4.305455684661865,-8.163606643676758,3.3149383068084717
1759421668456284200,4.4032841796875,4.093900680541992,-8.3298978805542,3.165914297103882
1759421668466284000,4.413283935546875,3.8690719604492188,-8.494780540466309,3.0065386295318604
1759421668476284200,4.4232841796875,3.6612589359283447,-8.648320198059082,2.8234689235687256
1759421668486284000,4.433283935546875,3.4847731590270996,-8.78356647491455,2.6221370697021484
1759421668496284200,4.4432841796875,3.3373429775238037,-8.896162986755371,2.427055835723877
1759421668506284000,4.453283935546875,3.2185332775115967,-8.978950500488281,2.278093099594116
1759421668516283400,4.463283447265625,3.145181179046631,-9.02603530883789,2.192875623703003
1759421668526283300,4.473283203125,3.091061592102051,-9.051257133483887,2.1657276153564453
1759421668536283100,4.483283203125,3.0225977897644043,-9.065388679504395,2.202930212020874
1759421668546283300,4.493283203125,2.927337884902954,-9.07327651977539,2.2970731258392334
1759421668556283400,4.503283447265625,2.7739622592926025,-9.085699081420898,2.4342074394226074
1759421668566283300,4.513283203125,2.576131582260132,-9.101946830749512,2.586193799972534
1759421668576283400,4.523283447265625,2.3398354053497314,-9.1172456741333,2.7515718936920166
1759421668586283500,4.533283447265625,2.0647013187408447,-9.132256507873535,2.91703200340271
1759421668596283400,4.543283447265625,1.76106858253479,-9.142265319824219,3.0801901817321777
1759421668606283500,4.553283447265625,1.4453544616699219,-9.144392967224121,3.2343719005584717
1759421668616284200,4.5632841796875,1.132866621017456,-9.141079902648926,3.3656177520751953
1759421668626284300,4.5732841796875,0.8467613458633423,-9.13774585723877,3.457549810409546
1759421668636284200,4.5832841796875,0.6094662547111511,-9.134361267089844,3.5159826278686523
1759421668646284300,4.5932841796875,0.44036009907722473,-9.128996849060059,3.554931163787842
1759421668656284200,4.6032841796875,0.340695321559906,-9.124204635620117,3.578092575073242
1759421668666284300,4.6132841796875,0.2802627682685852,-9.122750282287598,3.587071180343628
1759421668676284400,4.623284423828125,0.23968933522701263,-9.121747016906738,3.592533588409424
1759421668686284300,4.6332841796875,0.20580781996250153,-9.117361068725586,3.6057329177856445
1759421668696284400,4.643284423828125,0.18087416887283325,-9.109219551086426,3.6276237964630127
1759421668706284300,4.6532841796875,0.1615104079246521,-9.096949577331543,3.659170150756836
1759421668716283400,4.663283447265625,0.13184183835983276,-9.084697723388672,3.6906425952911377
1759421668726283500,4.673283447265625,0.1102680116891861,-9.06883716583252,3.7301440238952637
1759421668736283400,4.683283447265625,0.08929916471242905,-9.053691864013672,3.767341375350952
1759421668746283500,4.693283447265625,0.057836394757032394,-9.041060447692871,3.798123836517334
1759421668756283400,4.703283447265625,0.001111760619096458,-9.031516075134277,3.821242094039917
1759421668766283500,4.713283447265625,-0.0860898494720459,-9.023237228393555,3.839773416519165
1759421668776283400,4.723283447265625,-0.19596008956432343,-9.013511657714844,3.8585360050201416
1759421668786283500,4.733283447265625,-0.3173205852508545,-8.994855880737305,3.893828868865967
1759421668796283400,4.743283447265625,-0.4331699013710022,-8.967244148254395,3.946018695831299
1759421668806283500,4.753283447265625,-0.5123088955879211,-8.928877830505371,4.022773265838623
1759421668816284400,4.763284423828125,-0.5347945690155029,-8.883493423461914,4.11919641494751
1759421668826284300,4.7732841796875,-0.49290597438812256,-8.837828636169434,4.221354961395264
1759421668836284400,4.783284423828125,-0.39055824279785156,-8.799391746520996,4.311388969421387
1759421668846284300,4.7932841796875,-0.2526701092720032,-8.772351264953613,4.376293182373047
1759421668856284400,4.803284423828125,-0.119954414665699,-8.756030082702637,4.414489269256592
1759421668866284300,4.8132841796875,-0.015269758179783821,-8.74071979522705,4.446276664733887
1759421668876284400,4.823284423828125,0.09380202740430832,-8.734406471252441,4.457737445831299
1759421668886284300,4.8332841796875,0.24485446512699127,-8.729131698608398,4.462356090545654
1759421668896284400,4.843284423828125,0.41570672392845154,-8.725106239318848,4.457559585571289
1759421668906284300,4.8532841796875,0.591461181640625,-8.72194766998291,4.443852424621582
1759421668916283400,4.863283447265625,0.8063416481018066,-8.715875625610352,4.421955108642578
1759421668926283500,4.873283447265625,1.1013567447662354,-8.698959350585938,4.391499042510986
1759421668936283400,4.883283447265625,1.4540646076202393,-8.66635513305664,4.353168487548828
1759421668946283500,4.893283447265625,1.807093858718872,-8.624346733093262,4.3040947914123535
1759421668956283400,4.903283447265625,2.1330666542053223,-8.58243465423584,4.23815393447876
1759421668966283500,4.913283447265625,2.432873010635376,-8.546518325805664,4.148281097412109
1759421668976283400,4.923283447265625,2.708608388900757,-8.516664505004883,4.037325382232666
1759421668986283300,4.933283203125,2.9564311504364014,-8.491663932800293,3.914257049560547
1759421668996283400,4.943283447265625,3.17427921295166,-8.470246315002441,3.7880187034606934
1759421669006283300,4.953283203125,3.356968402862549,-8.451589584350586,3.6703760623931885
1759421669016284200,4.9632841796875,3.482069253921509,-8.445174217224121,3.567113161087036
1759421669026284300,4.9732841796875,3.5745253562927246,-8.447325706481934,3.469238042831421
1759421669036284400,4.983284423828125,3.6507372856140137,-8.454508781433105,3.370988607406616
1759421669046284300,4.9932841796875,3.716524362564087,-8.463600158691406,3.2749180793762207
1759421669056284400,5.003284423828125,3.784059762954712,-8.464988708496094,3.1929478645324707
1759421669066284300,5.0132841796875,3.8817660808563232,-8.443680763244629,3.131518840789795
1759421669076284400,5.023284423828125,4.016786098480225,-8.389404296875,3.106995105743408
1759421669086284300,5.0332841796875,4.17208194732666,-8.30489444732666,3.1293387413024902
1759421669096284400,5.043284423828125,4.328591823577881,-8.199542999267578,3.193894386291504
1759421669106284300,5.0532841796875,4.469696521759033,-8.078526496887207,3.3059699535369873
1759421669116283400,5.063283447265625,4.5911383628845215,-7.943416118621826,3.4631969928741455
1759421669126283500,5.073283447265625,4.686776161193848,-7.809435844421387,3.635529041290283
1759421669136283400,5.083283447265625,4.77781867980957,-7.687144756317139,3.7749879360198975
1759421669146283300,5.093283203125,4.886809349060059,-7.562296390533447,3.8860018253326416
1759421669156283400,5.103283447265625,5.008782386779785,-7.436063289642334,3.973332643508911
1759421669166283300,5.113283203125,5.131496906280518,-7.316227436065674,4.038653373718262
1759421669176283400,5.123283447265625,5.235217571258545,-7.2132391929626465,4.090480327606201
1759421669186283300,5.133283203125,5.307050704956055,-7.136660575866699,4.132007122039795
1759421669196283400,5.143283447265625,5.360689640045166,-7.087105751037598,4.148024082183838
1759421669206283300,5.153283203125,5.4397783279418945,-7.046857833862305,4.113492965698242
1759421669216284200,5.1632841796875,5.542606353759766,-7.002837657928467,4.050924777984619
1759421669226284300,5.1732841796875,5.645778179168701,-6.958323001861572,3.9846136569976807
1759421669236284200,5.1832841796875,5.744151592254639,-6.909949779510498,3.9278042316436768
1759421669246284300,5.1932841796875,5.79289436340332,-6.894470691680908,3.8831636905670166
1759421669256284200,5.2032841796875,5.803832530975342,-6.914870262145996,3.830190896987915
1759421669266284300,5.2132841796875,5.782945156097412,-6.9700727462768555,3.761103868484497
1759421669276284200,5.2232841796875,5.733024597167969,-7.054652690887451,3.6789262294769287
1759421669286284300,5.2332841796875,5.65479040145874,-7.165968418121338,3.583634853363037
1759421669296284400,5.243284423828125,5.552771091461182,-7.299147605895996,3.4726791381835938
1759421669306284300,5.2532841796875,5.443882942199707,-7.432803153991699,3.3597264289855957
1759421669316283400,5.263283447265625,5.347638130187988,-7.5428786277771,3.267713785171509
1759421669326283500,5.273283447265625,5.273125171661377,-7.6220316886901855,3.2045376300811768
1759421669336283400,5.283283447265625,5.206263542175293,-7.679347515106201,3.1769051551818848
1759421669346283500,5.293283447265625,5.1215105056762695,-7.727901458740234,3.19686222076416
1759421669356283400,5.303283447265625,5.007334232330322,-7.784266471862793,3.2406880855560303
1759421669366283500,5.313283447265625,4.790989398956299,-7.881406784057617,3.331674337387085
1759421669376283400,5.323283447265625,4.52712345123291,-7.9895548820495605,3.441272258758545
1759421669386283500,5.333283447265625,4.218706130981445,-8.101243019104004,3.569675922393799
1759421669396283400,5.343283447265625,3.866400718688965,-8.1987943649292,3.7417702674865723
1759421669406283500,5.353283447265625,3.4840304851531982,-8.290831565856934,3.910729169845581
1759421669416284200,5.3632841796875,3.125687837600708,-8.390653610229492,3.9996321201324463
1759421669426284300,5.3732841796875,2.844224214553833,-8.512221336364746,3.952542304992676
1759421669436284200,5.3832841796875,2.6366360187530518,-8.649648666381836,3.7949886322021484
1759421669446284300,5.3932841796875,2.472262144088745,-8.785183906555176,3.5886850357055664
1759421669456284200,5.4032841796875,2.3485238552093506,-8.905719757080078,3.3679020404815674
1759421669466284300,5.4132841796875,2.251875400543213,-9.007169723510742,3.1575136184692383
1759421669476284200,5.4232841796875,2.1033647060394287,-9.099418640136719,2.991112470626831
1759421669486284300,5.4332841796875,1.9063838720321655,-9.182571411132812,2.866374969482422
1759421669496284200,5.4432841796875,1.6712920665740967,-9.253663063049316,2.7832839488983154
1759421669506284300,5.4532841796875,1.4232356548309326,-9.305314064025879,2.748765707015991
1759421669516283400,5.463283447265625,1.1785109043121338,-9.337589263916016,2.7551188468933105
1759421669526283500,5.473283447265625,0.917462944984436,-9.357467651367188,2.7867813110351562
1759421669536283400,5.483283447265625,0.6458626389503479,-9.360407829284668,2.852297067642212
1759421669546283500,5.493283447265625,0.37309420108795166,-9.348201751708984,2.939703941345215
1759421669556283400,5.503283447265625,0.09332535415887833,-9.32146167755127,3.044982433319092
1759421669566283500,5.513283447265625,-0.18937340378761292,-9.28132438659668,3.1608705520629883
1759421669576283400,5.523283447265625,-0.4673424959182739,-9.23669147491455,3.2611563205718994
1759421669586283500,5.533283447265625,-0.6597910523414612,-9.208192825317383,3.3081750869750977
1759421669596283400,5.543283447265625,-0.7469295263290405,-9.194137573242188,3.3286657333374023
1759421669606283500,5.553283447265625,-0.7335549592971802,-9.195552825927734,3.3277182579040527
1759421669616284200,5.5632841796875,-0.6473357677459717,-9.208309173583984,3.3102869987487793
1759421669626284300,5.5732841796875,-0.5190830826759338,-9.226398468017578,3.2823798656463623
1759421669636284200,5.5832841796875,-0.37036842107772827,-9.245984077453613,3.247262716293335
1759421669646284300,5.5932841796875,-0.2171235829591751,-9.265254020690918,3.2059261798858643
1759421669656284200,5.6032841796875,-0.07511106133460999,-9.282098770141602,3.163400411605835
1759421669666284300,5.6132841796875,0.05569237098097801,-9.294815063476562,3.1262078285217285
1759421669676284200,5.6232841796875,0.1818999946117401,-9.302638053894043,3.0980494022369385
1759421669686284300,5.6332841796875,0.3112848103046417,-9.304435729980469,3.0823426246643066
1759421669696284200,5.6432841796875,0.438223659992218,-9.298174858093262,3.0857741832733154
1759421669706284300,5.6532841796875,0.5502643585205078,-9.281866073608398,3.116755485534668
1759421669716283400,5.663283447265625,0.6540331244468689,-9.261005401611328,3.1584863662719727
1759421669726283500,5.673283447265625,0.7345930933952332,-9.235739707946777,3.214299440383911
1759421669736283400,5.683283447265625,0.796962320804596,-9.20074462890625,3.298691987991333
1759421669746283500,5.693283447265625,0.9237868785858154,-9.151627540588379,3.400655508041382
1759421669756283400,5.703283447265625,1.1583235263824463,-9.085139274597168,3.5055110454559326
1759421669766283500,5.713283447265625,1.4569493532180786,-9.000021934509277,3.612074136734009
1759421669776283400,5.723283447265625,1.7469037771224976,-8.89910888671875,3.731548547744751
1759421669786283500,5.733283447265625,1.9855302572250366,-8.781757354736328,3.886969566345215
1759421669796283400,5.743283447265625,2.165438175201416,-8.64522933959961,4.0915679931640625
1759421669806283500,5.753283447265625,2.2328577041625977,-8.53580093383789,4.280710220336914
1759421669816284200,5.7632841796875,2.2542200088500977,-8.52033805847168,4.300282001495361
1759421669826284300,5.7732841796875,2.2695248126983643,-8.558279991149902,4.216062068939209
1759421669836284400,5.783284423828125,2.331759452819824,-8.584193229675293,4.128512859344482
1759421669846284300,5.7932841796875,2.443946361541748,-8.59411334991455,4.042097568511963
1759421669856284200,5.8032841796875,2.569916009902954,-8.598724365234375,3.9531822204589844
1759421669866284300,5.8132841796875,2.693002939224243,-8.595966339111328,3.8764901161193848
1759421669876284200,5.8232841796875,2.8291964530944824,-8.58091926574707,3.812312602996826
1759421669886284300,5.8332841796875,2.9963340759277344,-8.559809684753418,3.731203079223633
1759421669896284200,5.8432841796875,3.1896884441375732,-8.545348167419434,3.6018168926239014
1759421669906284300,5.8532841796875,3.384927749633789,-8.528568267822266,3.4606359004974365
1759421669916283400,5.863283447265625,3.5689878463745117,-8.498144149780273,3.348738431930542
1759421669926283500,5.873283447265625,3.760686159133911,-8.446621894836426,3.268348455429077
1759421669936283400,5.883283447265625,3.936396598815918,-8.379324913024902,3.234471321105957
1759421669946283500,5.893283447265625,4.064273357391357,-8.306734085083008,3.2634482383728027
1759421669956283400,5.903283447265625,4.14610481262207,-8.21910285949707,3.3802988529205322
1759421669966283500,5.913283447265625,4.215184211730957,-8.108858108520508,3.5565176010131836
1759421669976283400,5.923283447265625,4.295644283294678,-7.984168529510498,3.7377312183380127
1759421669986283300,5.933283203125,4.396563529968262,-7.851656913757324,3.897679090499878
1759421669996283400,5.943283447265625,4.520321369171143,-7.715305805206299,4.026293754577637
1759421670006283300,5.953283203125,4.659240245819092,-7.578444004058838,4.126613616943359
1759421670016284200,5.9632841796875,4.793856143951416,-7.4435553550720215,4.21694803237915
1759421670026284300,5.9732841796875,4.918787956237793,-7.323291301727295,4.2831244468688965
1759421670036284200,5.9832841796875,5.019449710845947,-7.241999626159668,4.304515361785889
1759421670046284300,5.9932841796875,5.051379680633545,-7.230671405792236,4.286167621612549
1759421670056284400,6.003284423828125,5.0571112632751465,-7.251921653747559,4.243290901184082
1759421670066284300,6.0132841796875,5.072834491729736,-7.285513877868652,4.166290760040283
1759421670076284400,6.023284423828125,5.138390064239502,-7.31086540222168,4.0395941734313965
1759421670086284300,6.0332841796875,5.2381672859191895,-7.318368911743164,3.8952977657318115
1759421670096284200,6.0432841796875,5.3296098709106445,-7.323055267333984,3.7600884437561035
1759421670106284300,6.0532841796875,5.3930158615112305,-7.336870193481445,3.6408615112304688
1759421670116283400,6.063283447265625,5.413727283477783,-7.381228446960449,3.5184144973754883
1759421670126283300,6.073283203125,5.3880228996276855,-7.4677910804748535,3.3721697330474854
1759421670136283400,6.083283447265625,5.34634256362915,-7.565802097320557,3.216442108154297
1759421670146283300,6.093283203125,5.319582462310791,-7.638293266296387,3.0868782997131348
1759421670156283400,6.103283447265625,5.328144073486328,-7.666534423828125,3.000901222229004
1759421670166283300,6.113283203125,5.3716254234313965,-7.644402980804443,2.979771614074707
1759421670176283400,6.123283447265625,5.369839668273926,-7.640263557434082,2.9935662746429443
1759421670186283300,6.133283203125,5.260626792907715,-7.693469047546387,3.050661087036133
1759421670196283400,6.143283447265625,5.060598850250244,-7.797612190246582,3.123744010925293
1759421670206283300,6.153283203125,4.807114124298096,-7.9322404861450195,3.184561252593994
1759421670216284200,6.1632841796875,4.501236438751221,-8.082697868347168,3.252561569213867
1759421670226284300,6.1732841796875,4.133657932281494,-8.212666511535645,3.411020517349243
1759421670236284200,6.1832841796875,3.7090988159179688,-8.30268669128418,3.6712567806243896
1759421670246284300,6.1932841796875,3.236119508743286,-8.353655815124512,3.9892578125
1759421670256284200,6.2032841796875,2.7224695682525635,-8.404783248901367,4.25652551651001
1759421670266284300,6.2132841796875,2.236774444580078,-8.483776092529297,4.38092565536499
1759421670276284200,6.2232841796875,1.9565224647521973,-8.607161521911621,4.273049354553223
1759421670286284300,6.2332841796875,1.7892827987670898,-8.731490135192871,4.090208530426025
1759421670296284200,6.2432841796875,1.7045964002609253,-8.836276054382324,3.8967459201812744
1759421670306284300,6.2532841796875,1.673813819885254,-8.91783618927002,3.720304250717163
1759421670316283400,6.263283447265625,1.6538102626800537,-8.979389190673828,3.578493595123291
1759421670326283300,6.273283203125,1.620043158531189,-9.025827407836914,3.475635051727295
1759421670336283400,6.283283447265625,1.5225529670715332,-9.06091594696045,3.428093433380127
1759421670346283300,6.293283203125,1.3168448209762573,-9.09326457977295,3.427614688873291
1759421670356283400,6.303283447265625,1.041467547416687,-9.116780281066895,3.4597220420837402
1759421670366283300,6.313283203125,0.7367417812347412,-9.126911163330078,3.5109543800354004
1759421670376283400,6.323283447265625,0.4179774224758148,-9.123658180236816,3.5712881088256836
1759421670386283300,6.333283203125,0.09706132113933563,-9.108596801757812,3.632375955581665
1759421670396283400,6.343283447265625,-0.20320597290992737,-9.084617614746094,3.687626600265503
1759421670406283300,6.353283203125,-0.5104204416275024,-9.057195663452148,3.7251391410827637
1759421670416284200,6.3632841796875,-0.8125948905944824,-9.033787727355957,3.7283360958099365
1759421670426284300,6.3732841796875,-1.050613284111023,-9.02071762084961,3.7004055976867676
1759421670436284200,6.3832841796875,-1.180031657218933,-9.021446228027344,3.659374237060547
1759421670446284300,6.3932841796875,-1.1868895292282104,-9.037312507629395,3.617805242538452
1759421670456284200,6.4032841796875,-1.0743290185928345,-9.067085266113281,3.5782411098480225
1759421670466284300,6.4132841796875,-0.8754698634147644,-9.104944229125977,3.536025285720825
1759421670476284200,6.4232841796875,-0.6415899395942688,-9.142727851867676,3.48842716217041
1759421670486284300,6.4332841796875,-0.41064009070396423,-9.17483901977539,3.438607692718506
1759421670496284200,6.4432841796875,-0.19969810545444489,-9.19826889038086,3.394432306289673
1759421670506284300,6.4532841796875,-0.03665098547935486,-9.210247039794922,3.367513656616211
1759421670516283400,6.463283447265625,0.08950930088758469,-9.217704772949219,3.3460240364074707
1759421670526283500,6.473283447265625,0.19288784265518188,-9.221710205078125,3.33062744140625
1759421670536283400,6.483283447265625,0.2835141718387604,-9.220929145812988,3.326301336288452
1759421670546283500,6.493283447265625,0.37433046102523804,-9.214146614074707,3.3360540866851807
1759421670556283400,6.503283447265625,0.45354750752449036,-9.203447341918945,3.3557159900665283
1759421670566283500,6.513283447265625,0.49887001514434814,-9.186802864074707,3.394672393798828
1759421670576283400,6.523283447265625,0.4873470366001129,-9.160236358642578,3.4673614501953125
1759421670586283500,6.533283447265625,0.4796978235244751,-9.120002746582031,3.5729000568389893
1759421670596283400,6.543283447265625,0.5944147706031799,-9.060433387756348,3.7047576904296875
1759421670606283500,6.553283447265625,0.827021598815918,-8.978128433227539,3.8573906421661377
1759421670616284400,6.563284423828125,1.0704305171966553,-8.869909286499023,4.043405532836914
1759421670626284300,6.5732841796875,1.2919954061508179,-8.722875595092773,4.290947437286377
1759421670636284400,6.583284423828125,1.5372525453567505,-8.545829772949219,4.558045387268066
1759421670646284300,6.5932841796875,1.669340968132019,-8.413381576538086,4.753786087036133
1759421670656284400,6.603284423828125,1.6663708686828613,-8.385505676269531,4.803805351257324
1759421670666284300,6.6132841796875,1.573095679283142,-8.42831802368164,4.760146617889404
1759421670676284400,6.623284423828125,1.55911386013031,-8.449816703796387,4.72650146484375
1759421670686284300,6.6332841796875,1.667025089263916,-8.445823669433594,4.696733474731445
1759421670696284400,6.643284423828125,1.8479756116867065,-8.421321868896484,4.672954082489014
1759421670706284300,6.6532841796875,2.054212808609009,-8.39929485321045,4.626258850097656
1759421670716283400,6.663283447265625,2.262577533721924,-8.387260437011719,4.550235748291016
1759421670726283500,6.673283447265625,2.4653806686401367,-8.389738082885742,4.43894624710083
1759421670736283400,6.683283447265625,2.6796700954437256,-8.429651260375977,4.234453201293945
1759421670746283500,6.693283447265625,2.903836488723755,-8.48586654663086,3.965848922729492
1759421670756283400,6.703283447265625,3.0960681438446045,-8.547187805175781,3.6783342361450195
1759421670766283500,6.713283447265625,3.2197070121765137,-8.604021072387695,3.4313926696777344
1759421670776283400,6.723283447265625,3.2796053886413574,-8.632704734802246,3.300100564956665
1759421670786283500,6.733283447265625,3.3076837062835693,-8.619339942932129,3.307004451751709
1759421670796283600,6.74328369140625,3.3663134574890137,-8.567134857177734,3.3826534748077393
1759421670806283500,6.753283447265625,3.4734482765197754,-8.476434707641602,3.5007753372192383
1759421670816284200,6.7632841796875,3.650296926498413,-8.335297584533691,3.6562771797180176
1759421670826284300,6.7732841796875,3.8819029331207275,-8.155985832214355,3.8184866905212402
1759421670836284400,6.783284423828125,4.134289264678955,-7.966765403747559,3.9507644176483154
1759421670846284300,6.7932841796875,4.354556560516357,-7.808886528015137,4.028568744659424
1759421670856284200,6.8032841796875,4.510480880737305,-7.685184001922607,4.094343662261963
1759421670866284300,6.8132841796875,4.587134838104248,-7.601956367492676,4.163973331451416
1759421670876284200,6.8232841796875,4.596041202545166,-7.559342384338379,4.231192588806152
1759421670886284300,6.8332841796875,4.562853813171387,-7.547172546386719,4.288439750671387
1759421670896284200,6.8432841796875,4.526877403259277,-7.547453880310059,4.325916767120361
1759421670906284300,6.8532841796875,4.551065444946289,-7.533313751220703,4.325191974639893
1759421670936283400,6.883283447265625,5.007879734039307,-7.3588995933532715,4.115583419799805
1759421670956283400,6.903283447265625,5.2779436111450195,-7.274702548980713,3.9233062267303467
1759421670966283500,6.913283447265625,5.313480377197266,-7.295479774475098,3.8357834815979004
1759421670976283400,6.923283447265625,5.311520576477051,-7.341838359832764,3.7490453720092773
1759421670986283300,6.933283203125,5.290113925933838,-7.400365352630615,3.6632752418518066
1759421670996283400,6.943283447265625,5.26036262512207,-7.462015151977539,3.5801093578338623
1759421671006283300,6.953283203125,5.228321075439453,-7.5219597816467285,3.5007193088531494
1759421671016284200,6.9632841796875,5.192680358886719,-7.577630043029785,3.433035135269165
1759421671026284300,6.9732841796875,5.145098686218262,-7.6312055587768555,3.385709047317505
1759421671036284200,6.9832841796875,5.074581623077393,-7.692331790924072,3.3536465167999268
1759421671046284300,6.9932841796875,4.957512378692627,-7.7729997634887695,3.3427140712738037
1759421671066284300,7.0132841796875,4.576275825500488,-7.97993803024292,3.398298501968384
1759421671076284400,7.023284423828125,4.26603364944458,-8.099377632141113,3.5172648429870605
1759421671086284300,7.0332841796875,3.875805616378784,-8.198471069335938,3.732741117477417
1759421671096284200,7.0432841796875,3.4114718437194824,-8.269217491149902,4.018966197967529
1759421671106284300,7.0532841796875,2.865858316421509,-8.326872825622559,4.315097332000732
1759421671116283600,7.06328369140625,2.2785234451293945,-8.380719184875488,4.55433988571167
1759421671126283500,7.073283447265625,1.7455209493637085,-8.440112113952637,4.678440570831299
1759421671136283400,7.083283447265625,1.390723705291748,-8.520702362060547,4.6511921882629395
1759421671146283500,7.093283447265625,1.2327730655670166,-8.614163398742676,4.521764278411865
1759421671156283400,7.103283447265625,1.1766916513442993,-8.69553279876709,4.3787150382995605
1759421671166283500,7.113283447265625,1.1674925088882446,-8.766128540039062,4.238142490386963
1759421671176283400,7.123283447265625,1.170451045036316,-8.847100257873535,4.065572738647461
1759421671186283500,7.133283447265625,1.112046480178833,-8.93996524810791,3.8743364810943604
1759421671196283400,7.143283447265625,0.9424693584442139,-9.025925636291504,3.7167892456054688
1759421671206283500,7.153283447265625,0.7345302104949951,-9.092360496520996,3.599935293197632
1759421671216284400,7.163284423828125,0.5125796794891357,-9.138822555541992,3.5198349952697754
1759421671226284300,7.1732841796875,0.29382893443107605,-9.155570983886719,3.501338481903076
1759421671236284400,7.183284423828125,0.09775441884994507,-9.141819953918457,3.5479085445404053
1759421671246284300,7.1932841796875,-0.10398440062999725,-9.108839988708496,3.6315484046936035
1759421671256284400,7.203284423828125,-0.32554420828819275,-9.064563751220703,3.7279765605926514
1759421671266284300,7.2132841796875,-0.5959716439247131,-9.0111722946167,3.8227884769439697
1759421671276284400,7.223284423828125,-0.9331067800521851,-8.953824996948242,3.8895089626312256
1759421671286284300,7.2332841796875,-1.2860747575759888,-8.899843215942383,3.912642240524292
1759421671296284400,7.243284423828125,-1.558963418006897,-8.845261573791504,3.9371352195739746
1759421671306284300,7.2532841796875,-1.6203502416610718,-8.831650733947754,3.942887306213379
1759421671316283600,7.26328369140625,-1.5429928302764893,-8.848804473876953,3.935455799102783
1759421671326283500,7.273283447265625,-1.3858011960983276,-8.884306907653809,3.9139063358306885
1759421671346283500,7.293283447265625,-0.9883841276168823,-8.976701736450195,3.822584390640259
1759421671356283600,7.30328369140625,-0.77371746301651,-9.021544456481934,3.7660410404205322
1759421671366283500,7.313283447265625,-0.5707061290740967,-9.05817699432373,3.71402907371521
1759421671376283600,7.32328369140625,-0.39077144861221313,-9.083564758300781,3.6750802993774414
1759421671386283500,7.333283447265625,-0.23613369464874268,-9.096643447875977,3.6558451652526855
1759421671396283600,7.34328369140625,-0.09321867674589157,-9.100217819213867,3.6533994674682617
1759421671406283500,7.353283447265625,0.05306596681475639,-9.095569610595703,3.665785312652588
1759421671416284200,7.3632841796875,0.2061484456062317,-9.082221984863281,3.693349838256836
1759421671426284300,7.3732841796875,0.3347318768501282,-9.061176300048828,3.735383987426758
1759421671436284200,7.3832841796875,0.37734657526016235,-9.038991928100586,3.7847418785095215
1759421671446284300,7.3932841796875,0.4160816967487335,-9.006092071533203,3.8584060668945312
1759421671456284200,7.4032841796875,0.6078693270683289,-8.953396797180176,3.9544053077697754
1759421671466284300,7.4132841796875,0.9130818247795105,-8.878824234008789,4.062373638153076
1759421671476284200,7.4232841796875,1.2246161699295044,-8.787860870361328,4.1765899658203125
1759421671486284300,7.4332841796875,1.4931578636169434,-8.664666175842285,4.343292236328125
1759421671496284200,7.4432841796875,1.7023581266403198,-8.492291450500488,4.5992608070373535
1759421671506284300,7.4532841796875,1.8147149085998535,-8.356290817260742,4.8009748458862305
1759421671516283400,7.463283447265625,1.824445128440857,-8.300518989562988,4.8931355476379395
1759421671526283500,7.473283447265625,1.7419408559799194,-8.350341796875,4.838130950927734
1759421671536283400,7.483283447265625,1.8116945028305054,-8.38231372833252,4.756566047668457
1759421671546283500,7.493283447265625,2.0089855194091797,-8.386590003967285,4.6689581871032715
1759421671556283400,7.503283447265625,2.2544522285461426,-8.383065223693848,4.562012195587158
1759421671566283500,7.513283447265625,2.4928064346313477,-8.372658729553223,4.455850601196289
1759421671576283400,7.523283447265625,2.7306408882141113,-8.35466480255127,4.3489556312561035
1759421671586283500,7.533283447265625,2.990838050842285,-8.34163761138916,4.200256824493408
1759421671596283400,7.543283447265625,3.272433042526245,-8.33788013458252,3.992643117904663
1759421671606283500,7.553283447265625,3.539214611053467,-8.335537910461426,3.7633864879608154
1759421671616284200,7.5632841796875,3.7690203189849854,-8.335343360900879,3.533665657043457
1759421671626284300,7.5732841796875,3.965207815170288,-8.336508750915527,3.309077262878418
1759421671636284200,7.5832841796875,4.1451520919799805,-8.317625999450684,3.1312904357910156
1759421671646284300,7.5932841796875,4.281902313232422,-8.254416465759277,3.114513397216797
1759421671656284200,7.6032841796875,4.402632236480713,-8.16163158416748,3.1897990703582764
1759421671666284300,7.6132841796875,4.506516933441162,-8.049060821533203,3.327779531478882
1759421671676284200,7.6232841796875,4.603161811828613,-7.924592971801758,3.490269660949707
1759421671686284300,7.6332841796875,4.700373649597168,-7.800628185272217,3.636892080307007
1759421671696284200,7.6432841796875,4.791016578674316,-7.693920135498047,3.7443203926086426
1759421671706284300,7.6532841796875,4.8450212478637695,-7.618720531463623,3.827681541442871
1759421671716283400,7.663283447265625,4.838827610015869,-7.57504940032959,3.921052932739258
1759421671726283500,7.673283447265625,4.791703701019287,-7.552436828613281,4.021259307861328
1759421671736283400,7.683283447265625,4.732846736907959,-7.5388665199279785,4.115328311920166
1759421671746283500,7.693283447265625,4.700468063354492,-7.517457962036133,4.190909385681152
1759421671756283400,7.703283447265625,4.7271037101745605,-7.474967956542969,4.236684799194336
1759421671766283500,7.713283447265625,4.853029727935791,-7.394158840179443,4.2361297607421875
1759421671776283400,7.723283447265625,4.993866443634033,-7.305202484130859,4.226761341094971
1759421671786283500,7.733283447265625,5.117191314697266,-7.227065086364746,4.213568687438965
1759421671796283400,7.743283447265625,5.1937994956970215,-7.184243679046631,4.19300651550293
1759421671806283500,7.753283447265625,5.208416938781738,-7.191207408905029,4.162842273712158
1759421671816284400,7.763284423828125,5.179256916046143,-7.240386486053467,4.113670349121094
1759421671826284300,7.7732841796875,5.139407157897949,-7.308352947235107,4.042850971221924
1759421671836284400,7.783284423828125,5.111788749694824,-7.3733625411987305,3.958963394165039
1759421671846284300,7.7932841796875,5.110715389251709,-7.420164585113525,3.871934175491333
1759421671856284200,7.8032841796875,5.137953758239746,-7.445857524871826,3.78562331199646
1759421671866284300,7.8132841796875,5.186140060424805,-7.453519344329834,3.7039542198181152
1759421671876284200,7.8232841796875,5.225979804992676,-7.4664177894592285,3.6210405826568604
1759421671886284300,7.8332841796875,5.213920593261719,-7.508676052093506,3.5503504276275635
1759421671896284200,7.8432841796875,5.133662223815918,-7.583051681518555,3.5089895725250244
1759421671906284300,7.8532841796875,4.977483749389648,-7.686618328094482,3.508679151535034
1759421671916283600,7.86328369140625,4.743533611297607,-7.816236972808838,3.546189785003662
1759421671926283500,7.873283447265625,4.442079067230225,-7.966905117034912,3.6009137630462646
1759421671936283600,7.88328369140625,4.074969291687012,-8.136448860168457,3.6555421352386475
1759421671946283500,7.893283447265625,3.6392414569854736,-8.318799018859863,3.7045724391937256
1759421671956283600,7.90328369140625,3.128882884979248,-8.495500564575195,3.7691707611083984
1759421671966283500,7.913283447265625,2.5029046535491943,-8.631928443908691,3.9237020015716553
1759421671976283600,7.92328369140625,1.76581609249115,-8.691873550415039,4.183703899383545
1759421671986283500,7.933283447265625,1.0784958600997925,-8.690698623657227,4.413464546203613
1759421671996283600,7.94328369140625,0.8629536628723145,-8.74101448059082,4.361209869384766
1759421672006283500,7.953283447265625,0.8743895292282104,-8.811595916748047,4.214416980743408
1759421672016284400,7.963284423828125,0.9470634460449219,-8.88221549987793,4.047145843505859
1759421672026284500,7.973284423828125,0.996650755405426,-8.95315933227539,3.875288963317871
1759421672036284400,7.983284423828125,0.9434814453125,-9.020413398742676,3.7298972606658936
1759421672046284500,7.993284423828125,0.7915250658988953,-9.080475807189941,3.6177978515625
1759421672056284400,8.003284423828125,0.5548001527786255,-9.12622356414795,3.5460257530212402
1759421672066284500,8.013284423828125,0.28159722685813904,-9.152098655700684,3.51137375831604
1759421672076284400,8.023284423828125,0.007838438265025616,-9.151777267456055,3.523486375808716
1759421672086284500,8.033284423828125,-0.2458396852016449,-9.133272171020508,3.5627386569976807
1759421672096284400,8.043284423828124,-0.49442631006240845,-9.103866577148438,3.611833095550537
1759421672106284500,8.053284423828124,-0.7596969604492188,-9.0552396774292,3.687190532684326
1759421672116283600,8.06328369140625,-1.0662544965744019,-8.99244499206543,3.7641794681549072
1759421672126283500,8.073283447265625,-1.4193077087402344,-8.923731803894043,3.810861825942993
1759421672136283600,8.08328369140625,-1.754584550857544,-8.864275932312012,3.810020685195923
1759421672146283500,8.093283447265625,-1.991674780845642,-8.81462574005127,3.8086225986480713
1759421672156283600,8.10328369140625,-2.101213216781616,-8.793338775634766,3.7989797592163086
1759421672166283500,8.113283447265625,-2.0680949687957764,-8.808290481567383,3.782456398010254
1759421672176283600,8.12328369140625,-1.944112777709961,-8.846981048583984,3.7578375339508057
1759421672186283500,8.133283447265624,-1.776175618171692,-8.896478652954102,3.723961591720581
1759421672196283600,8.14328369140625,-1.5851529836654663,-8.948907852172852,3.6843411922454834
1759421672206283500,8.153283447265625,-1.3937941789627075,-8.995274543762207,3.6486027240753174
1759421672216284200,8.1632841796875,-1.2073606252670288,-9.029729843139648,3.6299500465393066
1759421672226284300,8.1732841796875,-1.0466405153274536,-9.049466133117676,3.630652666091919
1759421672236284200,8.1832841796875,-0.8955144286155701,-9.061905860900879,3.640028238296509
1759421672246284300,8.1932841796875,-0.7347258925437927,-9.065248489379883,3.667604684829712
1759421672256284200,8.2032841796875,-0.5665513873100281,-9.057684898376465,3.7158167362213135
1759421672266284300,8.2132841796875,-0.40004679560661316,-9.04361629486084,3.771338701248169
1759421672276284200,8.2232841796875,-0.2521493136882782,-9.025228500366211,3.827772378921509
1759421672286284300,8.2332841796875,-0.15780454874038696,-9.002437591552734,3.8860669136047363
1759421672296284200,8.2432841796875,-0.16234803199768066,-8.963702201843262,3.974374532699585
1759421672306284300,8.2532841796875,-0.13021014630794525,-8.908970832824707,4.096762657165527
1759421672316283400,8.263283447265625,0.09154606610536575,-8.838994979858398,4.246633529663086
1759421672326283500,8.273283447265625,0.4081222414970398,-8.749890327453613,4.409399032592773
1759421672336283400,8.283283447265624,0.6552560925483704,-8.635390281677246,4.601171493530273
1759421672346283300,8.293283203125,0.8566507697105408,-8.482552528381348,4.845893859863281
1759421672356283400,8.303283447265626,1.0148801803588867,-8.35291862487793,5.036759853363037
1759421672366283300,8.313283203125,1.1764575242996216,-8.304461479187012,5.081530570983887
1759421672376283400,8.323283447265625,1.2355059385299683,-8.365067481994629,4.966813087463379
1759421672386283300,8.333283203125,1.2584633827209473,-8.445185661315918,4.8234100341796875
1759421672396283400,8.343283447265625,1.3637959957122803,-8.496649742126465,4.702902317047119
1759421672406283300,8.353283203125,1.5179954767227173,-8.533937454223633,4.586682319641113
1759421672416283400,8.363283447265625,1.658060073852539,-8.571332931518555,4.466887474060059
1759421672426283300,8.373283203125,1.7892521619796753,-8.605380058288574,4.3492751121521
1759421672436283400,8.383283447265624,1.948806881904602,-8.632688522338867,4.224809646606445
1759421672446283300,8.393283203125,2.154648780822754,-8.655913352966309,4.074636459350586
1759421672456283400,8.403283447265625,2.3943769931793213,-8.6847505569458,3.874565362930298
1759421672466283300,8.413283203125,2.639840602874756,-8.703184127807617,3.668227434158325
1759421672476283400,8.423283447265625,2.897127151489258,-8.701951026916504,3.4717092514038086
1759421672486283500,8.433283447265625,3.1189310550689697,-8.6689453125,3.360339879989624
1759421672496283400,8.443283447265625,3.307319402694702,-8.602594375610352,3.3506882190704346
1759421672506283500,8.453283447265624,3.458780288696289,-8.511543273925781,3.4293715953826904
1759421672516282600,8.46328271484375,3.587052822113037,-8.407536506652832,3.551968812942505
1759421672526282500,8.473282470703126,3.7296202182769775,-8.29588794708252,3.665849208831787
1759421672536282600,8.48328271484375,3.892413854598999,-8.189106941223145,3.736021041870117
1759421672546282500,8.493282470703125,4.028802871704102,-8.09959602355957,3.7862253189086914
1759421672556282600,8.50328271484375,4.1095757484436035,-8.048110961914062,3.80912709236145
1759421672566282500,8.513282470703125,4.09489107131958,-8.052688598632812,3.8152809143066406
1759421672576282600,8.52328271484375,4.047998428344727,-8.076356887817383,3.8152894973754883
1759421672586282500,8.533282470703124,4.070716381072998,-8.084452629089355,3.773721933364868
1759421672596282600,8.54328271484375,4.198375225067139,-8.059664726257324,3.685861349105835
1759421672606282500,8.553282470703126,4.378372669219971,-8.006632804870605,3.5908010005950928
1759421672616283400,8.563283447265626,4.555263996124268,-7.943221092224121,3.510695695877075
1759421672626283500,8.573283447265625,4.7088446617126465,-7.877293109893799,3.456186532974243
1759421672636283400,8.583283447265625,4.812378406524658,-7.831502914428711,3.417421817779541
1759421672646283500,8.593283447265625,4.855251789093018,-7.818798065185547,3.3857274055480957
1759421672656283400,8.603283447265625,4.840985298156738,-7.842421531677246,3.3513505458831787
1759421672666283500,8.613283447265625,4.8067708015441895,-7.881434917449951,3.308797836303711
1759421672676283400,8.623283447265624,4.772959232330322,-7.920440196990967,3.264312505722046
1759421672686283500,8.633283447265624,4.736985206604004,-7.95790433883667,3.225376844406128
1759421672696283400,8.643283447265626,4.698085308074951,-7.995566368103027,3.188913345336914
1759421672706283500,8.653283447265625,4.648233413696289,-8.037304878234863,3.156888008117676
1759421672716283400,8.663283447265625,4.578777313232422,-8.080947875976562,3.1469457149505615
1759421672726283500,8.673283447265625,4.4855241775512695,-8.127619743347168,3.1610374450683594
1759421672736283400,8.683283447265625,4.327302932739258,-8.204429626464844,3.183081865310669
1759421672746283500,8.693283447265625,4.055063724517822,-8.311202049255371,3.2635347843170166
1759421672756283400,8.703283447265624,3.7528676986694336,-8.414446830749512,3.359053373336792
1759421672766283500,8.713283447265624,3.456043243408203,-8.515472412109375,3.4223732948303223
1759421672776283400,8.723283447265626,3.1513400077819824,-8.612293243408203,3.4738504886627197
1759421672786283300,8.733283203125,2.8055918216705322,-8.687165260314941,3.5821564197540283
1759421672796283400,8.743283447265625,2.325049638748169,-8.703598976135254,3.8744964599609375
1759421672806283500,8.753283447265625,1.7353543043136597,-8.671488761901855,4.23838996887207
1759421672816284200,8.7632841796875,1.125002145767212,-8.639041900634766,4.50238561630249
1759421672826284300,8.7732841796875,0.694268524646759,-8.6581392288208,4.552464485168457
1759421672836284200,8.7832841796875,0.5465408563613892,-8.727838516235352,4.4380388259887695
1759421672846284300,8.7932841796875,0.496576189994812,-8.793818473815918,4.3118672370910645
1759421672856284200,8.8032841796875,0.3435562551021576,-8.856884002685547,4.19614315032959
1759421672866284300,8.8132841796875,0.10858079046010971,-8.918404579162598,4.076824188232422
1759421672876284200,8.8232841796875,-0.149302676320076,-8.946155548095703,4.014221668243408
1759421672886284300,8.8332841796875,-0.4397495687007904,-8.931439399719238,4.0256667137146
1759421672896284200,8.8432841796875,-0.74970543384552,-8.895950317382812,4.058343410491943
1759421672906284300,8.8532841796875,-1.080384373664856,-8.844647407531738,4.095727443695068
1759421672916283400,8.863283447265625,-1.4129843711853027,-8.77230453491211,4.149719715118408
1759421672926283300,8.873283203125,-1.7471777200698853,-8.685563087463379,4.204570770263672
1759421672936283400,8.883283447265624,-2.0883564949035645,-8.585524559020996,4.254110813140869
1759421672946283300,8.893283203125,-2.430023193359375,-8.471636772155762,4.300734519958496
1759421672956283400,8.903283447265625,-2.7551469802856445,-8.355694770812988,4.331432819366455
1759421672966283300,8.913283203125,-3.000824451446533,-8.263139724731445,4.345724582672119
1759421672976283400,8.923283447265625,-3.1012277603149414,-8.2249116897583,4.3477559089660645
1759421672986283300,8.933283203125,-3.0440876483917236,-8.258819580078125,4.323832988739014
1759421672996283400,8.943283447265625,-2.9299633502960205,-8.323111534118652,4.279109477996826
1759421673006283300,8.953283203125,-2.822535753250122,-8.386996269226074,4.22629976272583
1759421673016284200,8.9632841796875,-2.7111165523529053,-8.452885627746582,4.167545318603516
1759421673026284300,8.9732841796875,-2.5644028186798096,-8.517278671264648,4.129107475280762
1759421673036284200,8.9832841796875,-2.3932361602783203,-8.573837280273438,4.114832878112793
1759421673046284300,8.9932841796875,-2.212064743041992,-8.620594024658203,4.118485927581787
1759421673056284200,9.0032841796875,-2.0170161724090576,-8.659013748168945,4.137993812561035
1759421673066284300,9.0132841796875,-1.7981319427490234,-8.691536903381348,4.170627593994141
1759421673076284200,9.0232841796875,-1.5583914518356323,-8.715975761413574,4.215806484222412
1759421673086284300,9.0332841796875,-1.29530930519104,-8.731778144836426,4.271814346313477
1759421673096284200,9.0432841796875,-1.0193850994110107,-8.733729362487793,4.342005252838135
1759421673106284300,9.0532841796875,-0.7746262550354004,-8.704941749572754,4.449049472808838
1759421673116283600,9.06328369140625,-0.602425217628479,-8.62691593170166,4.624228000640869
1759421673126283500,9.073283447265625,-0.4218447804450989,-8.532034873962402,4.816267967224121
1759421673136283600,9.08328369140625,0.00653875432908535,-8.452064514160156,4.973176002502441
1759421673146283500,9.093283447265625,0.3981201946735382,-8.315425872802734,5.183168411254883
1759421673156283600,9.10328369140625,0.6840496063232422,-8.126822471618652,5.445817470550537
1759421673166283500,9.113283447265625,0.7148135900497437,-7.97823429107666,5.657466888427734
1759421673176283600,9.12328369140625,0.6493602991104126,-7.961783409118652,5.688458442687988
1759421673186283500,9.133283447265624,0.7038789391517639,-8.043201446533203,5.56611967086792
1759421673196283600,9.14328369140625,0.8246204257011414,-8.14294719696045,5.4020795822143555
1759421673206283500,9.153283447265625,0.9596455693244934,-8.246417045593262,5.219751358032227
1759421673216284400,9.163284423828125,1.0955626964569092,-8.34397029876709,5.034674644470215
1759421673226284500,9.173284423828125,1.246012806892395,-8.423726081848145,4.863992691040039
1759421673236284400,9.183284423828125,1.443650484085083,-8.492873191833496,4.685836315155029
1759421673246284500,9.193284423828125,1.7297189235687256,-8.55930233001709,4.46278190612793
1759421673256284400,9.203284423828125,2.0525944232940674,-8.633602142333984,4.173483848571777
1759421673266284500,9.213284423828124,2.344261646270752,-8.676981925964355,3.92232346534729
1759421673276284400,9.223284423828124,2.596386432647705,-8.667633056640625,3.7816574573516846
1759421673286284500,9.233284423828126,2.818873167037964,-8.611618995666504,3.7502048015594482
1759421673296284400,9.243284423828126,3.045435667037964,-8.519620895385742,3.7830581665039062
1759421673306284500,9.253284423828125,3.271158218383789,-8.396952629089355,3.8679349422454834
1759421673316283600,9.26328369140625,3.505831241607666,-8.249588012695312,3.977905035018921
1759421673326283800,9.27328369140625,3.7722971439361572,-8.096343040466309,4.048352241516113
1759421673336283600,9.28328369140625,4.052271366119385,-7.960712432861328,4.0467753410339355
1759421673346283800,9.29328369140625,4.224381446838379,-7.868495464324951,4.051122665405273
1759421673356283600,9.30328369140625,4.234875202178955,-7.8448076248168945,4.085936069488525
1759421673366283800,9.31328369140625,4.19215202331543,-7.867379665374756,4.08660888671875
1759421673376283600,9.32328369140625,4.257411003112793,-7.857285022735596,4.038283348083496
1759421673386283800,9.33328369140625,4.411573886871338,-7.808138370513916,3.9675066471099854
1759421673396283600,9.34328369140625,4.5923309326171875,-7.738029479980469,3.899181604385376
1759421673406283800,9.35328369140625,4.737616539001465,-7.682502746582031,3.834635019302368
1759421673416284400,9.363284423828125,4.831401824951172,-7.654176235198975,3.773772716522217
1759421673426284300,9.3732841796875,4.878132343292236,-7.6606879234313965,3.699714422225952
1759421673436284400,9.383284423828124,4.891756534576416,-7.693288326263428,3.6130666732788086
1759421673446284300,9.3932841796875,4.879561901092529,-7.744899749755859,3.5180304050445557
1759421673456284400,9.403284423828126,4.837761402130127,-7.817540168762207,3.41355037689209
1759421673466284300,9.4132841796875,4.764725208282471,-7.910079479217529,3.3012421131134033
1759421673476284400,9.423284423828125,4.655483245849609,-8.023453712463379,3.18133282661438
1759421673486284300,9.4332841796875,4.534346103668213,-8.136791229248047,3.066359758377075
1759421673496284400,9.443284423828125,4.4114837646484375,-8.236897468566895,2.9770162105560303
1759421673506284300,9.4532841796875,4.282390117645264,-8.327532768249512,2.91264271736145
1759421673516283400,9.463283447265624,4.136538028717041,-8.413029670715332,2.8775384426116943
1759421673526283500,9.473283447265626,3.9598941802978516,-8.496000289916992,2.882274627685547
1759421673536283400,9.483283447265626,3.7393791675567627,-8.578768730163574,2.9311883449554443
1759421673546283500,9.493283447265625,3.4700887203216553,-8.658127784729004,3.0274434089660645
1759421673556283400,9.503283447265625,3.173703670501709,-8.73185920715332,3.1388707160949707
1759421673566283500,9.513283447265625,2.8280093669891357,-8.795742988586426,3.2874598503112793
1759421673576283400,9.523283447265625,2.397972822189331,-8.834851264953613,3.516420602798462
1759421673586283500,9.533283447265624,1.868198037147522,-8.822636604309082,3.852415084838867
1759421673596283400,9.543283447265624,1.2666268348693848,-8.72829818725586,4.287479400634766
1759421673606283500,9.553283447265626,0.807654082775116,-8.618183135986328,4.609207630157471
1759421673616284200,9.5632841796875,0.6870198845863342,-8.598380088806152,4.665405750274658
1759421673626284300,9.5732841796875,0.7699544429779053,-8.644274711608887,4.566599369049072
1759421673636284200,9.5832841796875,0.8061732053756714,-8.700228691101074,4.452653408050537
1759421673646284300,9.5932841796875,0.7347434163093567,-8.7701416015625,4.326084613800049
1759421673656284200,9.6032841796875,0.5502461194992065,-8.836432456970215,4.217214107513428
1759421673666284300,9.6132841796875,0.2779597342014313,-8.88321590423584,4.145055770874023
1759421673676284200,9.6232841796875,-0.006745090242475271,-8.901656150817871,4.114677429199219
1759421673686284300,9.6332841796875,-0.29561522603034973,-8.891215324401855,4.126607418060303
1759421673696284200,9.6432841796875,-0.6128712296485901,-8.865924835205078,4.146051406860352
1759421673706284300,9.6532841796875,-0.8985364437103271,-8.8422212600708,4.144618988037109
1759421673716283400,9.663283447265625,-1.1475942134857178,-8.811269760131836,4.149041175842285
1759421673726283300,9.673283203125,-1.3838450908660889,-8.760904312133789,4.183481216430664
1759421673736283400,9.683283447265625,-1.6305829286575317,-8.692652702331543,4.236632347106934
1759421673746283300,9.693283203125,-1.8878201246261597,-8.61500358581543,4.288121223449707
1759421673756283400,9.703283447265624,-2.1483094692230225,-8.542997360229492,4.309514999389648
1759421673766283300,9.713283203125,-2.3619332313537598,-8.487895965576172,4.306608200073242
1759421673776283400,9.723283447265626,-2.4741461277008057,-8.46992301940918,4.278886318206787
1759421673786283300,9.733283203125,-2.4337730407714844,-8.490435600280762,4.261358737945557
1759421673796283400,9.743283447265625,-2.274162769317627,-8.541722297668457,4.247033596038818
1759421673806283300,9.753283203125,-2.0718300342559814,-8.609272003173828,4.214006423950195
1759421673816284200,9.7632841796875,-1.8671575784683228,-8.678767204284668,4.1668782234191895
1759421673826284300,9.7732841796875,-1.6853859424591064,-8.743269920349121,4.109103202819824
1759421673836284200,9.7832841796875,-1.5277622938156128,-8.798279762268066,4.052936553955078
1759421673846284300,9.7932841796875,-1.3843097686767578,-8.840319633483887,4.012785911560059
1759421673856284200,9.8032841796875,-1.2477426528930664,-8.864703178405762,4.003748893737793
1759421673866284300,9.8132841796875,-1.096379280090332,-8.873217582702637,4.029153347015381
1759421673876284200,9.8232841796875,-0.9244322180747986,-8.870637893676758,4.077641487121582
1759421673886284300,9.8332841796875,-0.751277506351471,-8.863962173461914,4.127425670623779
1759421673896284200,9.8432841796875,-0.589515745639801,-8.858396530151367,4.165488243103027
1759421673906284300,9.8532841796875,-0.44645315408706665,-8.85148811340332,4.197803974151611
1759421673916283400,9.863283447265625,-0.3607785999774933,-8.829718589782715,4.25159215927124
1759421673926283300,9.873283203125,-0.33220717310905457,-8.772703170776367,4.3702778816223145
1759421673936283400,9.883283447265624,-0.12474282085895538,-8.691884994506836,4.539337635040283
1759421673946283300,9.893283203125,0.22863048315048218,-8.600069999694824,4.707064628601074
1759421673956283400,9.903283447265625,0.51290363073349,-8.4971284866333,4.8688859939575195
1759421673966283300,9.913283203125,0.7092007398605347,-8.37348747253418,5.054896831512451
1759421673976283400,9.923283447265625,0.9511512517929077,-8.204063415527344,5.2876152992248535
1759421673986283300,9.933283203125,1.176268458366394,-8.035820960998535,5.496545791625977
1759421673996283400,9.943283447265625,1.2435741424560547,-7.999439239501953,5.534665584564209
1759421674006283300,9.953283203125,1.1636459827423096,-8.088398933410645,5.421619415283203
1759421674016284200,9.9632841796875,1.1730965375900269,-8.173026084899902,5.291088581085205
1759421674026284300,9.9732841796875,1.2965303659439087,-8.231684684753418,5.169948101043701
1759421674036284200,9.9832841796875,1.44129478931427,-8.278705596923828,5.0552849769592285
1759421674046284300,9.9932841796875,1.6035540103912354,-8.312399864196777,4.950017929077148
1759421674056284200,10.0032841796875,1.802133321762085,-8.361084938049316,4.797367572784424
1759421674066284300,10.0132841796875,2.0145933628082275,-8.431727409362793,4.584470748901367
1759421674076284200,10.0232841796875,2.1990549564361572,-8.527432441711426,4.314761638641357
1759421674086284300,10.0332841796875,2.3105099201202393,-8.639572143554688,4.0236310958862305
1759421674096284200,10.0432841796875,2.307586193084717,-8.721351623535156,3.8448867797851562
1759421674106284300,10.0532841796875,2.2987709045410156,-8.72640609741211,3.8386824131011963
1759421674116283400,10.063283447265626,2.3744208812713623,-8.67567253112793,3.9070382118225098
1759421674126283300,10.073283203125,2.5338099002838135,-8.572854995727539,4.031877517700195
1759421674136283400,10.083283447265625,2.757863998413086,-8.425788879394531,4.191715240478516
1759421674146283300,10.093283203125,3.0203604698181152,-8.265484809875488,4.3277435302734375
1759421674156283400,10.103283447265625,3.268984079360962,-8.119327545166016,4.4227142333984375
1759421674166283300,10.113283203125,3.386455774307251,-8.030256271362305,4.496338367462158
1759421674176283400,10.123283447265624,3.4098970890045166,-7.980726718902588,4.566267013549805
1759421674186283300,10.133283203125,3.369797706604004,-7.968091011047363,4.617811679840088
1759421674196283400,10.143283447265626,3.302910566329956,-7.978060722351074,4.648806571960449
1759421674206283300,10.153283203125,3.2388112545013428,-7.993136882781982,4.667978286743164
1759421674216284200,10.1632841796875,3.202057123184204,-8.001094818115234,4.679696559906006
1759421674226284300,10.1732841796875,3.2141685485839844,-7.9945292472839355,4.682607650756836
1759421674236284200,10.1832841796875,3.2739970684051514,-7.977305889129639,4.670504570007324
1759421674246284300,10.1932841796875,3.368921995162964,-7.951806545257568,4.646427631378174
1759421674256284200,10.2032841796875,3.4551217555999756,-7.94014835357666,4.602856159210205
1759421674266284300,10.2132841796875,3.492269515991211,-7.959648609161377,4.5407395362854
1759421674276284200,10.2232841796875,3.4841692447662354,-8.005630493164062,4.4655022621154785
1759421674286284300,10.2332841796875,3.4782984256744385,-8.050111770629883,4.389466285705566
1759421674296284200,10.2432841796875,3.496931552886963,-8.075357437133789,4.327849388122559
1759421674306284300,10.2532841796875,3.534383773803711,-8.082891464233398,4.283132076263428
1759421674316283400,10.263283447265625,3.562901735305786,-8.087994575500488,4.249734401702881
1759421674326283300,10.273283203125,3.540254831314087,-8.102210998535156,4.241576194763184
1759421674336283400,10.283283447265624,3.436185598373413,-8.129594802856445,4.274636745452881
1759421674346283300,10.293283203125,3.2517499923706055,-8.171537399291992,4.338449954986572
1759421674356283100,10.303283203125,3.0101375579833984,-8.217852592468262,4.424497604370117
1759421674366283300,10.313283203125,2.762869358062744,-8.266193389892578,4.4952006340026855
1759421674376283100,10.323283203125,2.5177178382873535,-8.317841529846191,4.543646335601807
1759421674386283300,10.333283203125,2.2443649768829346,-8.379024505615234,4.574371814727783
1759421674396283100,10.343283203125,1.8405097723007202,-8.457829475402832,4.609530925750732
1759421674406283300,10.353283203125,1.3210455179214478,-8.497605323791504,4.713339328765869
1759421674416284200,10.3632841796875,0.7574427723884583,-8.457477569580078,4.905863285064697
1759421674426284300,10.3732841796875,0.22856150567531586,-8.419220924377441,5.023382186889648
1759421674436284200,10.3832841796875,-0.09620265662670135,-8.444406509399414,4.98526668548584
1759421674446284300,10.3932841796875,-0.22372020781040192,-8.484528541564941,4.9124908447265625
1759421674456284200,10.4032841796875,-0.24041268229484558,-8.51526165008545,4.858244895935059
1759421674466284300,10.4132841796875,-0.20692630112171173,-8.546302795410156,4.804965019226074
1759421674476284200,10.4232841796875,-0.1376136988401413,-8.591416358947754,4.726377010345459
1759421674486284300,10.4332841796875,-0.09888619929552078,-8.640658378601074,4.636729717254639
1759421674496284200,10.4432841796875,-0.14090894162654877,-8.670496940612793,4.579597473144531
1759421674506284300,10.4532841796875,-0.2508554756641388,-8.678892135620117,4.558925151824951
1759421674516283400,10.463283447265624,-0.40646979212760925,-8.677987098693848,4.549448013305664
1759421674526283300,10.473283203125,-0.5867866277694702,-8.66514778137207,4.554225444793701
1759421674536283400,10.483283447265626,-0.77733314037323,-8.636423110961914,4.580173492431641
1759421674556283400,10.503283447265625,-1.2089979648590088,-8.53795051574707,4.670297145843506
1759421674566283300,10.513283203125,-1.4692203998565674,-8.479083061218262,4.702829837799072
1759421674576283400,10.523283447265625,-1.764310359954834,-8.425834655761719,4.697078227996826
1759421674586283300,10.533283203125,-2.0711710453033447,-8.385655403137207,4.643390655517578
1759421674606283300,10.553283203125,-2.47418212890625,-8.350987434387207,4.506603240966797
1759421674616284200,10.5632841796875,-2.513821840286255,-8.373419761657715,4.442596912384033
1759421674626284000,10.573283935546876,-2.42950177192688,-8.43449592590332,4.373438835144043
1759421674646284000,10.593283935546875,-2.139010429382324,-8.578771591186523,4.2425312995910645
1759421674656284200,10.6032841796875,-1.9713571071624756,-8.639446258544922,4.2004594802856445
1759421674666284000,10.613283935546875,-1.7990976572036743,-8.683499336242676,4.1868977546691895
1759421674676284200,10.6232841796875,-1.6193214654922485,-8.710856437683105,4.203417778015137
1759421674686284000,10.633283935546874,-1.4174343347549438,-8.723699569702148,4.24946403503418
1759421674696284200,10.6432841796875,-1.185541033744812,-8.726543426513672,4.314159870147705
1759421674706284000,10.653283935546876,-0.9410723447799683,-8.721444129943848,4.384133815765381
1759421674716283400,10.663283447265625,-0.7171052098274231,-8.709607124328613,4.44956111907959
1759421674726283300,10.673283203125,-0.5343953371047974,-8.689947128295898,4.513242244720459
1759421674736283400,10.683283447265625,-0.5313283801078796,-8.620280265808105,4.645283222198486
1759421674746283000,10.693282958984375,-0.47762569785118103,-8.53880500793457,4.7990403175354
1759421674756283100,10.703283203125,-0.16751930117607117,-8.460444450378418,4.956087112426758
1759421674766283000,10.713282958984376,0.20662936568260193,-8.361102104187012,5.120499610900879
1759421674776283100,10.723283203125,0.4888426661491394,-8.20766544342041,5.344637870788574
1759421674786283000,10.733282958984375,0.7356047630310059,-7.985157012939453,5.6450300216674805
1759421674796283100,10.743283203125,0.9139330387115479,-7.765897274017334,5.918249607086182
1759421674806283300,10.753283203125,0.9036822319030762,-7.656820297241211,6.060253620147705
1759421674816284000,10.763283935546875,0.8328630328178406,-7.694086074829102,6.0230937004089355
1759421674826284000,10.773283935546875,0.8698816895484924,-7.788883686065674,5.8946380615234375
1759421674836284000,10.783283935546875,0.9937795996665955,-7.876326560974121,5.757242202758789
1759421674846284000,10.793283935546874,1.1583449840545654,-7.940471649169922,5.637145519256592
1759421674856284000,10.803283935546874,1.3346660137176514,-7.992020606994629,5.524159908294678
1759421674866284000,10.813283935546876,1.528228998184204,-8.042106628417969,5.39991569519043
1759421674876284000,10.823283935546876,1.7746914625167847,-8.099638938903809,5.236069202423096
1759421674886284000,10.833283935546875,2.0736992359161377,-8.167656898498535,5.01591157913208
1759421674896284000,10.843283935546875,2.334620475769043,-8.255257606506348,4.750833511352539
1759421674906284000,10.853283935546875,2.5136613845825195,-8.353681564331055,4.479686260223389
1759421674916283100,10.863283203125,2.6591227054595947,-8.44744873046875,4.211857318878174
1759421674926283300,10.873283203125,2.8044207096099854,-8.51333999633789,3.9784910678863525
1759421674936283100,10.883283203125,2.904310703277588,-8.534794807434082,3.8590610027313232
1759421674946283300,10.893283203125,2.9932656288146973,-8.513352394104004,3.8384010791778564
1759421674956283100,10.903283203125,3.1102564334869385,-8.450142860412598,3.884770631790161
1759421674966283300,10.913283203125,3.3193461894989014,-8.336411476135254,3.9568099975585938
1759421674976283100,10.923283203125,3.559704542160034,-8.210783004760742,4.01020622253418
1759421674986283000,10.933282958984375,3.7818546295166016,-8.098382949829102,4.035346508026123
1759421674996283100,10.943283203125,3.923842430114746,-8.013331413269043,4.0694193840026855
1759421675006283000,10.953282958984374,3.974130868911743,-7.961933135986328,4.121180534362793
1759421675016284000,10.963283935546874,3.965195894241333,-7.945406913757324,4.161491394042969
1759421675026284000,10.973283935546876,3.9403955936431885,-7.955323219299316,4.1660943031311035
1759421675046284300,10.9932841796875,4.076476097106934,-7.952001571655273,4.039587020874023
1759421675056284200,11.0032841796875,4.188870906829834,-7.946704864501953,3.933635950088501
1759421675066284300,11.0132841796875,4.286658763885498,-7.9388017654418945,3.8432037830352783
1759421675076284200,11.0232841796875,4.3487548828125,-7.948347568511963,3.7526276111602783
1759421675086284300,11.0332841796875,4.363081455230713,-8.000603675842285,3.622713088989258
1759421675096284200,11.0432841796875,4.3533549308776855,-8.076125144958496,3.463353395462036
1759421675106284300,11.0532841796875,4.3242878913879395,-8.163610458374023,3.290320634841919
1759421675116283400,11.063283447265626,4.285577297210693,-8.250649452209473,3.119422197341919
1759421675126283300,11.073283203125,4.242609977722168,-8.327552795410156,2.970238447189331
1759421675136283400,11.083283447265625,4.197999000549316,-8.388440132141113,2.86025071144104
1759421675146283300,11.093283203125,4.139710426330566,-8.438825607299805,2.7962844371795654
1759421675156283400,11.103283447265625,4.058600902557373,-8.483762741088867,2.7791552543640137
1759421675166283300,11.113283203125,3.9423446655273438,-8.533992767333984,2.7926995754241943
1759421675176283400,11.123283447265624,3.775740146636963,-8.599560737609863,2.821620464324951
1759421675186283300,11.133283203125,3.547369956970215,-8.677929878234863,2.8774468898773193
1759421675196283400,11.143283447265626,3.2873446941375732,-8.76120662689209,2.933389186859131
1759421675206283300,11.153283203125,3.0092036724090576,-8.837769508361816,3.0014538764953613
1759421675216284200,11.1632841796875,2.6673526763916016,-8.889337539672852,3.1678318977355957
1759421675226284300,11.1732841796875,2.223292589187622,-8.906881332397461,3.448869228363037
1759421675236284200,11.1832841796875,1.6586726903915405,-8.894915580749512,3.781432867050171
1759421675246284300,11.1932841796875,0.9898661971092224,-8.844605445861816,4.118628978729248
1759421675256284200,11.2032841796875,0.3559364378452301,-8.787673950195312,4.338215351104736
1759421675266284300,11.2132841796875,0.008863105438649654,-8.79098129272461,4.346117973327637
1759421675276284200,11.2232841796875,-0.03628390282392502,-8.86736011505127,4.187910556793213
1759421675286284300,11.2332841796875,-0.05671732872724533,-8.948766708374023,4.010796546936035
1759421675296284200,11.2432841796875,-0.17179828882217407,-9.01785659790039,3.849520683288574
1759421675306284300,11.2532841796875,-0.3393697738647461,-9.068390846252441,3.717433214187622
1759421675316283400,11.263283447265625,-0.505710244178772,-9.091047286987305,3.6424388885498047
1759421675326283500,11.273283447265625,-0.682534396648407,-9.08165454864502,3.636993646621704
1759421675336283400,11.283283447265624,-0.8800209760665894,-9.043928146362305,3.688234329223633
1759421675346283300,11.293283203125,-1.1181504726409912,-8.998276710510254,3.7350738048553467
1759421675356283400,11.303283447265626,-1.3736622333526611,-8.956462860107422,3.7502994537353516
1759421675366283300,11.313283203125,-1.6143769025802612,-8.912549018859863,3.7590293884277344
1759421675376283400,11.323283447265625,-1.8464794158935547,-8.86090087890625,3.774209976196289
1759421675386283300,11.333283203125,-2.0986106395721436,-8.797093391418457,3.7916979789733887
1759421675396283400,11.343283447265625,-2.3784940242767334,-8.719767570495605,3.8050661087036133
1759421675406283300,11.353283203125,-2.682511568069458,-8.632018089294434,3.8029496669769287
1759421675416284200,11.3632841796875,-2.9926226139068604,-8.54323959350586,3.7718899250030518
1759421675426284300,11.3732841796875,-3.1903793811798096,-8.488533020019531,3.733116626739502
1759421675436284200,11.3832841796875,-3.2277956008911133,-8.485915184020996,3.7068049907684326
1759421675446284300,11.3932841796875,-3.1294074058532715,-8.53230094909668,3.6846489906311035
1759421675456284200,11.4032841796875,-2.9658851623535156,-8.60545825958252,3.6496243476867676
1759421675466284300,11.4132841796875,-2.78139066696167,-8.688230514526367,3.598442792892456
1759421675476284200,11.4232841796875,-2.586724281311035,-8.76855754852295,3.5484161376953125
1759421675486284300,11.4332841796875,-2.3882126808166504,-8.840965270996094,3.5076656341552734
1759421675496284200,11.4432841796875,-2.1987743377685547,-8.901381492614746,3.478649377822876
1759421675506284300,11.4532841796875,-2.0170555114746094,-8.94593620300293,3.474412441253662
1759421675516283400,11.463283447265624,-1.8236037492752075,-8.972123146057129,3.5135931968688965
1759421675526283300,11.473283203125,-1.5939985513687134,-8.982258796691895,3.5983479022979736
1759421675536283400,11.483283447265626,-1.3029980659484863,-8.97748851776123,3.7251675128936768
1759421675546283500,11.493283447265625,-1.0044050216674805,-8.957720756530762,3.8626668453216553
1759421675556283400,11.503283447265625,-0.8252350091934204,-8.903685569763184,4.02659273147583
1759421675566283500,11.513283447265625,-0.7237345576286316,-8.81494426727295,4.235918998718262
1759421675576283400,11.523283447265625,-0.4325675368309021,-8.722405433654785,4.4612603187561035
1759421675586283500,11.533283447265624,0.001105038681998849,-8.604878425598145,4.703854560852051
1759421675596283400,11.543283447265624,0.28246933221817017,-8.420480728149414,5.0185418128967285
1759421675606283300,11.553283203125,0.4289435148239136,-8.211341857910156,5.34415340423584
1759421675616284200,11.5632841796875,0.4641486704349518,-8.031685829162598,5.607723712921143
1759421675626284300,11.5732841796875,0.28551819920539856,-7.976461887359619,5.697763919830322
1759421675636284200,11.5832841796875,0.14802169799804688,-8.014456748962402,5.649482250213623
1759421675646284300,11.5932841796875,0.19800591468811035,-8.125151634216309,5.487504482269287
1759421675656284200,11.6032841796875,0.39658379554748535,-8.27578353881836,5.246364593505859
1759421675666284300,11.6132841796875,0.6385226845741272,-8.387907028198242,5.040386199951172
1759421675676284200,11.6232841796875,0.8864084482192993,-8.469682693481445,4.863016605377197
1759421675686284300,11.6332841796875,1.1265183687210083,-8.557907104492188,4.654381275177002
1759421675696284200,11.6432841796875,1.4455671310424805,-8.654561042785645,4.379396438598633
1759421675706284300,11.6532841796875,1.8324764966964722,-8.74047565460205,4.051707744598389
1759421675716283400,11.663283447265625,2.197091579437256,-8.798858642578125,3.731351375579834
1759421675726283300,11.673283203125,2.43270206451416,-8.7919340133667,3.5991580486297607
1759421675736283400,11.683283447265625,2.5536746978759766,-8.727371215820312,3.6717498302459717
1759421675746283300,11.693283203125,2.685448408126831,-8.63847827911377,3.7861990928649902
1759421675756283400,11.703283447265624,2.856916904449463,-8.543804168701172,3.8744606971740723
1759421675766283300,11.713283203125,3.1037566661834717,-8.430259704589844,3.93288254737854
1759421675776283400,11.723283447265626,3.410844564437866,-8.300320625305176,3.95485258102417
1759421675786283300,11.733283203125,3.6210832595825195,-8.20090103149414,3.9753029346466064
1759421675796283400,11.743283447265625,3.647242546081543,-8.160954475402832,4.033186435699463
1759421675806283300,11.753283203125,3.5762851238250732,-8.156248092651367,4.105620384216309
1759421675816284200,11.7632841796875,3.548246145248413,-8.1491117477417,4.143929481506348
1759421675826284300,11.7732841796875,3.6093640327453613,-8.125747680664062,4.137016773223877
1759421675836284200,11.7832841796875,3.7139363288879395,-8.091205596923828,4.112098217010498
1759421675846284300,11.7932841796875,3.792045831680298,-8.063681602478027,4.09483003616333
1759421675856284200,11.8032841796875,3.819185972213745,-8.045721054077148,4.1049113273620605
1759421675866284300,11.8132841796875,3.7757904529571533,-8.050883293151855,4.134829044342041
1759421675876284200,11.8232841796875,3.6760900020599365,-8.083137512207031,4.161654472351074
1759421675886284300,11.8332841796875,3.571347951889038,-8.134599685668945,4.152589321136475
1759421675896284200,11.8432841796875,3.477890729904175,-8.188105583190918,4.12666130065918
1759421675906284300,11.8532841796875,3.3871352672576904,-8.245035171508789,4.088628768920898
1759421675926283300,11.873283203125,3.202819585800171,-8.361294746398926,4.000109672546387
1759421675936283400,11.883283447265624,3.121083974838257,-8.406332969665527,3.9702298641204834
1759421675946283300,11.893283203125,3.045219659805298,-8.439326286315918,3.959096670150757
1759421675956283400,11.903283447265625,2.9611713886260986,-8.464960098266602,3.968149185180664
1759421675966283300,11.913283203125,2.841028928756714,-8.497246742248535,3.9869158267974854
1759421675976283400,11.923283447265625,2.670290946960449,-8.546802520751953,3.9989919662475586
1759421675986283300,11.933283203125,2.4628686904907227,-8.605384826660156,4.00645637512207
1759421675996283400,11.943283447265625,2.2290029525756836,-8.66549015045166,4.013843059539795
1759421676006283300,11.953283203125,1.900032877922058,-8.69772720336914,4.1121110916137695
1759421676016284200,11.9632841796875,1.4330518245697021,-8.673333168029785,4.34625768661499
1759421676026284000,11.973283935546876,0.8964177966117859,-8.575772285461426,4.671481132507324
1759421676036284200,11.9832841796875,0.4116302728652954,-8.41851806640625,5.012918949127197
1759421676046284300,11.9932841796875,0.07852262258529663,-8.239151000976562,5.317931175231934
1759421676056284200,12.0032841796875,-0.23174072802066803,-8.132892608642578,5.47470235824585
1759421676066284300,12.0132841796875,-0.4741761386394501,-8.18166446685791,5.385679721832275
1759421676076284200,12.0232841796875,-0.5700473785400391,-8.287537574768066,5.211698532104492
1759421676086284300,12.0332841796875,-0.5708262324333191,-8.392127990722656,5.041470527648926
1759421676096284200,12.0432841796875,-0.4864741861820221,-8.49831771850586,4.869513511657715
1759421676106284300,12.0532841796875,-0.44447818398475647,-8.607393264770508,4.678177833557129
1759421676116283400,12.063283447265626,-0.5594523549079895,-8.679798126220703,4.529707908630371
1759421676126283300,12.073283203125,-0.7046167254447937,-8.705509185791016,4.459555149078369
1759421676136283400,12.083283447265625,-0.8587186336517334,-8.692166328430176,4.4585676193237305
1759421676146283300,12.093283203125,-1.0433375835418701,-8.657981872558594,4.485610008239746
1759421676156283400,12.103283447265625,-1.2716025114059448,-8.602126121520996,4.533918857574463
1759421676166283300,12.113283203125,-1.5194073915481567,-8.521782875061035,4.608769416809082
1759421676176283400,12.123283447265624,-1.8064450025558472,-8.42358112335205,4.6850786209106445
1759421676186283300,12.133283203125,-2.136798143386841,-8.321824073791504,4.7277140617370605
1759421676196283400,12.143283447265626,-2.466888189315796,-8.229515075683594,4.728593826293945
1759421676206283300,12.153283203125,-2.741544246673584,-8.14997673034668,4.715054988861084
1759421676216284200,12.1632841796875,-2.9578559398651123,-8.07919692993164,4.706119060516357
1759421676226284300,12.1732841796875,-3.0793230533599854,-8.039398193359375,4.696388244628906
1759421676236284200,12.1832841796875,-3.1398673057556152,-8.0261812210083,4.678862571716309
1759421676246284300,12.1932841796875,-3.14143443107605,-8.040007591247559,4.653980731964111
1759421676256284200,12.2032841796875,-3.084097385406494,-8.076040267944336,4.6299052238464355
1759421676266284300,12.2132841796875,-2.9804232120513916,-8.126955032348633,4.608669281005859
1759421676276284200,12.2232841796875,-2.8560283184051514,-8.179606437683105,4.594247341156006
1759421676286284300,12.2332841796875,-2.709542989730835,-8.223556518554688,4.604511260986328
1759421676296284400,12.243284423828126,-2.5115110874176025,-8.255668640136719,4.658993244171143
1759421676306284300,12.2532841796875,-2.254593849182129,-8.27686882019043,4.7518534660339355
1759421676316283400,12.263283447265625,-1.9569138288497925,-8.287182807922363,4.864485263824463
1759421676326283500,12.273283447265625,-1.6439882516860962,-8.278046607971191,4.994138717651367
1759421676336283400,12.283283447265624,-1.3905203342437744,-8.22004222869873,5.164050102233887
1759421676346283300,12.293283203125,-1.4130016565322876,-8.074499130249023,5.382911205291748
1759421676356283400,12.303283447265626,-1.2579401731491089,-7.991521835327148,5.542839527130127
1759421676366283300,12.313283203125,-0.8950336575508118,-7.965161323547363,5.6502299308776855
1759421676376283400,12.323283447265625,-0.6302481889724731,-7.9070353507995605,5.766437530517578
1759421676386283300,12.333283203125,-0.5325102806091309,-7.742994785308838,5.994390964508057
1759421676396283400,12.343283447265625,-0.5671712160110474,-7.541398525238037,6.243056774139404
1759421676406283300,12.353283203125,-0.5501993298530579,-7.440299034118652,6.364697456359863
1759421676416284200,12.3632841796875,-0.4518275260925293,-7.448472023010254,6.362895488739014
1759421676426284300,12.3732841796875,-0.4207739233970642,-7.521415710449219,6.278648853302002
1759421676436284200,12.3832841796875,-0.44978347420692444,-7.614333152770996,6.163584232330322
1759421676446284300,12.3932841796875,-0.513975977897644,-7.7045440673828125,6.045324325561523
1759421676456284200,12.4032841796875,-0.576698362827301,-7.795849323272705,5.9213385581970215
1759421676466284300,12.4132841796875,-0.568778395652771,-7.895870208740234,5.78806734085083
1759421676476284200,12.4232841796875,-0.48675477504730225,-8.0083589553833,5.639091491699219
1759421676486284300,12.4332841796875,-0.33090513944625854,-8.13418960571289,5.467677116394043
1759421676496284200,12.4432841796875,-0.09229747205972672,-8.266785621643066,5.274632453918457
1759421676506284300,12.4532841796875,0.2012830376625061,-8.386006355285645,5.079814910888672
1759421676516283400,12.463283447265624,0.49882280826568604,-8.469993591308594,4.917383193969727
1759421676526283500,12.473283447265626,0.7686533331871033,-8.490867614746094,4.846080303192139
1759421676536283400,12.483283447265626,1.0096423625946045,-8.449673652648926,4.873773574829102
1759421676546283500,12.493283447265625,1.2449615001678467,-8.372262001037598,4.9523186683654785
1759421676556283400,12.503283447265625,1.50596022605896,-8.286134719848633,5.024165630340576
1759421676566283500,12.513283447265625,1.7748194932937622,-8.220328330993652,5.044426918029785
1759421676576283400,12.523283447265625,1.9962775707244873,-8.1677885055542,5.04699182510376
1759421676586283300,12.533283203125,2.1241941452026367,-8.134971618652344,5.047788619995117
1759421676596283400,12.543283447265624,2.1462974548339844,-8.121635437011719,5.059891223907471
1759421676606283300,12.553283203125,2.090022563934326,-8.120031356811523,5.085976600646973
1759421676616284200,12.5632841796875,2.0216569900512695,-8.122007369995117,5.11038064956665
1759421676626284300,12.5732841796875,2.0246002674102783,-8.119287490844727,5.1135406494140625
1759421676636284200,12.5832841796875,2.11710262298584,-8.105844497680664,5.097384452819824
1759421676646284300,12.5932841796875,2.274211883544922,-8.082035064697266,5.0674309730529785
1759421676656284200,12.6032841796875,2.4476194381713867,-8.049734115600586,5.037973880767822
1759421676666284300,12.6132841796875,2.592313051223755,-8.025212287902832,5.004594802856445
1759421676676284200,12.6232841796875,2.684220790863037,-8.02004337310791,4.964280128479004
1759421676686284300,12.6332841796875,2.6919925212860107,-8.049046516418457,4.912855625152588
1759421676696284200,12.6432841796875,2.67130970954895,-8.09152889251709,4.854016304016113
1759421676706284300,12.6532841796875,2.6437160968780518,-8.13547134399414,4.79531717300415
1759421676716283400,12.663283447265625,2.621704339981079,-8.172613143920898,4.743978977203369
1759421676726283300,12.673283203125,2.608915328979492,-8.19822883605957,4.706661701202393
1759421676736283400,12.683283447265625,2.60980486869812,-8.208471298217773,4.688295364379883
1759421676746283300,12.693283203125,2.6125741004943848,-8.206132888793945,4.690839767456055
1759421676756283400,12.703283447265624,2.5709073543548584,-8.204237937927246,4.717109680175781
1759421676766283300,12.713283203125,2.4558582305908203,-8.219104766845703,4.752379417419434
1759421676776283400,12.723283447265626,2.26776123046875,-8.257156372070312,4.779821395874023
1759421676786283300,12.733283203125,2.0335891246795654,-8.30703353881836,4.7987165451049805
1759421676796283400,12.743283447265625,1.8057944774627686,-8.35596752166748,4.804896831512451
1759421676806283300,12.753283203125,1.5526070594787598,-8.4039888381958,4.809637546539307
1759421676816284200,12.7632841796875,1.2222697734832764,-8.448942184448242,4.826132297515869
1759421676826284300,12.7732841796875,0.7230626344680786,-8.436603546142578,4.946811676025391
1759421676836284200,12.7832841796875,0.10471183806657791,-8.341403007507324,5.155585289001465
1759421676846284300,12.7932841796875,-0.4810977578163147,-8.204978942871094,5.349472522735596
1759421676856284200,12.8032841796875,-1.107203722000122,-8.092735290527344,5.426959037780762
1759421676866284300,12.8132841796875,-1.6765952110290527,-8.06920051574707,5.314802646636963
1759421676876284200,12.8232841796875,-1.9944120645523071,-8.093509674072266,5.165976047515869
1759421676886284300,12.8332841796875,-2.0870823860168457,-8.130834579467773,5.069888591766357
1759421676896284200,12.8432841796875,-1.9812328815460205,-8.200119018554688,5.000269412994385
1759421676906284300,12.8532841796875,-1.7743805646896362,-8.292279243469238,4.925408840179443
1759421676916283400,12.863283447265625,-1.6922279596328735,-8.354844093322754,4.847996234893799
1759421676926283300,12.873283203125,-1.732498049736023,-8.382142066955566,4.78626012802124
1759421676936283400,12.883283447265624,-1.8461042642593384,-8.371871948242188,4.7616705894470215
1759421676946283300,12.893283203125,-2.0168588161468506,-8.334651947021484,4.757712364196777
1759421676956283400,12.903283447265625,-2.213426113128662,-8.273853302001953,4.776432514190674
1759421676966283300,12.913283203125,-2.4038264751434326,-8.19289493560791,4.823698997497559
1759421676976283400,12.923283447265625,-2.6149206161499023,-8.097601890563965,4.874533653259277
1759421676986283300,12.933283203125,-2.8764781951904297,-7.995142459869385,4.896267414093018
1759421676996283400,12.943283447265625,-3.1748759746551514,-7.894277572631836,4.875497817993164
1759421677006283300,12.953283203125,-3.4646401405334473,-7.80281400680542,4.82520055770874
1759421677016284200,12.9632841796875,-3.7166826725006104,-7.725377559661865,4.761814594268799
1759421677026284000,12.973283935546876,-3.852776527404785,-7.696478843688965,4.700015068054199
1759421677036284200,12.9832841796875,-3.8962008953094482,-7.7091522216796875,4.6431097984313965
1759421677046284300,12.9932841796875,-3.859720468521118,-7.759616851806641,4.589215278625488
1759421677056284200,13.0032841796875,-3.7690656185150146,-7.831501007080078,4.54222297668457
1759421677066284300,13.0132841796875,-3.653066396713257,-7.9068450927734375,4.50631046295166
1759421677076284200,13.0232841796875,-3.5362095832824707,-7.971597671508789,4.48540735244751
1759421677086284300,13.0332841796875,-3.4446780681610107,-8.017172813415527,4.47539758682251
1759421677096284200,13.0432841796875,-3.36824631690979,-8.045930862426758,4.481914520263672
1759421677106284300,13.0532841796875,-3.281874179840088,-8.063630104064941,4.514115810394287
1759421677116283400,13.063283447265626,-3.1597936153411865,-8.072528839111328,4.584764003753662
1759421677126283300,13.073283203125,-2.990659236907959,-8.076255798339844,4.690417289733887
1759421677136283400,13.083283447265625,-2.78926157951355,-8.081218719482422,4.804556846618652
1759421677146283300,13.093283203125,-2.5815958976745605,-8.069891929626465,4.937840461730957
1759421677156283400,13.103283447265625,-2.4196932315826416,-8.001623153686523,5.127289772033691
1759421677166283300,13.113283203125,-2.2512407302856445,-7.901515960693359,5.35423469543457
1759421677176283400,13.123283447265624,-1.9196903705596924,-7.833919048309326,5.5780510902404785
1759421677186283300,13.133283203125,-1.536694049835205,-7.788331508636475,5.757658958435059
