seconds_elapsed,acc_z,acc_y,acc_x,grav_z,grav_y,grav_x,gyro_z,gyro_y,gyro_x
0.0700,-0.1791,-0.0341,-0.1096,0.6021,-6.6556,-7.1771,-0.0089,0.0123,0.0649
0.0800,-0.1562,-0.0576,-0.0961,0.6039,-6.6560,-7.1766,-0.0089,0.0123,0.0649
0.0900,-0.1333,-0.0812,-0.0827,0.6057,-6.6564,-7.1760,-0.0089,0.0123,0.0649
0.1000,-0.0627,-0.1353,-0.0728,0.6102,-6.6574,-7.1748,0.0037,0.0302,0.0686
0.1100,0.0021,-0.1560,-0.1145,0.6125,-6.6574,-7.1745,0.0100,0.0351,0.0680
0.1200,0.0493,-0.1609,-0.1385,0.6139,-6.6565,-7.1753,0.0108,0.0265,0.0606
0.1300,0.0978,-0.1372,-0.1553,0.6156,-6.6555,-7.1761,0.0141,0.0127,0.0596
0.1400,0.1273,-0.1184,-0.1265,0.6181,-6.6543,-7.1769,0.0184,-0.0028,0.0570
0.1500,0.1237,-0.1040,-0.0384,0.6217,-6.6528,-7.1780,0.0202,-0.0115,0.0535
0.1600,0.1098,-0.0945,0.0490,0.6260,-6.6510,-7.1793,0.0208,-0.0134,0.0507
0.1700,0.0576,-0.1074,0.1101,0.6304,-6.6493,-7.1805,0.0230,-0.0040,0.0435
0.1800,0.0044,-0.1515,0.1529,0.6341,-6.6475,-7.1818,0.0253,0.0129,0.0348
0.1900,-0.0264,-0.1836,0.1792,0.6361,-6.6457,-7.1833,0.0238,0.0308,0.0315
0.2000,-0.0243,-0.1877,0.1400,0.6364,-6.6441,-7.1848,0.0179,0.0412,0.0293
0.2100,-0.0409,-0.1715,0.0576,0.6355,-6.6435,-7.1854,0.0106,0.0451,0.0287
0.2200,-0.0313,-0.1465,-0.0558,0.6339,-6.6446,-7.1845,0.0033,0.0475,0.0338
0.2300,-0.0170,-0.1205,-0.1382,0.6323,-6.6458,-7.1836,-0.0028,0.0508,0.0468
0.2400,0.0256,-0.0708,-0.2077,0.6312,-6.6468,-7.1827,-0.0079,0.0508,0.0623
0.2500,0.0887,0.0017,-0.2307,0.6312,-6.6475,-7.1821,-0.0087,0.0428,0.0763
0.2600,0.1352,0.0612,-0.2367,0.6326,-6.6479,-7.1816,-0.0083,0.0274,0.0861
0.2700,0.1654,0.1067,-0.2506,0.6358,-6.6480,-7.1813,-0.0104,0.0088,0.0895
0.2800,0.1939,0.1576,-0.2693,0.6409,-6.6478,-7.1809,-0.0130,-0.0089,0.0838
0.2900,0.2239,0.1909,-0.3098,0.6488,-6.6472,-7.1808,-0.0130,-0.0170,0.0824
0.3000,0.2360,0.1966,-0.3305,0.6554,-6.6461,-7.1813,-0.0126,-0.0234,0.0753
0.3100,0.2353,0.2141,-0.3433,0.6642,-6.6436,-7.1827,-0.0118,-0.0323,0.0539
0.3200,0.2342,0.2320,-0.3304,0.6732,-6.6400,-7.1853,-0.0081,-0.0374,0.0305
0.3300,0.2326,0.2446,-0.3044,0.6820,-6.6350,-7.1890,-0.0036,-0.0459,-0.0011
0.3400,0.2173,0.2145,-0.2755,0.6901,-6.6289,-7.1939,0.0006,-0.0620,-0.0420
0.3500,0.1880,0.1862,-0.2452,0.6971,-6.6221,-7.1994,0.0065,-0.0871,-0.0864
0.3600,0.1286,0.1561,-0.2179,0.7030,-6.6151,-7.2053,0.0133,-0.1298,-0.1448
0.3700,0.0672,0.1398,-0.1938,0.7077,-6.6084,-7.2110,0.0184,-0.1640,-0.1906
0.3800,0.0032,0.1016,-0.1493,0.7111,-6.6022,-7.2163,0.0238,-0.1777,-0.2169
0.3900,-0.0466,0.0763,-0.0999,0.7129,-6.5968,-7.2211,0.0291,-0.1822,-0.2350
0.4000,-0.0769,0.0533,-0.0893,0.7129,-6.5922,-7.2253,0.0312,-0.1816,-0.2450
0.4100,-0.1014,0.0103,-0.1134,0.7111,-6.5891,-7.2283,0.0322,-0.1803,-0.2468
0.4200,-0.0927,-0.0123,-0.1313,0.7081,-6.5880,-7.2296,0.0318,-0.1822,-0.2405
0.4300,-0.1226,-0.0237,-0.1301,0.7051,-6.5870,-7.2308,0.0298,-0.1897,-0.2318
0.4400,-0.1437,-0.0198,-0.1059,0.7031,-6.5861,-7.2318,0.0289,-0.2019,-0.2253
0.4500,-0.1645,-0.0485,-0.0644,0.7024,-6.5853,-7.2326,0.0281,-0.2117,-0.2153
0.4600,-0.1913,-0.0740,-0.0072,0.7029,-6.5846,-7.2332,0.0293,-0.2131,-0.2059
0.4700,-0.2056,-0.1115,0.0269,0.7044,-6.5838,-7.2337,0.0310,-0.2019,-0.2012
0.4800,-0.2117,-0.1770,0.0300,0.7058,-6.5829,-7.2344,0.0334,-0.1905,-0.1998
0.4900,-0.2106,-0.2322,0.0443,0.7062,-6.5820,-7.2352,0.0344,-0.1834,-0.2016
0.5000,-0.1920,-0.2683,0.0644,0.7059,-6.5810,-7.2362,0.0344,-0.1781,-0.2014
0.5100,-0.1775,-0.2987,0.0709,0.7050,-6.5802,-7.2370,0.0336,-0.1748,-0.2004
0.5200,-0.1787,-0.3433,0.0772,0.7038,-6.5795,-7.2378,0.0320,-0.1728,-0.1994
0.5300,-0.1661,-0.3692,0.0953,0.7024,-6.5791,-7.2383,0.0310,-0.1706,-0.1949
0.5400,-0.1815,-0.3750,0.1530,0.7010,-6.5789,-7.2386,0.0300,-0.1669,-0.1892
0.5500,-0.2215,-0.3756,0.2233,0.6996,-6.5790,-7.2386,0.0259,-0.1585,-0.1829
0.5600,-0.2350,-0.3870,0.2604,0.6979,-6.5797,-7.2382,0.0131,-0.1449,-0.1741
0.5700,-0.2446,-0.3750,0.2647,0.6956,-6.5813,-7.2369,0.0084,-0.1276,-0.1611
0.5800,-0.2792,-0.3899,0.2722,0.6926,-6.5839,-7.2348,0.0141,-0.1085,-0.1485
0.5900,-0.2988,-0.4282,0.2485,0.6866,-6.5895,-7.2303,0.0241,-0.0820,-0.1296
0.6000,-0.2973,-0.4520,0.2154,0.6747,-6.6008,-7.2211,0.0261,-0.0614,-0.1131
0.6100,-0.2807,-0.4627,0.1794,0.6622,-6.6117,-7.2123,0.0232,-0.0459,-0.0915
0.6200,-0.2579,-0.4493,0.1274,0.6498,-6.6226,-7.2034,0.0206,-0.0343,-0.0646
0.6300,-0.2385,-0.4139,0.0891,0.6384,-6.6333,-7.1946,0.0173,-0.0246,-0.0310
0.6400,-0.2079,-0.3472,0.0535,0.6285,-6.6434,-7.1861,0.0133,-0.0189,-0.0001
0.6500,-0.1993,-0.2978,0.0502,0.6207,-6.6528,-7.1781,0.0094,-0.0119,0.0260
0.6600,-0.1955,-0.2379,0.0593,0.6145,-6.6617,-7.1704,0.0069,0.0031,0.0564
0.6700,-0.1857,-0.1932,0.0690,0.6095,-6.6697,-7.1634,0.0084,0.0284,0.0934
0.6800,-0.1693,-0.1641,0.0710,0.6058,-6.6764,-7.1574,0.0086,0.0485,0.1166
0.6900,-0.1444,-0.1467,0.0723,0.6048,-6.6803,-7.1539,0.0074,0.0599,0.1299
0.7000,-0.1386,-0.1228,0.0562,0.6079,-6.6802,-7.1537,0.0049,0.0671,0.1396
0.7100,-0.1187,-0.1094,0.0154,0.6111,-6.6800,-7.1536,0.0019,0.0658,0.1404
0.7200,-0.1277,-0.0641,-0.0247,0.6146,-6.6799,-7.1534,-0.0016,0.0654,0.1382
0.7300,-0.1361,-0.0434,-0.0800,0.6182,-6.6799,-7.1531,-0.0028,0.0669,0.1290
0.7400,-0.1314,-0.0123,-0.1705,0.6214,-6.6798,-7.1529,-0.0028,0.0713,0.1211
0.7500,-0.1162,0.0131,-0.2312,0.6238,-6.6796,-7.1529,-0.0024,0.0734,0.1148
0.7600,-0.0774,0.0255,-0.2933,0.6256,-6.6793,-7.1530,-0.0010,0.0685,0.1085
0.7700,-0.0448,0.0489,-0.3248,0.6274,-6.6788,-7.1533,0.0008,0.0595,0.1020
0.7800,-0.0204,0.0682,-0.3323,0.6293,-6.6781,-7.1539,0.0047,0.0530,0.0993
0.7900,0.0084,0.0959,-0.3076,0.6316,-6.6770,-7.1546,0.0084,0.0473,0.0991
0.8000,0.0504,0.1192,-0.2307,0.6343,-6.6756,-7.1557,0.0114,0.0371,0.0954
0.8100,0.0528,0.1391,-0.1616,0.6376,-6.6740,-7.1569,0.0157,0.0274,0.0928
0.8200,0.0402,0.1483,-0.1075,0.6413,-6.6720,-7.1584,0.0194,0.0184,0.0814
0.8300,0.0290,0.1444,-0.1025,0.6454,-6.6697,-7.1602,0.0224,0.0174,0.0743
0.8400,0.0085,0.1181,-0.1166,0.6491,-6.6673,-7.1621,0.0234,0.0176,0.0616
0.8500,-0.0025,0.0884,-0.1448,0.6521,-6.6648,-7.1642,0.0243,0.0168,0.0504
0.8600,0.0067,0.0519,-0.1757,0.6541,-6.6618,-7.1668,0.0238,0.0133,0.0388
0.8700,0.0143,0.0247,-0.2040,0.6553,-6.6578,-7.1704,0.0222,0.0088,0.0307
0.8800,0.0253,0.0226,-0.2094,0.6562,-6.6540,-7.1738,0.0208,0.0041,0.0264
0.8900,0.0474,0.0319,-0.1831,0.6573,-6.6505,-7.1770,0.0188,-0.0024,0.0207
0.9000,0.0430,0.0429,-0.1690,0.6585,-6.6472,-7.1799,0.0179,-0.0073,0.0189
0.9100,0.0542,0.0358,-0.1527,0.6601,-6.6441,-7.1826,0.0188,-0.0101,0.0199
0.9200,0.0714,0.0176,-0.1461,0.6621,-6.6411,-7.1852,0.0208,-0.0093,0.0215
0.9300,0.1058,0.0106,-0.1308,0.6643,-6.6381,-7.1878,0.0212,-0.0089,0.0246
0.9400,0.1273,-0.0059,-0.1131,0.6668,-6.6351,-7.1903,0.0198,-0.0123,0.0270
0.9500,0.1195,-0.0358,-0.0997,0.6698,-6.6324,-7.1926,0.0167,-0.0144,0.0285
0.9600,0.0889,-0.0653,-0.0754,0.6732,-6.6300,-7.1945,0.0122,-0.0109,0.0280
0.9700,0.0600,-0.0687,-0.0812,0.6766,-6.6281,-7.1958,0.0078,-0.0054,0.0268
0.9800,0.0485,-0.0429,-0.0859,0.6793,-6.6268,-7.1968,0.0039,-0.0024,0.0223
0.9900,0.0423,-0.0518,-0.0916,0.6815,-6.6259,-7.1974,0.0023,-0.0038,0.0187
1.0000,0.0429,-0.0660,-0.0904,0.6833,-6.6253,-7.1978,0.0008,-0.0073,0.0162
1.0100,0.0467,-0.0609,-0.0982,0.6852,-6.6248,-7.1981,-0.0010,-0.0085,0.0171
1.0200,0.0567,-0.0268,-0.1005,0.6871,-6.6245,-7.1982,-0.0040,-0.0068,0.0199
1.0300,0.0627,-0.0126,-0.0926,0.6891,-6.6244,-7.1981,-0.0057,-0.0032,0.0254
1.0400,0.0685,0.0073,-0.1119,0.6913,-6.6244,-7.1979,-0.0059,-0.0013,0.0309
1.0500,0.0814,0.0642,-0.1687,0.6943,-6.6240,-7.1979,-0.0028,0.0001,0.0362
1.0600,0.0800,0.0813,-0.1872,0.6957,-6.6238,-7.1980,-0.0013,0.0007,0.0380
1.0700,0.0888,0.1158,-0.2277,0.6997,-6.6227,-7.1986,0.0027,-0.0028,0.0395
1.0800,0.1125,0.1300,-0.2240,0.7031,-6.6210,-7.1999,0.0067,-0.0138,0.0356
1.0900,0.1060,0.1498,-0.2006,0.7073,-6.6184,-7.2018,0.0118,-0.0284,0.0305
1.1000,0.0818,0.1306,-0.1829,0.7123,-6.6152,-7.2043,0.0177,-0.0449,0.0171
1.1100,0.0571,0.1012,-0.1424,0.7178,-6.6114,-7.2073,0.0238,-0.0559,0.0006
1.1200,0.0463,0.0437,-0.1217,0.7231,-6.6073,-7.2105,0.0283,-0.0639,-0.0210
1.1300,0.0418,0.0038,-0.1121,0.7275,-6.6033,-7.2136,0.0296,-0.0734,-0.0410
1.1400,0.0264,-0.0173,-0.0741,0.7309,-6.5998,-7.2166,0.0283,-0.0891,-0.0587
1.1500,-0.0045,-0.0466,-0.0597,0.7339,-6.5968,-7.2190,0.0261,-0.1021,-0.0732
1.1600,-0.0337,-0.0848,-0.0699,0.7368,-6.5946,-7.2207,0.0232,-0.1052,-0.0856
1.1700,-0.0472,-0.1040,-0.0639,0.7392,-6.5929,-7.2220,0.0198,-0.1054,-0.0917
1.1800,-0.0592,-0.1091,-0.0638,0.7408,-6.5918,-7.2228,0.0173,-0.1064,-0.0919
1.1900,-0.0847,-0.1154,-0.0633,0.7423,-6.5911,-7.2234,0.0175,-0.1060,-0.0866
1.2000,-0.0944,-0.1057,-0.0589,0.7440,-6.5904,-7.2238,0.0179,-0.0991,-0.0756
1.2100,-0.0939,-0.0952,-0.0456,0.7459,-6.5897,-7.2243,0.0175,-0.0877,-0.0652
1.2200,-0.0805,-0.0984,-0.0180,0.7476,-6.5889,-7.2248,0.0169,-0.0775,-0.0532
1.2300,-0.0669,-0.1063,-0.0135,0.7492,-6.5882,-7.2253,0.0175,-0.0712,-0.0389
1.2400,-0.0583,-0.1087,-0.0226,0.7510,-6.5874,-7.2258,0.0175,-0.0700,-0.0259
1.2500,-0.0655,-0.1127,-0.0245,0.7535,-6.5866,-7.2263,0.0157,-0.0657,-0.0145
1.2600,-0.0661,-0.1270,-0.0313,0.7564,-6.5858,-7.2267,0.0153,-0.0618,-0.0092
1.2700,-0.0740,-0.1069,-0.0262,0.7595,-6.5852,-7.2269,0.0171,-0.0557,-0.0047
1.2800,-0.0680,-0.0860,-0.0419,0.7623,-6.5845,-7.2272,0.0184,-0.0510,-0.0017
1.2900,-0.0635,-0.0741,-0.0557,0.7650,-6.5837,-7.2277,0.0190,-0.0500,0.0018
1.3000,-0.0581,-0.0535,-0.0400,0.7676,-6.5828,-7.2283,0.0196,-0.0545,0.0040
1.3100,-0.0692,-0.0441,-0.0362,0.7707,-6.5817,-7.2289,0.0202,-0.0571,0.0069
1.3200,-0.1054,-0.0532,-0.0403,0.7741,-6.5806,-7.2296,0.0192,-0.0545,0.0065
1.3300,-0.1103,-0.0663,-0.0245,0.7775,-6.5795,-7.2302,0.0181,-0.0486,0.0028
1.3400,-0.0985,-0.0696,-0.0463,0.7800,-6.5786,-7.2308,0.0163,-0.0443,0.0014
1.3500,-0.0948,-0.0816,-0.0729,0.7820,-6.5777,-7.2313,0.0139,-0.0445,-0.0007
1.3600,-0.0861,-0.0943,-0.1084,0.7837,-6.5771,-7.2318,0.0106,-0.0455,-0.0021
1.3700,-0.0679,-0.1059,-0.1344,0.7853,-6.5766,-7.2320,0.0069,-0.0461,-0.0043
1.3800,-0.0345,-0.0967,-0.1256,0.7871,-6.5763,-7.2321,0.0037,-0.0476,-0.0070
1.3900,-0.0012,-0.0752,-0.1034,0.7889,-6.5762,-7.2320,-0.0043,-0.0575,-0.0078
1.4000,-0.0012,-0.0694,-0.0767,0.7912,-6.5764,-7.2315,-0.0073,-0.0663,-0.0082
1.4100,-0.0125,-0.0783,-0.0410,0.7946,-6.5771,-7.2305,-0.0043,-0.0696,-0.0137
1.4200,-0.0441,-0.1016,-0.0052,0.7982,-6.5777,-7.2296,-0.0045,-0.0624,-0.0204
1.4300,-0.0518,-0.1074,0.0035,0.8012,-6.5783,-7.2287,-0.0089,-0.0508,-0.0249
1.4400,-0.0511,-0.1001,-0.0207,0.8029,-6.5792,-7.2277,-0.0132,-0.0441,-0.0273
1.4500,-0.0519,-0.0780,-0.0467,0.8037,-6.5806,-7.2264,-0.0152,-0.0443,-0.0251
1.4600,-0.0647,-0.0845,-0.0626,0.8045,-6.5821,-7.2249,-0.0165,-0.0451,-0.0212
1.4700,-0.0753,-0.0717,-0.0761,0.8056,-6.5836,-7.2233,-0.0157,-0.0435,-0.0167
1.4800,-0.0734,-0.0447,-0.0816,0.8068,-6.5851,-7.2218,-0.0114,-0.0370,-0.0115
1.4900,-0.0315,-0.0092,-0.0964,0.8081,-6.5863,-7.2206,-0.0047,-0.0288,-0.0039
1.5000,0.0152,0.0257,-0.1010,0.8092,-6.5869,-7.2199,0.0035,-0.0250,0.0059
1.5100,0.0481,0.0375,-0.1018,0.8106,-6.5868,-7.2199,0.0141,-0.0244,0.0142
1.5200,0.0829,0.0460,-0.0995,0.8125,-6.5857,-7.2207,0.0236,-0.0272,0.0211
1.5300,0.1281,0.0361,-0.0852,0.8152,-6.5837,-7.2222,0.0338,-0.0380,0.0234
1.5400,0.1418,0.0062,-0.0824,0.8191,-6.5810,-7.2242,0.0379,-0.0533,0.0193
1.5500,0.1232,-0.0074,-0.0665,0.8241,-6.5778,-7.2266,0.0373,-0.0663,0.0091
1.5600,0.0825,-0.0217,-0.0515,0.8297,-6.5746,-7.2288,0.0365,-0.0722,-0.0055
1.5700,0.0396,-0.0469,-0.0830,0.8351,-6.5718,-7.2308,0.0371,-0.0708,-0.0231
1.5800,0.0122,-0.0447,-0.1067,0.8393,-6.5692,-7.2327,0.0379,-0.0659,-0.0377
1.5900,-0.0041,-0.0352,-0.1127,0.8421,-6.5667,-7.2346,0.0385,-0.0653,-0.0485
1.6000,-0.0170,-0.0616,-0.1154,0.8438,-6.5642,-7.2367,0.0371,-0.0692,-0.0518
1.6100,-0.0289,-0.0696,-0.1135,0.8453,-6.5619,-7.2386,0.0330,-0.0732,-0.0510
1.6200,-0.0219,-0.0669,-0.1046,0.8471,-6.5597,-7.2403,0.0293,-0.0757,-0.0489
1.6300,-0.0017,-0.0599,-0.1016,0.8493,-6.5579,-7.2417,0.0283,-0.0738,-0.0440
1.6400,0.0430,-0.0576,-0.0948,0.8516,-6.5562,-7.2430,0.0267,-0.0751,-0.0351
1.6500,0.0849,-0.0553,-0.0800,0.8544,-6.5546,-7.2442,0.0218,-0.0808,-0.0288
1.6600,0.1027,-0.0417,-0.0839,0.8582,-6.5531,-7.2451,0.0173,-0.0850,-0.0290
1.6700,0.1192,-0.0364,-0.1025,0.8624,-6.5519,-7.2456,0.0161,-0.0873,-0.0318
1.6800,0.1316,-0.0262,-0.1006,0.8668,-6.5510,-7.2459,0.0157,-0.0920,-0.0365
1.6900,0.1160,0.0120,-0.1003,0.8712,-6.5500,-7.2462,0.0139,-0.0964,-0.0436
1.7000,0.0963,0.0239,-0.1128,0.8757,-6.5492,-7.2465,0.0127,-0.1046,-0.0520
1.7100,0.0815,0.0120,-0.1270,0.8802,-6.5484,-7.2466,0.0129,-0.1186,-0.0597
1.7200,0.0631,0.0376,-0.1190,0.8850,-6.5477,-7.2467,0.0131,-0.1382,-0.0683
1.7300,0.0304,0.0759,-0.0807,0.8906,-6.5469,-7.2467,0.0131,-0.1579,-0.0766
1.7400,-0.0200,0.0831,-0.0480,0.8971,-6.5462,-7.2466,0.0147,-0.1724,-0.0874
1.7500,-0.0349,0.0736,-0.0466,0.9040,-6.5454,-7.2464,0.0163,-0.1818,-0.0980
1.7600,-0.0624,0.0600,-0.0435,0.9108,-6.5446,-7.2463,0.0196,-0.1930,-0.1131
1.7700,-0.0793,0.0296,-0.0372,0.9173,-6.5437,-7.2463,0.0243,-0.2037,-0.1259
1.7800,-0.1111,-0.0169,-0.0466,0.9235,-6.5427,-7.2464,0.0296,-0.2095,-0.1379
1.7900,-0.1320,-0.0740,-0.0710,0.9293,-6.5415,-7.2468,0.0383,-0.2086,-0.1499
1.8000,-0.1225,-0.1274,-0.0775,0.9341,-6.5400,-7.2475,0.0446,-0.2035,-0.1595
1.8100,-0.1165,-0.1620,-0.0619,0.9377,-6.5381,-7.2487,0.0420,-0.1958,-0.1640
1.8200,-0.0895,-0.1748,-0.0359,0.9402,-6.5364,-7.2499,0.0448,-0.1864,-0.1619
1.8300,-0.0602,-0.1738,0.0145,0.9420,-6.5351,-7.2509,0.0538,-0.1811,-0.1520
1.8400,-0.0403,-0.1899,0.0861,0.9438,-6.5333,-7.2523,0.0623,-0.1854,-0.1408
1.8500,-0.0644,-0.2360,0.1364,0.9463,-6.5311,-7.2539,0.0662,-0.1925,-0.1291
1.8600,-0.1325,-0.2436,0.1689,0.9497,-6.5291,-7.2553,0.0652,-0.1915,-0.1182
1.8700,-0.1666,-0.2185,0.2198,0.9535,-6.5279,-7.2559,0.0583,-0.1814,-0.1033
1.8800,-0.1649,-0.1864,0.2975,0.9566,-6.5280,-7.2553,0.0491,-0.1832,-0.0923
1.8900,-0.2164,-0.2108,0.3504,0.9594,-6.5300,-7.2532,0.0363,-0.1866,-0.0856
1.9000,-0.3057,-0.2798,0.3637,0.9617,-6.5344,-7.2489,0.0151,-0.1697,-0.0811
1.9100,-0.3530,-0.3025,0.2930,0.9619,-6.5420,-7.2420,-0.0081,-0.1319,-0.0791
1.9200,-0.3530,-0.2934,0.1928,0.9579,-6.5527,-7.2328,-0.0279,-0.0879,-0.0750
1.9300,-0.3048,-0.2648,0.1066,0.9497,-6.5654,-7.2225,-0.0409,-0.0529,-0.0674
1.9400,-0.2141,-0.2094,0.0475,0.9388,-6.5784,-7.2120,-0.0456,-0.0419,-0.0560
1.9500,-0.1510,-0.1521,0.0332,0.9283,-6.5903,-7.2026,-0.0433,-0.0561,-0.0469
1.9600,-0.0828,-0.1055,0.0514,0.9208,-6.6002,-7.1944,-0.0346,-0.0899,-0.0363
1.9700,-0.0316,-0.0719,0.0700,0.9175,-6.6082,-7.1875,-0.0240,-0.1378,-0.0253
1.9800,-0.0280,-0.0635,0.0698,0.9194,-6.6142,-7.1817,-0.0100,-0.2031,-0.0088
1.9900,-0.0901,-0.0536,0.0976,0.9272,-6.6186,-7.1767,-0.0010,-0.2341,0.0054
2.0000,-0.1585,-0.0449,0.1202,0.9398,-6.6216,-7.1723,0.0025,-0.2253,0.0175
2.0100,-0.1554,-0.0423,0.1233,0.9526,-6.6242,-7.1681,0.0065,-0.2017,0.0309
2.0200,-0.0953,-0.0472,0.1532,0.9644,-6.6265,-7.1645,0.0102,-0.1787,0.0474
2.0300,0.0261,0.0814,0.1827,0.9754,-6.6283,-7.1613,0.0149,-0.1724,0.0671
2.0400,0.1605,0.3934,0.3240,0.9879,-6.6290,-7.1589,0.0440,-0.2233,0.0883
2.0500,0.0566,0.4490,0.4964,1.0056,-6.6272,-7.1582,0.1008,-0.3072,0.1048
2.0600,-0.2694,0.1216,0.4280,1.0307,-6.6214,-7.1600,0.1379,-0.3308,0.1026
2.0700,-0.4305,-0.0777,0.4398,1.0586,-6.6128,-7.1639,0.1293,-0.2880,0.0877
2.0800,-0.4668,-0.2348,0.4350,1.0805,-6.6058,-7.1670,0.0792,-0.2119,0.0735
2.0900,-0.4882,-0.3194,0.3365,1.0932,-6.6041,-7.1666,0.0102,-0.1186,0.0614
2.1000,-0.4690,-0.3481,0.2222,1.0963,-6.6090,-7.1617,-0.0631,0.0145,0.0564
2.1100,-0.4035,-0.3387,0.0934,1.0890,-6.6200,-7.1526,-0.1105,0.1165,0.0610
2.1200,-0.2885,-0.3187,-0.0446,1.0721,-6.6355,-7.1408,-0.1293,0.1636,0.0714
2.1300,-0.1512,-0.2979,-0.1292,1.0551,-6.6502,-7.1296,-0.1309,0.1554,0.0851
2.1400,0.0000,-0.2873,-0.1802,1.0462,-6.6602,-7.1216,-0.1258,0.0968,0.0997
2.1500,0.1518,-0.2814,-0.1482,1.0421,-6.6693,-7.1137,-0.1213,-0.0007,0.1209
2.1600,0.2133,-0.2460,-0.0990,1.0461,-6.6775,-7.1054,-0.1209,-0.1052,0.1535
2.1700,0.1994,-0.2026,-0.0747,1.0599,-6.6850,-7.0963,-0.1238,-0.1775,0.1950
2.1800,0.2962,0.0559,0.0038,1.0828,-6.6921,-7.0861,-0.1238,-0.1991,0.2508
2.1900,0.3476,0.4486,0.1655,1.1120,-6.6985,-7.0755,-0.0910,-0.2357,0.3198
2.2000,-0.1792,0.3100,0.2908,1.1472,-6.7028,-7.0659,-0.0468,-0.2559,0.3640
2.2100,-0.6005,0.2048,0.3899,1.1886,-6.7030,-7.0588,-0.0482,-0.1508,0.3349
2.2200,-0.6080,0.2938,0.4980,1.2257,-6.7017,-7.0537,-0.0767,-0.0093,0.2864
2.2300,-0.3484,0.3333,0.5065,1.2478,-6.7030,-7.0486,-0.0949,0.1135,0.2732
2.2400,-0.1290,0.2648,0.3992,1.2591,-6.7063,-7.0434,-0.0955,0.2383,0.3076
2.2500,-0.1110,0.0911,0.2499,1.2634,-6.7098,-7.0393,-0.0881,0.3756,0.3709
2.2600,-0.2362,-0.0790,0.1369,1.2625,-6.7121,-7.0373,-0.0796,0.5152,0.4231
2.2700,-0.1688,-0.1490,0.1021,1.2558,-6.7131,-7.0376,-0.0743,0.6063,0.4489
2.2800,0.0119,-0.0858,0.2246,1.2434,-6.7133,-7.0396,-0.0792,0.5896,0.4506
2.2900,0.0068,0.0668,0.4247,1.2303,-6.7134,-7.0418,-0.0928,0.4894,0.4326
2.3000,-0.1040,0.2635,0.6078,1.2221,-6.7146,-7.0421,-0.1046,0.3815,0.4027
2.3100,-0.1573,0.3849,0.7031,1.2203,-6.7171,-7.0400,-0.1107,0.3033,0.3762
2.3200,-0.1614,0.4713,0.6379,1.2229,-6.7205,-7.0363,-0.1032,0.2742,0.3661
2.3300,-0.0195,0.6774,0.4982,1.2278,-6.7238,-7.0322,-0.0287,0.2858,0.4113
2.3400,0.0507,0.8536,0.3504,1.2342,-6.7237,-7.0313,0.0919,0.2811,0.4724
2.3500,-0.2931,0.5972,0.2008,1.2444,-6.7146,-7.0381,0.1937,0.3006,0.4921
2.3600,-0.4214,0.4877,0.1994,1.2570,-6.6969,-7.0527,0.2489,0.3619,0.4852
2.3700,-0.2424,0.6109,0.3033,1.2655,-6.6741,-7.0728,0.2658,0.4350,0.4917
2.3800,0.1823,0.9675,0.5153,1.2686,-6.6493,-7.0956,0.2702,0.4965,0.5538
2.3900,0.5885,1.4453,0.8337,1.2694,-6.6235,-7.1196,0.2869,0.5407,0.7045
2.4000,0.4121,1.7884,1.2340,1.2743,-6.5953,-7.1448,0.3061,0.5547,0.8645
2.4100,0.0812,2.0056,1.5769,1.2883,-6.5634,-7.1716,0.3142,0.5167,0.9401
2.4200,-0.0750,2.1618,1.6961,1.3104,-6.5288,-7.1991,0.3264,0.4590,0.9564
2.4300,-0.1426,2.2792,1.6379,1.3381,-6.4930,-7.2263,0.3710,0.4818,1.0036
2.4400,-0.3722,2.2796,1.6103,1.3682,-6.4543,-7.2553,0.4655,0.6087,1.0639
2.4500,-0.6185,2.1502,1.5808,1.3950,-6.4087,-7.2905,0.5331,0.7309,1.0431
2.4600,-0.5588,2.0607,1.3340,1.4119,-6.3559,-7.3333,0.5722,0.8702,0.9969
2.4700,-0.1643,2.0563,0.8726,1.4157,-6.3004,-7.3803,0.6355,1.0402,1.0020
2.4800,0.3393,2.0610,0.4746,1.4052,-6.2412,-7.4324,0.7206,1.2147,1.0812
2.4900,0.7933,2.0850,0.1537,1.3838,-6.1751,-7.4914,0.8135,1.2615,1.1541
2.5000,1.2044,2.1175,-0.1010,1.3582,-6.1007,-7.5568,0.8797,1.0520,1.1225
2.5100,1.5448,2.2800,-0.3923,1.3402,-6.0197,-7.6246,0.9336,0.6478,1.0215
2.5200,1.7341,2.4375,-0.5759,1.3424,-5.9354,-7.6900,1.0159,0.2715,0.9621
2.5300,1.7439,2.5351,-0.3396,1.3702,-5.8462,-7.7531,1.1187,0.0709,1.0001
2.5400,1.5502,2.5983,0.1693,1.4178,-5.7483,-7.8175,1.1888,-0.0643,1.0523
2.5500,1.1337,2.7658,0.5797,1.4784,-5.6413,-7.8839,1.2159,-0.2626,1.0111
2.5600,0.6403,2.9032,0.8823,1.5512,-5.5297,-7.9487,1.2342,-0.5743,0.8000
2.5700,0.1870,2.8143,1.0251,1.6366,-5.4176,-8.0085,1.2580,-0.7865,0.5738
2.5800,-0.1598,2.5132,0.9495,1.7304,-5.3064,-8.0630,1.2967,-0.8460,0.4263
2.5900,-0.4286,2.1674,0.5717,1.8229,-5.1945,-8.1154,1.3696,-0.8146,0.3642
2.6000,-0.7648,1.8709,0.0377,1.9100,-5.0783,-8.1687,1.4791,-0.7975,0.3247
2.6100,-1.0690,1.6330,-0.5450,1.9923,-4.9538,-8.2253,1.6066,-0.8244,0.2616
2.6200,-1.1883,1.3553,-1.1380,2.0733,-4.8189,-8.2851,1.7581,-0.7702,0.2315
2.6300,-1.1169,0.7463,-1.3366,2.1512,-4.6720,-8.3491,1.9065,-0.5623,0.2616
2.6400,-0.7929,-0.2262,-0.9206,2.2158,-4.5097,-8.4211,1.9513,-0.2862,0.3054
2.6500,-0.3532,-1.0543,-0.1938,2.2581,-4.3362,-8.5006,1.8169,-0.0692,0.3040
2.6600,0.1251,-1.4046,0.4018,2.2787,-4.1678,-8.5790,1.5471,0.0031,0.2276
2.6700,0.4027,-1.1849,0.7838,2.2860,-4.0219,-8.6467,1.2220,-0.0720,0.1174
2.6800,0.1021,-0.5250,0.7456,2.2921,-3.9067,-8.6978,1.0841,-0.1013,0.0832
2.6900,-0.6489,0.2154,0.2452,2.3025,-3.8139,-8.7362,1.1183,-0.0543,0.0794
2.7000,-1.1893,0.7111,-0.5090,2.3098,-3.7206,-8.7744,1.2275,0.0695,0.0928
2.7100,-1.3406,0.8602,-1.2073,2.3079,-3.6183,-8.8175,1.3712,0.2595,0.1307
2.7200,-1.0538,0.6722,-1.7537,2.2900,-3.5021,-8.8689,1.5056,0.4362,0.1761
2.7300,-0.4094,0.1970,-2.1077,2.2553,-3.3709,-8.9283,1.6001,0.5466,0.2366
2.7400,0.2937,-0.4075,-2.1547,2.2115,-3.2269,-8.9922,1.6304,0.5590,0.3015
2.7500,0.9063,-0.9895,-1.9241,2.1670,-3.0750,-9.0560,1.5787,0.4623,0.3431
2.7600,1.2988,-1.3703,-1.6137,2.1305,-2.9225,-9.1151,1.4622,0.2921,0.3321
2.7700,1.4667,-1.4466,-1.4642,2.1078,-2.7775,-9.1656,1.3372,0.1477,0.2812
2.7800,1.4527,-1.3768,-1.4196,2.0987,-2.6447,-9.2069,1.2283,0.0455,0.2072
2.7900,1.1320,-1.1781,-1.5729,2.0978,-2.5233,-9.2412,1.1882,-0.0341,0.1445
2.8000,0.7720,-1.0404,-1.6762,2.1027,-2.4097,-9.2704,1.1967,-0.0814,0.1189
2.8100,0.5487,-1.0562,-1.5316,2.1121,-2.2965,-9.2969,1.1992,-0.1168,0.1394
2.8200,0.2967,-0.9743,-1.4423,2.1247,-2.1820,-9.3216,1.1930,-0.1989,0.1541
2.8300,0.0251,-0.7907,-1.4427,2.1432,-2.0672,-9.3435,1.2002,-0.2526,0.1655
2.8400,-0.0846,-0.6426,-1.3737,2.1692,-1.9519,-9.3622,1.2110,-0.2257,0.2044
2.8500,-0.0488,-0.4789,-1.2971,2.1956,-1.8346,-9.3798,1.2140,-0.1624,0.2526
2.8600,0.0725,-0.3356,-1.2038,2.2171,-1.7154,-9.3973,1.2034,-0.0926,0.2879
2.8700,0.2469,-0.2049,-1.0714,2.2327,-1.5956,-9.4147,1.1619,-0.0388,0.3033
2.8800,0.3434,-0.0187,-1.0752,2.2424,-1.4776,-9.4316,1.0998,-0.0417,0.2826
2.8900,0.3991,0.1553,-1.2970,2.2497,-1.3651,-9.4468,1.0534,-0.0706,0.2480
2.9000,0.4722,0.1445,-1.5087,2.2588,-1.2586,-9.4595,1.0183,-0.0423,0.2602
2.9100,0.5224,-0.0448,-1.6876,2.2676,-1.1555,-9.4705,0.9752,-0.0113,0.2752
2.9200,0.6088,-0.2710,-1.9531,2.2723,-1.0554,-9.4811,0.9222,-0.0250,0.2480
2.9300,0.8002,-0.5729,-2.1307,2.2764,-0.9602,-9.4902,0.8719,-0.0470,0.2176
2.9400,0.9443,-0.8603,-2.0748,2.2823,-0.8708,-9.4974,0.8300,-0.0547,0.2040
2.9500,0.9718,-1.0273,-1.9518,2.2891,-0.7859,-9.5032,0.7982,-0.0681,0.1840
2.9600,0.9397,-1.1228,-1.8211,2.2965,-0.7048,-9.5078,0.7677,-0.0810,0.1584
2.9700,0.9184,-1.1185,-1.7538,2.3050,-0.6269,-9.5112,0.7339,-0.0903,0.1364
2.9800,0.9324,-1.0028,-1.6804,2.3141,-0.5527,-9.5136,0.7011,-0.1040,0.1121
2.9900,0.9375,-0.7931,-1.5601,2.3242,-0.4822,-9.5150,0.6815,-0.1268,0.0859
3.0000,0.9426,-0.5709,-1.3850,2.3358,-0.4147,-9.5153,0.6820,-0.1587,0.0616
3.0100,0.9587,-0.4632,-1.2502,2.3501,-0.3484,-9.5145,0.6974,-0.1822,0.0551
3.0200,1.0152,-0.4073,-1.0997,2.3670,-0.2814,-9.5125,0.6942,-0.1860,0.0680
3.0300,1.1624,-0.1720,-0.7313,2.3850,-0.2134,-9.5098,0.6685,-0.1875,0.0826
3.0400,1.1893,-0.0469,-0.5917,2.4028,-0.1470,-9.5065,0.6321,-0.2025,0.0906
3.0500,1.1833,0.0987,-0.5797,2.4215,-0.0836,-9.5025,0.6011,-0.2355,0.0924
3.0600,1.1374,0.2005,-0.6088,2.4427,-0.0233,-9.4975,0.5791,-0.2608,0.0977
3.0700,1.0821,0.2703,-0.6693,2.4669,0.0346,-9.4912,0.5612,-0.2620,0.1032
3.0800,1.0802,0.2842,-0.7512,2.4919,0.0909,-9.4843,0.5461,-0.2534,0.1054
3.0900,1.0967,0.2844,-0.8030,2.5161,0.1457,-9.4772,0.5260,-0.2536,0.1014
3.1000,1.0994,0.3182,-0.7935,2.5398,0.1989,-9.4699,0.5020,-0.2732,0.0910
3.1100,1.0211,0.3992,-0.7551,2.5646,0.2496,-9.4620,0.4763,-0.3102,0.0751
3.1200,0.8592,0.5092,-0.6723,2.5924,0.2976,-9.4531,0.4586,-0.3528,0.0598
3.1300,0.6479,0.6210,-0.5526,2.6242,0.3430,-9.4427,0.4508,-0.4070,0.0417
3.1400,0.4152,0.6960,-0.4192,2.6605,0.3870,-9.4309,0.4500,-0.4432,0.0285
3.1500,0.1915,0.7541,-0.2883,2.7015,0.4302,-9.4173,0.4537,-0.4530,0.0228
3.1600,-0.0205,0.7867,-0.1543,2.7443,0.4734,-9.4029,0.4570,-0.4481,0.0195
3.1700,-0.1868,0.7799,-0.0350,2.7869,0.5170,-9.3880,0.4549,-0.4306,0.0173
3.1800,-0.3014,0.7802,0.0244,2.8281,0.5605,-9.3732,0.4458,-0.3992,0.0150
3.1900,-0.3662,0.7723,0.0196,2.8665,0.6036,-9.3589,0.4317,-0.3607,0.0101
3.2000,-0.4031,0.7612,-0.0481,2.9010,0.6458,-9.3454,0.4148,-0.3235,0.0012
3.2100,-0.4151,0.7513,-0.1500,2.9314,0.6868,-9.3330,0.3951,-0.2866,-0.0088
3.2200,-0.4080,0.7454,-0.2530,2.9578,0.7263,-9.3217,0.3743,-0.2437,-0.0141
3.2300,-0.3624,0.7143,-0.3708,2.9800,0.7637,-9.3116,0.3560,-0.2064,-0.0155
3.2400,-0.2831,0.6587,-0.4395,2.9981,0.7994,-9.3028,0.3348,-0.1868,-0.0170
3.2500,-0.1964,0.6113,-0.4547,3.0136,0.8332,-9.2948,0.3160,-0.1960,-0.0220
3.2600,-0.1360,0.5844,-0.4282,3.0290,0.8648,-9.2869,0.3012,-0.2255,-0.0316
3.2700,-0.1011,0.5730,-0.3658,3.0467,0.8947,-9.2783,0.2855,-0.2610,-0.0422
3.2800,-0.1150,0.5625,-0.2910,3.0679,0.9227,-9.2686,0.2755,-0.2860,-0.0420
3.2900,-0.1334,0.5206,-0.2274,3.0919,0.9494,-9.2579,0.2692,-0.3043,-0.0393
3.3000,-0.1462,0.4745,-0.1685,3.1174,0.9756,-9.2466,0.2598,-0.3208,-0.0389
3.3100,-0.1661,0.4171,-0.1477,3.1445,1.0011,-9.2347,0.2493,-0.3322,-0.0361
3.3200,-0.1798,0.3710,-0.1360,3.1726,1.0256,-9.2224,0.2409,-0.3320,-0.0298
3.3300,-0.1435,0.3019,-0.1397,3.2009,1.0493,-9.2099,0.2356,-0.3231,-0.0229
3.3400,-0.0856,0.2571,-0.1488,3.2284,1.0724,-9.1977,0.2309,-0.3096,-0.0186
3.3500,-0.0026,0.2256,-0.1711,3.2547,1.0952,-9.1857,0.2269,-0.2942,-0.0163
3.3600,0.1040,0.1923,-0.1883,3.2798,1.1173,-9.1741,0.2265,-0.2771,-0.0190
3.3700,0.2111,0.1396,-0.1780,3.3036,1.1389,-9.1629,0.2273,-0.2699,-0.0251
3.3800,0.3037,0.1001,-0.1826,3.3268,1.1601,-9.1519,0.2262,-0.2714,-0.0351
3.3900,0.3654,0.0998,-0.1817,3.3496,1.1811,-9.1409,0.2232,-0.2720,-0.0463
3.4000,0.4049,0.1019,-0.1494,3.3716,1.2021,-9.1300,0.2175,-0.2661,-0.0552
3.4100,0.3997,0.1114,-0.1200,3.3951,1.2214,-9.1187,0.2116,-0.2506,-0.0587
3.4200,0.3754,0.1453,-0.0929,3.4186,1.2393,-9.1075,0.2049,-0.2284,-0.0591
3.4300,0.3581,0.1729,-0.0876,3.4407,1.2564,-9.0969,0.1967,-0.2037,-0.0583
3.4400,0.3373,0.2212,-0.0815,3.4607,1.2727,-9.0870,0.1845,-0.1791,-0.0571
3.4500,0.3378,0.2632,-0.0586,3.4786,1.2882,-9.0780,0.1717,-0.1506,-0.0538
3.4600,0.3556,0.3052,-0.0595,3.4943,1.3029,-9.0699,0.1611,-0.1148,-0.0426
3.4700,0.3865,0.3205,-0.0403,3.5073,1.3172,-9.0628,0.1497,-0.0751,-0.0243
3.4800,0.4052,0.3227,-0.0072,3.5173,1.3317,-9.0568,0.1424,-0.0543,-0.0090
3.4900,0.4530,0.2814,0.0362,3.5253,1.3467,-9.0515,0.1354,-0.0523,0.0006
3.5000,0.4859,0.2419,0.0672,3.5340,1.3622,-9.0458,0.1263,-0.0628,0.0069
3.5100,0.4839,0.2097,0.1085,3.5448,1.3776,-9.0392,0.1132,-0.0808,0.0128
3.5200,0.4915,0.1589,0.2205,3.5587,1.3925,-9.0314,0.0965,-0.1048,0.0103
3.5300,0.4513,0.1523,0.2751,3.5765,1.4063,-9.0223,0.0768,-0.1164,0.0101
3.5400,0.3465,0.1760,0.3071,3.5976,1.4185,-9.0119,0.0605,-0.1109,0.0103
3.5500,0.2578,0.2025,0.3071,3.6192,1.4295,-9.0015,0.0505,-0.0928,0.0099
3.5600,0.1715,0.2384,0.2614,3.6393,1.4399,-8.9918,0.0442,-0.0704,0.0059
3.5700,0.0994,0.2754,0.1951,3.6539,1.4484,-8.9845,0.0436,-0.0449,0.0002
3.5800,0.0937,0.2798,0.0990,3.6604,1.4536,-8.9810,0.0450,-0.0213,-0.0017
3.5900,0.1383,0.2586,-0.0057,3.6645,1.4588,-8.9785,0.0405,-0.0018,-0.0005
3.6000,0.1841,0.2231,-0.0824,3.6666,1.4640,-8.9768,0.0324,0.0011,-0.0015
3.6100,0.2167,0.1732,-0.1154,3.6675,1.4684,-8.9757,0.0247,-0.0013,-0.0027
3.6200,0.2067,0.1307,-0.1212,3.6687,1.4718,-8.9747,0.0124,-0.0030,0.0012
3.6300,0.2088,0.0756,-0.0894,3.6698,1.4743,-8.9738,-0.0010,-0.0064,0.0097
3.6400,0.2203,0.0399,-0.0781,3.6710,1.4756,-8.9731,-0.0175,-0.0172,0.0150
3.6500,0.1506,0.0288,-0.0514,3.6737,1.4764,-8.9719,-0.0313,-0.0260,0.0148
3.6600,0.0783,0.0131,-0.0017,3.6790,1.4769,-8.9696,-0.0360,-0.0219,0.0150
3.6700,0.0689,0.0235,0.0436,3.6836,1.4761,-8.9678,-0.0381,-0.0164,0.0085
3.6800,0.0365,0.0584,0.0870,3.6873,1.4747,-8.9666,-0.0348,-0.0066,-0.0011
3.6900,0.0265,0.0610,0.0566,3.6901,1.4729,-8.9657,-0.0266,0.0090,-0.0074
3.7000,0.0419,0.0816,-0.0291,3.6915,1.4714,-8.9654,-0.0183,0.0241,-0.0106
3.7100,0.0406,0.1065,-0.1262,3.6912,1.4705,-8.9656,-0.0124,0.0292,-0.0119
3.7200,0.0228,0.1093,-0.2165,3.6898,1.4700,-8.9663,-0.0067,0.0253,-0.0096
3.7300,0.0445,0.0967,-0.2829,3.6881,1.4699,-8.9670,-0.0018,0.0180,-0.0068
3.7400,0.0642,0.0638,-0.3150,3.6867,1.4701,-8.9676,-0.0008,0.0137,-0.0047
3.7500,0.0789,0.0411,-0.3163,3.6856,1.4704,-8.9680,-0.0034,0.0109,-0.0009
3.7600,0.0942,0.0339,-0.2792,3.6847,1.4705,-8.9683,-0.0063,0.0086,0.0008
3.7700,0.0982,0.0246,-0.2261,3.6839,1.4702,-8.9687,-0.0055,0.0076,0.0024
3.7800,0.0877,0.0050,-0.1460,3.6832,1.4699,-8.9691,-0.0043,0.0090,0.0028
3.7900,0.0781,-0.0252,-0.0834,3.6824,1.4697,-8.9694,-0.0040,0.0131,0.0030
3.8000,0.0743,-0.0257,-0.0255,3.6814,1.4694,-8.9699,-0.0045,0.0180,0.0057
3.8100,0.0678,-0.0503,-0.0160,3.6799,1.4692,-8.9705,-0.0034,0.0233,0.0073
3.8200,0.0609,-0.0725,-0.0424,3.6780,1.4691,-8.9713,-0.0065,0.0210,0.0067
3.8300,0.0422,-0.0755,-0.0774,3.6760,1.4689,-8.9721,-0.0132,0.0153,0.0083
3.8400,0.0229,-0.0755,-0.1358,3.6746,1.4681,-8.9729,-0.0205,0.0111,0.0142
3.8500,0.0232,-0.0781,-0.1646,3.6734,1.4667,-8.9736,-0.0258,0.0107,0.0215
3.8600,0.0359,-0.0748,-0.1783,3.6721,1.4646,-8.9744,-0.0245,0.0120,0.0206
3.8700,0.0432,-0.0679,-0.1844,3.6714,1.4637,-8.9749,-0.0231,0.0124,0.0189
3.8800,0.0645,-0.0471,-0.1893,3.6697,1.4613,-8.9760,-0.0177,0.0141,0.0128
3.8900,0.0802,-0.0335,-0.1590,3.6683,1.4597,-8.9768,-0.0132,0.0143,0.0073
3.9000,0.0815,-0.0409,-0.1087,3.6670,1.4582,-8.9776,-0.0095,0.0088,0.0032
3.9100,0.0792,-0.0553,-0.0618,3.6661,1.4567,-8.9782,-0.0087,0.0001,0.0008
3.9200,0.0784,-0.0474,-0.0368,3.6661,1.4552,-8.9784,-0.0106,-0.0042,0.0030
3.9300,0.0697,-0.0259,-0.0281,3.6668,1.4536,-8.9784,-0.0142,-0.0016,0.0105
3.9400,0.0971,-0.0203,-0.0472,3.6674,1.4520,-8.9784,-0.0201,-0.0060,0.0128
3.9500,0.1196,-0.0209,-0.0600,3.6680,1.4503,-8.9785,-0.0244,-0.0119,0.0111
3.9600,0.1070,-0.0266,-0.0857,3.6694,1.4480,-8.9783,-0.0287,-0.0162,0.0077
3.9700,0.1036,0.0024,-0.1052,3.6713,1.4453,-8.9779,-0.0287,-0.0189,0.0059
3.9800,0.0830,0.0148,-0.1335,3.6735,1.4424,-8.9775,-0.0234,-0.0182,0.0040
3.9900,0.0698,-0.0131,-0.1731,3.6755,1.4400,-8.9770,-0.0179,-0.0132,0.0016
4.0000,0.0618,0.0024,-0.1870,3.6772,1.4381,-8.9767,-0.0122,-0.0068,-0.0013
4.0100,0.0767,0.0079,-0.1792,3.6782,1.4366,-8.9765,-0.0073,-0.0036,-0.0051
4.0200,0.0849,0.0050,-0.1737,3.6788,1.4355,-8.9764,-0.0047,-0.0009,-0.0098
4.0300,0.0933,0.0131,-0.1586,3.6792,1.4346,-8.9764,-0.0024,0.0041,-0.0119
4.0400,0.0948,0.0060,-0.1545,3.6793,1.4337,-8.9765,0.0012,0.0115,-0.0121
4.0500,0.0681,-0.0110,-0.1590,3.6788,1.4331,-8.9768,0.0035,0.0149,-0.0129
4.0600,0.0435,-0.0202,-0.1442,3.6778,1.4328,-8.9772,0.0043,0.0162,-0.0141
4.0700,0.0534,-0.0159,-0.1101,3.6767,1.4325,-8.9777,0.0029,0.0158,-0.0145
4.0800,0.0649,-0.0099,-0.0649,3.6756,1.4321,-8.9783,0.0008,0.0153,-0.0149
4.0900,0.0803,-0.0157,-0.0397,3.6746,1.4315,-8.9788,-0.0026,0.0145,-0.0163
4.1000,0.0939,-0.0204,-0.0360,3.6737,1.4306,-8.9793,-0.0036,0.0137,-0.0170
4.1100,0.1009,-0.0192,-0.0563,3.6731,1.4294,-8.9797,-0.0034,0.0111,-0.0194
4.1200,0.0797,-0.0035,-0.0759,3.6728,1.4281,-8.9801,-0.0030,0.0082,-0.0206
4.1300,0.0582,0.0106,-0.1076,3.6728,1.4268,-8.9803,-0.0020,0.0058,-0.0210
4.1400,0.0421,0.0197,-0.1410,3.6729,1.4256,-8.9804,-0.0008,0.0062,-0.0196
4.1500,0.0325,0.0446,-0.1776,3.6729,1.4246,-8.9806,0.0004,0.0056,-0.0176
4.1600,0.0471,0.0845,-0.2061,3.6727,1.4239,-8.9807,0.0021,0.0021,-0.0157
4.1700,0.0519,0.0793,-0.2052,3.6727,1.4234,-8.9808,0.0031,-0.0009,-0.0123
4.1800,0.0549,0.0732,-0.1941,3.6729,1.4232,-8.9808,0.0021,-0.0050,-0.0088
4.1900,0.0624,0.0669,-0.1520,3.6733,1.4231,-8.9806,0.0002,-0.0119,-0.0058
4.2000,0.0838,0.0669,-0.0965,3.6743,1.4230,-8.9803,-0.0024,-0.0195,-0.0023
4.2100,0.0878,0.0487,-0.0704,3.6759,1.4229,-8.9796,-0.0051,-0.0231,0.0042
4.2200,0.0642,0.0321,-0.0485,3.6779,1.4228,-8.9788,-0.0071,-0.0233,0.0126
4.2300,0.0439,0.0072,-0.0366,3.6803,1.4228,-8.9778,-0.0074,-0.0201,0.0176
4.2400,0.0394,-0.0066,-0.0394,3.6812,1.4228,-8.9774,-0.0073,-0.0186,0.0186
4.2500,0.0322,-0.0342,-0.0460,3.6836,1.4229,-8.9765,-0.0063,-0.0158,0.0144
4.2600,0.0453,-0.0383,-0.0449,3.6848,1.4229,-8.9759,-0.0055,-0.0087,0.0105
4.2700,0.0635,-0.0398,-0.0437,3.6858,1.4228,-8.9756,-0.0045,0.0031,0.0083
4.2800,-0.0730,-0.0651,-0.0541,3.6858,1.4226,-8.9756,-0.0053,0.0135,0.0091
4.2900,-0.5204,-0.1071,-0.0001,3.6847,1.4223,-8.9761,0.0080,0.1636,0.1264
4.3000,-0.4473,-0.0470,0.0316,3.6747,1.4245,-8.9798,0.0316,0.2151,0.1415
4.3100,0.4171,-0.0330,-0.1338,3.6507,1.4321,-8.9884,0.0184,0.1451,0.0466
4.3200,0.6622,0.0774,-0.2100,3.6338,1.4373,-8.9944,-0.0087,0.1041,-0.0206
4.3300,1.0575,0.1707,-0.3318,3.6255,1.4366,-8.9979,-0.0185,0.0357,-0.0713
