time,seconds_elapsed,z,y,x
1759335735819594200,0.07659423828125,0.1284961700439453,-0.006406307220458984,0.026219278573989868
1759335735829593900,0.08659375,-0.13883113861083984,-0.002565145492553711,-0.14656242728233337
1759335735859593700,0.11659375,-0.009469985961914062,-0.002961874008178711,-0.11181607842445374
1759335735869593900,0.12659375,-0.15708541870117188,-0.0446014404296875,0.05067369341850281
1759335735879593700,0.13659375,-0.07201194763183594,-0.04610180854797363,0.07681708037853241
1759335735889593900,0.14659375,0.05777263641357422,0.0034453868865966797,0.09913630783557892
1759335735899594800,0.1565947265625,-0.023586273193359375,-0.010023832321166992,0.14577221870422363
1759335735909594600,0.1665947265625,-0.14621829986572266,-0.07655930519104004,0.16013717651367188
1759335735919594800,0.1765947265625,-0.13482952117919922,-0.08113908767700195,0.06212152540683746
1759335735929594600,0.1865947265625,-0.2284717559814453,-0.09696316719055176,-0.017783135175704956
1759335735939594800,0.1965947265625,-0.32427501678466797,-0.0827031135559082,-0.06809952855110168
1759335735949594600,0.2065947265625,-0.24972820281982422,-0.08435988426208496,-0.1391884684562683
1759335735959594800,0.2165947265625,-0.12275314331054688,-0.09202384948730469,-0.10660834610462189
1759335735969594600,0.2265947265625,-0.02252483367919922,-0.08329319953918457,-0.027277708053588867
1759335735979594800,0.2365947265625,-0.006569862365722656,-0.11298274993896484,0.08000124990940094
1759335735989594600,0.2465947265625,-0.0011205673217773438,-0.09058737754821777,0.12868162989616394
1759335735999594000,0.256593994140625,0.07826805114746094,-0.10764837265014648,0.08375594019889832
1759335736009593900,0.26659375,0.08575153350830078,-0.1172792911529541,0.04252353310585022
1759335736019593700,0.27659375,0.04053974151611328,-0.10535454750061035,0.02887365221977234
1759335736029593900,0.28659375,0.00829315185546875,-0.1387348175048828,0.04824206233024597
1759335736039593700,0.29659375,0.043524742126464844,-0.03775429725646973,0.01721009612083435
1759335736049593900,0.30659375,0.1341724395751953,0.0519099235534668,-0.06889939308166504
1759335736059593700,0.31659375,0.1459970474243164,0.052228689193725586,-0.05689805746078491
1759335736069593900,0.32659375,0.04985809326171875,0.0011966228485107422,-0.005028396844863892
1759335736079593700,0.33659375,0.03258800506591797,-0.03467965126037598,0.023593127727508545
1759335736089593900,0.34659375,0.05812358856201172,-0.06205940246582031,0.008407920598983765
1759335736099594800,0.3565947265625,-0.010120391845703125,-0.04448366165161133,0.06857874989509583
1759335736109594600,0.3665947265625,-0.07569694519042969,-0.018449068069458008,0.08084675669670105
1759335736119595500,0.376595458984375,0.08154582977294922,-0.03626298904418945,0.002921372652053833
1759335736129596000,0.386595947265625,0.07168006896972656,-0.09931540489196777,0.043176859617233276
1759335736139595800,0.396595703125,-0.02350139617919922,-0.08452606201171875,0.1399816870689392
1759335736149596000,0.406595947265625,-0.18300724029541016,-0.013571023941040039,0.1694832742214203
1759335736159595800,0.416595703125,-0.20785140991210938,0.06894540786743164,0.07237133383750916
1759335736169596000,0.426595947265625,-0.28537940979003906,0.07452678680419922,0.04987829923629761
1759335736179595800,0.436595703125,-0.33917999267578125,0.04012703895568848,0.03609892725944519
1759335736189596000,0.446595947265625,-0.17065048217773438,-0.0004477500915527344,-0.05381762981414795
1759335736199595000,0.456594970703125,0.008910179138183594,-0.02043747901916504,-0.1429334580898285
1759335736209595100,0.46659521484375,0.12288951873779297,-0.017104148864746094,-0.059279099106788635
1759335736219595000,0.476594970703125,0.09496402740478516,-0.08250784873962402,0.09072187542915344
1759335736229595000,0.486594970703125,0.12874412536621094,-0.06151628494262695,0.11621761322021484
1759335736239595000,0.496594970703125,0.1767406463623047,-0.04955029487609863,0.06598296761512756
1759335736249595000,0.506594970703125,0.20338153839111328,-0.03379559516906738,0.0008347928524017334
1759335736259595000,0.516594970703125,0.24724864959716797,0.005968332290649414,-0.006153285503387451
1759335736269595000,0.526594970703125,0.20047378540039062,0.02496504783630371,-0.006677687168121338
1759335736279595000,0.536594970703125,0.18261337280273438,0.0360417366027832,-0.02405908703804016
1759335736289595000,0.546594970703125,0.18892383575439453,0.04860281944274902,-0.029820933938026428
1759335736299595800,0.556595703125,0.0997161865234375,0.005183696746826172,-0.0008049905300140381
1759335736309596000,0.566595947265625,0.037110328674316406,-0.0486910343170166,-0.0170411616563797
1759335736319596000,0.576595947265625,-0.008358001708984375,-0.013009786605834961,-0.015815123915672302
1759335736329596000,0.586595947265625,-0.07247638702392578,0.0063054561614990234,-0.015873506665229797
1759335736339596000,0.596595947265625,-0.12426948547363281,0.02422332763671875,-0.04085990786552429
1759335736349596000,0.606595947265625,-0.1829824447631836,0.0913550853729248,0.017609715461730957
1759335736359596000,0.616595947265625,-0.21558570861816406,0.11405062675476074,0.03464025259017944
1759335736369596000,0.626595947265625,-0.2222585678100586,0.09532833099365234,0.0017609596252441406
1759335736379596000,0.636595947265625,-0.22234439849853516,0.07197880744934082,-0.007434040307998657
1759335736389596000,0.646595947265625,-0.20133209228515625,0.04102659225463867,0.00200653076171875
1759335736399595000,0.656594970703125,-0.09450912475585938,0.033289194107055664,-0.008192092180252075
1759335736409595100,0.66659521484375,-0.009457588195800781,0.03617215156555176,-0.006992429494857788
1759335736419595000,0.676594970703125,0.03963947296142578,0.039339542388916016,-0.006545841693878174
1759335736429595100,0.68659521484375,0.09615612030029297,0.02478504180908203,0.012820810079574585
1759335736439595000,0.696594970703125,0.12420463562011719,0.04255843162536621,0.09033730626106262
1759335736449595100,0.70659521484375,0.16927528381347656,0.04236960411071777,0.08233162760734558
1759335736459595000,0.716594970703125,0.15204238891601562,0.018404722213745117,0.09881675243377686
1759335736469595100,0.72659521484375,0.14470195770263672,-0.03107166290283203,0.0907047688961029
1759335736479595000,0.736594970703125,0.25696849822998047,-0.054125070571899414,0.05178111791610718
1759335736489595100,0.74659521484375,0.2877311706542969,-0.08155632019042969,0.03466150164604187
1759335736499595800,0.756595703125,0.20821571350097656,-0.06500530242919922,0.10883286595344543
1759335736509596000,0.766595947265625,0.19810867309570312,0.0045740604400634766,0.15949726104736328
1759335736519596000,0.776595947265625,0.12342071533203125,-0.012295961380004883,0.17182430624961853
1759335736529596000,0.786595947265625,0.04660224914550781,-0.03281450271606445,0.16590043902397156
1759335736539595800,0.796595703125,-0.08954429626464844,-0.02947235107421875,0.16149362921714783
1759335736549596000,0.806595947265625,-0.19652938842773438,-0.04492807388305664,0.08189317584037781
1759335736559595500,0.816595458984375,-0.23637771606445312,-0.08491873741149902,-0.032244980335235596
1759335736569595600,0.826595703125,-0.17548370361328125,-0.0659942626953125,-0.10689224302768707
1759335736579595500,0.836595458984375,-0.09327983856201172,-0.04601788520812988,-0.07866229116916656
1759335736589595600,0.846595703125,-0.00695037841796875,-0.027791261672973633,-0.01125401258468628
1759335736599594800,0.8565947265625,0.08561420440673828,-0.021895170211791992,0.05069032311439514
1759335736609594600,0.8665947265625,0.16790390014648438,0.027920961380004883,0.0965707004070282
1759335736619594800,0.8765947265625,0.13014888763427734,0.009873390197753906,0.11764898896217346
1759335736629594600,0.8865947265625,0.03257560729980469,-0.024991750717163086,0.12151342630386353
1759335736639594800,0.8965947265625,-0.038138389587402344,-0.06931400299072266,0.09214228391647339
1759335736649594600,0.9065947265625,-0.13190364837646484,-0.0961921215057373,0.04310721158981323
1759335736659594800,0.9165947265625,-0.27269935607910156,-0.09825468063354492,0.017130941152572632
1759335736669594600,0.9265947265625,-0.31441593170166016,-0.07095527648925781,-0.06960156559944153
1759335736679594800,0.9365947265625,-0.22624683380126953,-0.058303117752075195,-0.1602926254272461
1759335736689594600,0.9465947265625,-0.1884174346923828,-0.02357769012451172,-0.08753356337547302
1759335736699595500,0.956595458984375,-0.15357017517089844,0.016547679901123047,0.017530709505081177
1759335736709595600,0.966595703125,-0.06060791015625,0.07898712158203125,0.0757705569267273
1759335736719595500,0.976595458984375,0.04535198211669922,0.07079100608825684,0.11671662330627441
1759335736729595600,0.986595703125,0.21021556854248047,0.0019459724426269531,0.0799974799156189
1759335736739595500,0.996595458984375,0.29552364349365234,-0.04803967475891113,0.0794820785522461
1759335736749595600,1.006595703125,0.24433517456054688,-0.021497726440429688,0.07404416799545288
1759335736759595500,1.016595458984375,0.17692089080810547,-0.01659107208251953,0.0749589204788208
1759335736769595600,1.026595703125,0.05552959442138672,-0.040409088134765625,0.016101717948913574
1759335736779595500,1.036595458984375,-0.019110679626464844,-0.045867919921875,-0.0020192861557006836
1759335736789595600,1.046595703125,-0.07838058471679688,-0.012747526168823242,0.0017373859882354736
1759335736799594800,1.0565947265625,-0.08180427551269531,0.04806828498840332,-0.04964819550514221
1759335736809594600,1.0665947265625,-0.08005046844482422,0.13112092018127441,-0.045885682106018066
1759335736819594800,1.0765947265625,-0.061545372009277344,0.16405558586120605,0.00503954291343689
1759335736829594600,1.0865947265625,0.013651847839355469,0.1934504508972168,0.07089844346046448
1759335736839594800,1.0965947265625,0.06905841827392578,0.17308545112609863,0.09284716844558716
1759335736849594600,1.1065947265625,0.08325004577636719,0.1526784896850586,0.14753004908561707
1759335736859595000,1.116594970703125,0.0565185546875,0.1165013313293457,0.14946869015693665
1759335736869595000,1.126594970703125,0.09448432922363281,0.07758903503417969,0.09950539469718933
1759335736879595000,1.136594970703125,0.13742828369140625,0.07589864730834961,0.10401329398155212
1759335736889595000,1.146594970703125,0.14716529846191406,0.06302070617675781,0.11023879051208496
1759335736899595800,1.156595703125,0.2312488555908203,0.04234743118286133,0.03552475571632385
1759335736909596000,1.166595947265625,0.3894987106323242,0.019478559494018555,0.08558785915374756
1759335736919595800,1.176595703125,0.4015016555786133,-0.023897409439086914,0.1320696473121643
1759335736929596000,1.186595947265625,0.36295223236083984,-0.015503883361816406,0.20760026574134827
1759335736939595500,1.196595458984375,0.2669200897216797,0.012137413024902344,0.17299625277519226
1759335736949595600,1.206595703125,0.24292659759521484,0.00032520294189453125,0.14478722214698792
1759335736959595500,1.216595458984375,0.13070011138916016,-0.018151283264160156,0.12131303548812866
1759335736969595600,1.226595703125,-0.02657794952392578,-0.07713985443115234,0.0353563129901886
1759335736979595500,1.236595458984375,-0.0254974365234375,-0.08271384239196777,0.04174309968948364
1759335736989595600,1.246595703125,-0.2682809829711914,0.0011746883392333984,-0.09034350514411926
1759335736999594800,1.2565947265625,-0.3526163101196289,0.006768703460693359,-0.10381324589252472
1759335737009594600,1.2665947265625,-0.30988311767578125,0.021504878997802734,-0.14108560979366302
1759335737019594800,1.2765947265625,-0.2600688934326172,0.013183832168579102,-0.1409579962491989
1759335737029594600,1.2865947265625,-0.17712783813476562,-0.004855155944824219,-0.06384757161140442
1759335737039594800,1.2965947265625,-0.14741897583007812,-0.0008971691131591797,0.10089689493179321
1759335737049594600,1.3065947265625,-0.1137237548828125,-0.019637346267700195,0.16369828581809998
1759335737059594800,1.3165947265625,-0.08336639404296875,-0.06344842910766602,0.15058505535125732
1759335737069594600,1.3265947265625,-0.03167533874511719,-0.14987897872924805,0.10737273097038269
1759335737079594800,1.3365947265625,0.058490753173828125,-0.15848064422607422,0.07238414883613586
1759335737089594600,1.3465947265625,0.005276679992675781,-0.17322063446044922,0.031589895486831665
1759335737099595500,1.356595458984375,-0.044999122619628906,-0.12081575393676758,-0.028764277696609497
1759335737109595600,1.366595703125,-0.0658426284790039,-0.06888842582702637,0.010380864143371582
1759335737119595500,1.376595458984375,-0.009772300720214844,-0.08505773544311523,-0.004794090986251831
1759335737129595600,1.386595703125,0.06307792663574219,-0.07480812072753906,0.03621959686279297
1759335737139595500,1.396595458984375,-0.0034284591674804688,-0.04775071144104004,0.09162566065788269
1759335737149595600,1.406595703125,-0.04906654357910156,-0.0509953498840332,0.11615890264511108
1759335737159595500,1.416595458984375,-0.04990386962890625,-0.04641604423522949,0.1090863049030304
1759335737169595600,1.426595703125,0.12317943572998047,-0.05054473876953125,0.07884716987609863
1759335737179595500,1.436595458984375,0.1429576873779297,-0.05700516700744629,0.08656767010688782
1759335737189595600,1.446595703125,0.06461524963378906,0.003217935562133789,0.11244520545005798
1759335737199594800,1.4565947265625,0.001071929931640625,0.027798891067504883,0.10896939039230347
1759335737209594600,1.4665947265625,-0.05941200256347656,0.034883975982666016,0.05451864004135132
1759335737219594800,1.4765947265625,-0.09058475494384766,0.06331825256347656,-0.03777986764907837
1759335737229594600,1.4865947265625,-0.14290714263916016,0.06134796142578125,-0.1399908810853958
1759335737239595000,1.496594970703125,-0.2405223846435547,0.06367826461791992,-0.12743183970451355
1759335737249595000,1.506594970703125,-0.21129322052001953,0.05000948905944824,-0.13312003016471863
1759335737259595000,1.516594970703125,-0.1104736328125,0.04954934120178223,-0.07079342007637024
1759335737269595000,1.526594970703125,-0.04854106903076172,0.025261878967285156,-0.08737011253833771
1759335737279582500,1.53658251953125,0.038969993591308594,0.023374080657958984,-0.050841569900512695
1759335737289582300,1.546582275390625,0.0758371353149414,0.011058807373046875,-0.04257586598396301
1759335737299583200,1.556583251953125,0.11981391906738281,0.00868535041809082,-0.0368121862411499
1759335737309583400,1.566583251953125,0.1879110336303711,0.015157938003540039,-0.05991217494010925
1759335737319583200,1.576583251953125,0.2132406234741211,0.03460955619812012,-0.023353487253189087
1759335737329583400,1.586583251953125,0.1837615966796875,0.012180089950561523,0.006402492523193359
1759335737339583200,1.596583251953125,0.22165489196777344,-0.014421463012695312,-0.026604026556015015
1759335737349583400,1.606583251953125,0.19516372680664062,-0.008875370025634766,-0.041401684284210205
1759335737359583500,1.61658349609375,0.19530582427978516,-0.009495258331298828,-0.04145976901054382
1759335737369583400,1.626583251953125,0.1094970703125,0.07971549034118652,-0.05533215403556824
1759335737379583500,1.63658349609375,0.0644989013671875,0.08221817016601562,-0.05223393440246582
1759335737389583400,1.646583251953125,0.03405189514160156,0.10787487030029297,-0.09478503465652466
1759335737399582500,1.65658251953125,-0.02730560302734375,0.11812162399291992,-0.08638107776641846
1759335737409582600,1.66658251953125,-0.06219768524169922,0.10135459899902344,-0.09403851628303528
1759335737419582500,1.67658251953125,-0.03484630584716797,0.10132908821105957,-0.12043915688991547
1759335737429582600,1.68658251953125,-0.06995296478271484,0.08798670768737793,-0.11891026794910431
1759335737439582500,1.69658251953125,-0.009518623352050781,0.047071218490600586,-0.07528665661811829
1759335737449582600,1.70658251953125,0.031485557556152344,-0.004369974136352539,0.007479816675186157
1759335737459582500,1.71658251953125,0.05075645446777344,-0.02356719970703125,0.08828786015510559
1759335737469582600,1.72658251953125,0.18965435028076172,-0.03049755096435547,0.10249847173690796
1759335737479582500,1.73658251953125,0.26877880096435547,-0.02131962776184082,0.15212202072143555
1759335737489582600,1.74658251953125,0.26937007904052734,-0.02401447296142578,0.15284764766693115
1759335737499583500,1.75658349609375,0.004825592041015625,0.04677557945251465,0.21621358394622803
1759335737509583400,1.766583251953125,-0.0795755386352539,0.0352325439453125,0.1199028491973877
1759335737519583500,1.77658349609375,-0.17523193359375,0.024054527282714844,-0.038447409868240356
1759335737529583400,1.786583251953125,-0.31645965576171875,0.041994571685791016,-0.14733773469924927
1759335737539583500,1.79658349609375,-0.38381481170654297,0.059488534927368164,-0.255473792552948
1759335737549583400,1.806583251953125,-0.35150146484375,0.026247501373291016,-0.3093785047531128
1759335737559583500,1.81658349609375,-0.35129261016845703,0.024215221405029297,-0.29928624629974365
1759335737569583400,1.826583251953125,0.1584644317626953,-0.09029507637023926,-0.1681765615940094
1759335737579583500,1.83658349609375,0.08383941650390625,-0.023436784744262695,0.1074661910533905
1759335737589583400,1.846583251953125,0.03604316711425781,0.04216432571411133,0.28738492727279663
1759335737599582500,1.85658251953125,0.07310676574707031,0.04098796844482422,0.18304547667503357
1759335737609582600,1.86658251953125,0.13281726837158203,0.06590962409973145,0.05124989151954651
1759335737619582500,1.87658251953125,-0.01956939697265625,0.03380775451660156,0.04610234498977661
1759335737629582600,1.88658251953125,-0.09737777709960938,0.0340571403503418,-0.01360061764717102
1759335737639582500,1.89658251953125,-0.020363807678222656,0.054527997970581055,-0.08787953853607178
1759335737649582600,1.90658251953125,-0.02582550048828125,0.10344362258911133,0.01257312297821045
1759335737659582500,1.91658251953125,-0.05657672882080078,-0.02139139175415039,0.03482505679130554
1759335737669582600,1.92658251953125,-0.04304981231689453,-0.0742957592010498,0.01496356725692749
1759335737679582500,1.93658251953125,-0.06350231170654297,-0.032186031341552734,-0.024262964725494385
1759335737689582600,1.94658251953125,-0.14889049530029297,-0.0512540340423584,-0.00007301568984985352
1759335737699583200,1.956583251953125,-0.17685794830322266,-0.09421420097351074,-0.061057448387145996
1759335737709583400,1.966583251953125,-0.11834049224853516,-0.09307289123535156,-0.11119656264781952
1759335737719583500,1.97658349609375,-0.055029869079589844,-0.07263612747192383,-0.18141384422779083
1759335737729583400,1.986583251953125,0.05399322509765625,-0.08884835243225098,-0.18099139630794525
1759335737739583500,1.99658349609375,0.09128093719482422,-0.0670480728149414,-0.1115943193435669
1759335737749583400,2.006583251953125,0.09058761596679688,-0.03693747520446777,-0.06667712330818176
1759335737759583500,2.01658349609375,0.0756521224975586,0.02603936195373535,-0.03521689772605896
1759335737769583400,2.026583251953125,0.022495269775390625,0.04780149459838867,-0.02666008472442627
1759335737779583500,2.03658349609375,-0.028285980224609375,0.07903766632080078,-0.04091969132423401
1759335737789583400,2.046583251953125,-0.07208633422851562,0.0655217170715332,-0.04483562707901001
1759335737799582500,2.05658251953125,-0.07786178588867188,0.04343461990356445,-0.04515886306762695
1759335737809582600,2.06658251953125,-0.050492286682128906,-0.00823831558227539,-0.06421929597854614
1759335737819582500,2.07658251953125,-0.06885814666748047,-0.029978036880493164,-0.0649273693561554
1759335737829582600,2.08658251953125,0.0060405731201171875,-0.015153169631958008,-0.04265183210372925
1759335737839582500,2.09658251953125,0.00423431396484375,-0.007049083709716797,-0.044589489698410034
1759335737849582600,2.10658251953125,0.03838348388671875,0.020222902297973633,0.05788961052894592
1759335737859582500,2.11658251953125,0.11561965942382812,0.021023988723754883,0.06576269865036011
1759335737869582600,2.12658251953125,0.18095684051513672,0.011524200439453125,0.06183171272277832
1759335737879582500,2.13658251953125,0.24884033203125,-0.0013611316680908203,0.024019330739974976
1759335737889582600,2.14658251953125,0.26909542083740234,-0.04883885383605957,0.05788779258728027
1759335737899583500,2.15658349609375,0.24658870697021484,-0.07833337783813477,0.12125468254089355
1759335737909583400,2.166583251953125,0.12862586975097656,-0.11859965324401855,0.14768549799919128
1759335737919583500,2.17658349609375,0.09713554382324219,-0.009500980377197266,0.14434558153152466
1759335737929583400,2.186583251953125,0.037194252014160156,0.03315591812133789,0.16353917121887207
1759335737939583500,2.19658349609375,0.07075023651123047,0.08667564392089844,0.09763804078102112
1759335737949583400,2.206583251953125,-0.03458404541015625,0.0798494815826416,0.0429263710975647
1759335737959583500,2.21658349609375,-0.09943008422851562,0.08320784568786621,-0.05945912003517151
1759335737969583400,2.226583251953125,-0.011593818664550781,0.11265707015991211,-0.10430014133453369
1759335737979583500,2.23658349609375,0.006342887878417969,0.10136222839355469,-0.06883476674556732
1759335737989583400,2.246583251953125,0.011800765991210938,0.09052491188049316,0.010804146528244019
1759335737999582500,2.25658251953125,-0.05487346649169922,0.09359312057495117,0.07222104072570801
1759335738009582600,2.26658251953125,-0.12161445617675781,0.09019589424133301,0.05892080068588257
1759335738019582500,2.27658251953125,-0.11886787414550781,0.03878664970397949,-0.04107366502285004
1759335738029582600,2.28658251953125,-0.09923458099365234,-0.02749156951904297,-0.11487577855587006
1759335738039582500,2.29658251953125,-0.10086441040039062,-0.020474910736083984,-0.11232422292232513
1759335738049582600,2.30658251953125,-0.1332235336303711,0.0020258426666259766,-0.06590357422828674
1759335738059582500,2.31658251953125,0.0022954940795898438,0.03295493125915527,0.04184696078300476
1759335738069582600,2.32658251953125,0.11169242858886719,0.024548768997192383,0.1405353844165802
1759335738079582500,2.33658251953125,0.22365379333496094,0.024927854537963867,0.22750329971313477
1759335738089582600,2.34658251953125,0.23999786376953125,-0.07128787040710449,0.14560279250144958
1759335738099583500,2.35658349609375,0.31896495819091797,-0.10727167129516602,0.006437063217163086
1759335738109583400,2.366583251953125,0.21398353576660156,-0.13086342811584473,0.004873901605606079
1759335738119583200,2.376583251953125,0.056677818298339844,-0.1056051254272461,-0.007493942975997925
1759335738129583400,2.386583251953125,0.026519775390625,-0.06952404975891113,-0.050994887948036194
1759335738139583200,2.396583251953125,-0.013134002685546875,-0.029035329818725586,-0.04397466778755188
1759335738149583400,2.406583251953125,-0.07696342468261719,-0.013653993606567383,-0.033516108989715576
1759335738159583200,2.416583251953125,-0.12911224365234375,0.012691974639892578,0.005043923854827881
1759335738169583400,2.426583251953125,-0.090850830078125,0.0033075809478759766,0.026674002408981323
1759335738179583200,2.436583251953125,-0.13472938537597656,-0.026746034622192383,0.03916105628013611
1759335738189583400,2.446583251953125,-0.0762033462524414,-0.030414104461669922,0.030318856239318848
1759335738199582500,2.45658251953125,-0.05645942687988281,-0.02229595184326172,0.052323922514915466
1759335738209582600,2.46658251953125,-0.1180419921875,-0.06728076934814453,0.05846935510635376
1759335738219582500,2.47658251953125,-0.06456470489501953,-0.07246875762939453,0.014609009027481079
1759335738229582600,2.48658251953125,-0.018035888671875,-0.07423162460327148,-0.024066627025604248
1759335738239582500,2.49658251953125,0.021759986877441406,-0.07820940017700195,-0.09935985505580902
1759335738249582600,2.50658251953125,0.06659412384033203,-0.08322811126708984,-0.13218221068382263
1759335738259582500,2.51658251953125,0.13341522216796875,-0.08043551445007324,-0.09775606542825699
1759335738269582600,2.52658251953125,0.12150287628173828,-0.06656694412231445,-0.05004175007343292
1759335738279582500,2.53658251953125,0.0831756591796875,-0.032842397689819336,-0.048739224672317505
1759335738289582600,2.54658251953125,0.15720462799072266,-0.0413970947265625,-0.08368994295597076
1759335738299583200,2.556583251953125,0.13283634185791016,0.005900382995605469,-0.07977339625358582
1759335738309583400,2.566583251953125,0.10329151153564453,0.009346723556518555,-0.10316282510757446
1759335738319583500,2.57658349609375,0.008835792541503906,-0.060385942459106445,-0.11962086707353592
1759335738329583400,2.586583251953125,-0.06421279907226562,-0.04567408561706543,-0.12630651891231537
1759335738339583500,2.59658349609375,-0.07265853881835938,-0.02833271026611328,-0.17390744388103485
1759335738349583400,2.606583251953125,-0.0736236572265625,-0.007513999938964844,-0.13339705765247345
1759335738359583500,2.61658349609375,-0.12697601318359375,0.002664804458618164,-0.08368705213069916
1759335738369583400,2.626583251953125,-0.012471199035644531,-0.00008606910705566406,-0.0008665919303894043
1759335738379583500,2.63658349609375,0.047242164611816406,0.0175933837890625,0.05618917942047119
1759335738389583400,2.646583251953125,0.030500411987304688,0.04667258262634277,0.09951716661453247
1759335738399582500,2.65658251953125,0.05467510223388672,0.10814213752746582,0.13706110417842865
1759335738409582600,2.66658251953125,0.035630226135253906,0.059683799743652344,0.1593007892370224
1759335738419582500,2.67658251953125,0.11945915222167969,0.08055925369262695,0.1791686713695526
1759335738429582600,2.68658251953125,0.13593006134033203,0.10722923278808594,0.11596038937568665
1759335738439582500,2.69658251953125,0.12342643737792969,0.08481383323669434,0.02888980507850647
1759335738449582600,2.70658251953125,0.12276840209960938,0.08709406852722168,0.03859320282936096
1759335738459582500,2.71658251953125,0.12912654876708984,0.08326315879821777,-0.0003859996795654297
1759335738469582600,2.72658251953125,0.07567119598388672,0.06998705863952637,0.035571515560150146
1759335738479582500,2.73658251953125,0.0751953125,0.04595613479614258,0.06812818348407745
1759335738489582600,2.74658251953125,0.005504608154296875,0.0832204818725586,0.07603687047958374
1759335738499583500,2.75658349609375,-0.08296394348144531,0.0611424446105957,0.09967869520187378
1759335738509583400,2.766583251953125,-0.10897541046142578,0.09536337852478027,0.10180434584617615
1759335738519583500,2.77658349609375,0.027779579162597656,-0.07392668724060059,0.05635671317577362
1759335738529583400,2.786583251953125,-0.12053394317626953,-0.019927263259887695,0.031828269362449646
1759335738539583500,2.79658349609375,-0.05601978302001953,0.0043375492095947266,-0.07176577299833298
1759335738549583400,2.806583251953125,-0.010748863220214844,-0.06422853469848633,-0.0789492130279541
1759335738559583500,2.81658349609375,-0.010897636413574219,-0.06341385841369629,-0.08069467544555664
1759335738569583400,2.826583251953125,-0.02777099609375,-0.10553503036499023,0.008725553750991821
1759335738579583500,2.83658349609375,-0.008406639099121094,-0.05324697494506836,0.0004385411739349365
1759335738589583400,2.846583251953125,-0.09160614013671875,-0.03615689277648926,0.026677459478378296
1759335738599582700,2.856582763671875,-0.11241817474365234,-0.05323386192321777,0.017690181732177734
1759335738609582600,2.86658251953125,0.029700279235839844,-0.09759712219238281,-0.08478222787380219
1759335738619582500,2.87658251953125,0.046970367431640625,-0.12168025970458984,-0.16201309859752655
1759335738629582600,2.88658251953125,0.034923553466796875,-0.13371658325195312,-0.1881433129310608
1759335738639582500,2.89658251953125,0.019895553588867188,-0.1072702407836914,-0.15206877887248993
1759335738649582600,2.90658251953125,-0.01739788055419922,-0.003251314163208008,-0.1345922350883484
1759335738659582500,2.91658251953125,0.04241752624511719,-0.023465633392333984,-0.14649459719657898
1759335738669582600,2.92658251953125,0.12085151672363281,-0.12001276016235352,-0.1520085334777832
1759335738679582500,2.93658251953125,0.12475299835205078,-0.18842661380767822,-0.17220844328403473
1759335738689582600,2.94658251953125,0.08340644836425781,-0.1763380765914917,-0.13694360852241516
1759335738699583500,2.95658349609375,0.03338336944580078,-0.12292921543121338,-0.05990809202194214
1759335738709583400,2.966583251953125,-0.039394378662109375,-0.024896621704101562,0.02086867392063141
1759335738719583500,2.97658349609375,-0.16118431091308594,-0.0071533918380737305,0.038353949785232544
1759335738729583400,2.986583251953125,-0.26288414001464844,-0.008307576179504395,0.0533713698387146
1759335738739583500,2.99658349609375,-0.25394344329833984,0.07191336154937744,0.02280983328819275
1759335738749583400,3.006583251953125,-0.2305927276611328,0.07774829864501953,0.030383184552192688
1759335738759583500,3.01658349609375,-0.1861896514892578,-0.028826475143432617,0.10837915539741516
1759335738769583400,3.026583251953125,0.06080913543701172,-0.06858706474304199,0.14316411316394806
1759335738779583500,3.03658349609375,0.12459468841552734,-0.07333850860595703,0.18889722228050232
1759335738789583400,3.046583251953125,0.2070322036743164,-0.08011960983276367,0.24330170452594757
1759335738799582500,3.05658251953125,0.1912841796875,-0.05795788764953613,0.35047268867492676
1759335738809582600,3.06658251953125,0.04915618896484375,0.031099319458007812,0.39699071645736694
1759335738819582500,3.07658251953125,0.032166481018066406,-0.015010714530944824,0.37617966532707214
1759335738829582600,3.08658251953125,-0.05848884582519531,0.0003535747528076172,0.19967913627624512
1759335738839582500,3.09658251953125,-0.19909286499023438,-0.04128241539001465,0.10072444379329681
1759335738849582600,3.10658251953125,-0.14581966400146484,-0.05415654182434082,-0.03427863121032715
1759335738859582500,3.11658251953125,-0.104766845703125,-0.02529299259185791,-0.11476108431816101
1759335738869582600,3.12658251953125,-0.15036392211914062,-0.022686123847961426,-0.037342369556427
1759335738879582500,3.13658251953125,-0.24422550201416016,0.003707289695739746,0.05495116114616394
1759335738889582600,3.14658251953125,-0.1994495391845703,-0.01627504825592041,0.03781066834926605
1759335738899583200,3.156583251953125,-0.1426992416381836,-0.04579722881317139,0.01312708854675293
1759335738909583400,3.166583251953125,-0.19832229614257812,-0.10472869873046875,0.02634201943874359
1759335738919583200,3.176583251953125,-0.23702716827392578,-0.14767169952392578,0.020583972334861755
1759335738929583400,3.186583251953125,-0.1272735595703125,-0.1598341464996338,0.012533098459243774
1759335738939583200,3.196583251953125,-0.21875572204589844,-0.2242414951324463,0.022861972451210022
1759335738949583400,3.206583251953125,-0.29360008239746094,-0.21613776683807373,-0.0010575205087661743
1759335738959583200,3.216583251953125,-0.3133840560913086,-0.2344130277633667,-0.03868274390697479
1759335738969583400,3.226583251953125,-0.36672019958496094,-0.32196271419525146,-0.023478925228118896
1759335738979583200,3.236583251953125,-0.3937816619873047,-0.36842286586761475,-0.05205978453159332
1759335738989583400,3.246583251953125,-0.40671730041503906,-0.36098432540893555,-0.06180712580680847
1759335738999582500,3.25658251953125,-0.5683803558349609,-0.3855893611907959,-0.021636441349983215
1759335739009582600,3.26658251953125,-0.6677923202514648,-0.36468708515167236,0.004148319363594055
1759335739019582500,3.27658251953125,-0.8291912078857422,-0.350056529045105,-0.0017878413200378418
1759335739029582300,3.286582275390625,-1.1122446060180664,-0.40960001945495605,-0.049949780106544495
1759335739039582500,3.29658251953125,-1.3468914031982422,-0.3831573724746704,-0.07896281778812408
1759335739049582300,3.306582275390625,-1.5761022567749023,-0.42934393882751465,-0.12966836988925934
1759335739059582500,3.31658251953125,-1.7570114135742188,-0.5013982057571411,-0.13845396041870117
1759335739069582600,3.32658251953125,-1.8157362937927246,-0.5521649122238159,-0.16498145461082458
1759335739079582500,3.33658251953125,-1.8652386665344238,-0.6153442859649658,-0.18582327663898468
1759335739089582300,3.346582275390625,-1.9511065483093262,-0.7380555868148804,-0.16959220170974731
1759335739099583200,3.356583251953125,-2.0635766983032227,-0.7629232406616211,-0.12044087052345276
1759335739109583400,3.366583251953125,-2.140212059020996,-0.7506167888641357,-0.06714603304862976
1759335739119583200,3.376583251953125,-2.2503480911254883,-0.7372317314147949,0.027800530195236206
1759335739129583400,3.386583251953125,-2.3940510749816895,-0.7444865703582764,0.06569010019302368
1759335739139583200,3.396583251953125,-2.4754605293273926,-0.8383251428604126,-0.017967402935028076
1759335739149583400,3.406583251953125,-2.46826171875,-0.8807258605957031,-0.11114835739135742
1759335739159583200,3.416583251953125,-2.6237854957580566,-0.9465250968933105,-0.1390744149684906
1759335739169583400,3.426583251953125,-2.7072715759277344,-1.1344103813171387,-0.277610182762146
1759335739179583200,3.436583251953125,-2.654245376586914,-1.254688024520874,-0.40805041790008545
1759335739189583400,3.446583251953125,-2.6178059577941895,-1.3045196533203125,-0.4255661070346832
1759335739199582500,3.45658251953125,-2.3993349075317383,-1.3633201122283936,-0.5030155181884766
1759335739209582300,3.466582275390625,-2.287075996398926,-1.4595192670822144,-0.47994375228881836
1759335739219582500,3.47658251953125,-2.281097888946533,-1.5201811790466309,-0.31693997979164124
1759335739229582300,3.486582275390625,-2.2973341941833496,-1.510675072669983,-0.2569187879562378
1759335739239582500,3.49658251953125,-2.197197914123535,-1.5168877840042114,-0.3385304808616638
1759335739249582300,3.506582275390625,-2.02323055267334,-1.5744798183441162,-0.5273884534835815
1759335739259582500,3.51658251953125,-1.9378724098205566,-1.5893510580062866,-0.6884241104125977
1759335739269582300,3.526582275390625,-1.8426361083984375,-1.5010439157485962,-0.7715632915496826
1759335739279582500,3.53658251953125,-1.8378334045410156,-1.3230658769607544,-0.7261360883712769
1759335739289582300,3.546582275390625,-1.6580610275268555,-1.2719862461090088,-0.44297415018081665
1759335739299583200,3.556583251953125,-1.2846145629882812,-1.388569712638855,-0.16145798563957214
1759335739309583400,3.566583251953125,-0.32242774963378906,-1.6242270469665527,-0.3274979591369629
1759335739319583200,3.576583251953125,0.07260513305664062,-1.8597663640975952,-0.5323450565338135
1759335739329583400,3.586583251953125,0.18207740783691406,-1.8323343992233276,-0.7170178294181824
1759335739339583200,3.596583251953125,0.20389270782470703,-1.6650041341781616,-0.7201653122901917
1759335739349583400,3.606583251953125,-0.3282756805419922,-1.548394799232483,-0.3381073474884033
1759335739359583000,3.6165830078125,-0.31517791748046875,-1.5854578018188477,-0.4231194257736206
1759335739369582800,3.626582763671875,-1.279475212097168,-1.7046849727630615,0.36460554599761963
1759335739379583000,3.6365830078125,-1.478236198425293,-1.6134746074676514,0.3764467239379883
1759335739389582800,3.646582763671875,-1.4735898971557617,-1.4877583980560303,0.4612916111946106
1759335739399582200,3.656582275390625,-1.042327880859375,-0.9676272869110107,0.28376269340515137
1759335739409582000,3.66658203125,-0.661651611328125,-0.5869741439819336,0.25649625062942505
1759335739419582200,3.676582275390625,-0.18982791900634766,-0.4174607992172241,0.34874290227890015
1759335739429582000,3.68658203125,0.08455181121826172,-0.10239076614379883,0.4135022759437561
1759335739439582200,3.696582275390625,0.24185562133789062,0.06315910816192627,0.46312326192855835
1759335739449582000,3.70658203125,0.11096858978271484,0.0997767448425293,0.5880007743835449
1759335739459582200,3.716582275390625,0.023365020751953125,0.027085542678833008,0.5054026246070862
1759335739469582000,3.72658203125,0.3223600387573242,0.059149742126464844,0.3189263939857483
1759335739479582200,3.736582275390625,0.2539196014404297,0.047951340675354004,0.37331849336624146
1759335739489582000,3.74658203125,-0.2651844024658203,0.3394826650619507,0.2837079167366028
1759335739499583000,3.7565830078125,-0.8444986343383789,0.6981350183486938,0.2423458695411682
1759335739509582800,3.766582763671875,-1.3239316940307617,0.7765005826950073,0.22903168201446533
1759335739519583000,3.7765830078125,-1.3517732620239258,1.0895456075668335,0.07566672563552856
1759335739529582800,3.786582763671875,-0.6364421844482422,2.149186134338379,-0.6655547618865967
1759335739539583000,3.7965830078125,-0.04926776885986328,1.611974835395813,-0.640273928642273
1759335739549582800,3.806582763671875,-0.23804569244384766,1.3233531713485718,-0.11137539148330688
1759335739559582200,3.816582275390625,-0.3065805435180664,1.5212609767913818,0.3107067942619324
1759335739569582000,3.82658203125,0.04629802703857422,1.4894499778747559,0.6080127954483032
1759335739579582200,3.836582275390625,0.8846302032470703,1.1190539598464966,0.7704755067825317
1759335739589582000,3.84658203125,1.8272418975830078,0.8535234928131104,0.6184898614883423
1759335739599581200,3.856581298828125,2.4298439025878906,0.7599430084228516,0.6132184267044067
1759335739609581300,3.866581298828125,2.3732337951660156,0.6863751411437988,0.7516674995422363
1759335739619581200,3.876581298828125,2.0942583084106445,0.46906912326812744,0.9318655729293823
1759335739629581300,3.886581298828125,2.325709342956543,1.206046223640442,0.5386362075805664
1759335739639581200,3.896581298828125,2.587594985961914,1.3302137851715088,0.40478718280792236
1759335739649581300,3.906581298828125,3.074307441711426,1.1571109294891357,0.25780755281448364
1759335739659581700,3.916581787109375,3.931926727294922,0.9608409404754639,-0.10135495662689209
1759335739669581600,3.92658154296875,4.560866355895996,0.6089873313903809,-0.36251652240753174
1759335739679581700,3.936581787109375,5.074153900146484,0.4802391529083252,-0.5227073431015015
1759335739689581600,3.94658154296875,5.147748947143555,0.2968020439147949,-0.36539262533187866
1759335739699582500,3.95658251953125,4.57231330871582,0.23751962184906006,-0.09805181622505188
1759335739709582300,3.966582275390625,3.993727684020996,0.266231894493103,0.004111588001251221
1759335739719582500,3.97658251953125,3.5892391204833984,0.009949684143066406,-0.006337106227874756
1759335739729582600,3.98658251953125,3.4449844360351562,-0.13413584232330322,-0.12445652484893799
1759335739739582500,3.99658251953125,3.443478584289551,-0.11891567707061768,-0.5491496920585632
1759335739749582600,4.00658251953125,3.4977073669433594,0.16723990440368652,-0.8109683990478516
1759335739759582500,4.01658251953125,3.3528518676757812,0.5316447019577026,-0.6536135673522949
1759335739769582300,4.026582275390625,3.059464454650879,0.7550482749938965,-0.254949152469635
1759335739779582500,4.03658251953125,2.904743194580078,0.7798871994018555,0.126242995262146
1759335739789582300,4.046582275390625,2.722576141357422,0.6162009239196777,0.2911939024925232
1759335739799581400,4.05658154296875,2.81253719329834,0.2437763214111328,0.2756880521774292
1759335739809581600,4.06658154296875,2.4065933227539062,0.5442147254943848,0.06411087512969971
1759335739819581700,4.076581787109375,2.8116493225097656,0.6901845932006836,-0.15730968117713928
1759335739829581600,4.08658154296875,3.3981943130493164,0.5267939567565918,0.05120152235031128
1759335739839581700,4.096581787109375,2.8025331497192383,0.7319862842559814,0.6315642595291138
1759335739849581600,4.10658154296875,2.1204776763916016,0.7615029811859131,1.1626958847045898
1759335739859582500,4.11658251953125,2.128347396850586,0.7386250495910645,1.1268117427825928
1759335739869582300,4.126582275390625,1.4427480697631836,0.6754918098449707,1.2147918939590454
1759335739879582500,4.13658251953125,0.8047218322753906,0.336531400680542,0.8402767181396484
1759335739889582300,4.146582275390625,1.0238971710205078,0.2986633777618408,0.42845964431762695
1759335739899583200,4.156583251953125,1.116999626159668,0.5038268566131592,0.053194642066955566
1759335739909583400,4.166583251953125,1.0440778732299805,0.8397092819213867,-0.17361068725585938
1759335739919583200,4.176583251953125,0.9960002899169922,0.8477568626403809,-0.15510308742523193
1759335739929583400,4.186583251953125,0.737060546875,0.5106093883514404,-0.02183377742767334
1759335739939583200,4.196583251953125,0.17059707641601562,0.01697063446044922,0.03539758920669556
1759335739949583400,4.206583251953125,0.3679370880126953,-0.33027052879333496,0.0670468807220459
1759335739959583200,4.216583251953125,0.3575553894042969,-0.3583040237426758,0.13106191158294678
1759335739979583000,4.2365830078125,0.08521652221679688,-0.008617162704467773,-0.006141066551208496
1759335739989583000,4.2465830078125,-0.630889892578125,0.1764388084411621,0.24892127513885498
1759335739999582200,4.256582275390625,-0.889704704284668,0.048607826232910156,0.17371559143066406
1759335740009582000,4.26658203125,-0.8827066421508789,0.018039941787719727,0.19888052344322205
1759335740019582200,4.276582275390625,-1.461808204650879,-0.2843773365020752,-0.3919336199760437
1759335740029582000,4.28658203125,-1.827165126800537,-0.25251317024230957,-0.45134249329566956
1759335740039582200,4.296582275390625,-1.7653331756591797,0.022014856338500977,-0.3271443247795105
1759335740049582000,4.30658203125,-1.0079946517944336,0.5188896656036377,-0.1731482446193695
1759335740059582200,4.316582275390625,-0.0024166107177734375,1.0231075286865234,-0.30784451961517334
1759335740069582000,4.32658203125,0.47246551513671875,1.0646531581878662,-0.5608671307563782
1759335740079582200,4.336582275390625,0.3463916778564453,0.9207901954650879,-0.6549740433692932
1759335740089582000,4.34658203125,-0.10152339935302734,0.885535478591919,-0.6356503963470459
1759335740099583000,4.3565830078125,-0.4038724899291992,0.7669053077697754,-0.3606036305427551
1759335740109583000,4.3665830078125,-0.6249752044677734,0.44307708740234375,-0.18653306365013123
1759335740119583000,4.3765830078125,-0.6643524169921875,0.06964898109436035,-0.1901373714208603
1759335740129583000,4.3865830078125,-0.7338991165161133,-0.01217794418334961,-0.23281505703926086
1759335740139583000,4.3965830078125,-0.48015499114990234,-0.027144908905029297,-0.30755242705345154
1759335740149583000,4.4065830078125,0.08519363403320312,0.30895400047302246,-0.3533554971218109
1759335740159583000,4.4165830078125,0.1959085464477539,0.6071860790252686,-0.2817959785461426
1759335740169583000,4.4265830078125,-0.05376720428466797,0.5281295776367188,-0.023784726858139038
1759335740179583000,4.4365830078125,-0.2839317321777344,0.3370950222015381,0.20064222812652588
1759335740189583000,4.4465830078125,-0.4094505310058594,0.14652299880981445,0.4486541152000427
1759335740199582200,4.456582275390625,-0.9521951675415039,0.33341383934020996,0.40828657150268555
1759335740209582000,4.46658203125,-0.9437093734741211,0.313981294631958,0.37718862295150757
1759335740219582200,4.476582275390625,-1.336172103881836,-0.07559514045715332,0.23331856727600098
1759335740229582000,4.48658203125,-1.1683006286621094,0.2360372543334961,-0.05132555961608887
1759335740239582200,4.496582275390625,-0.8382816314697266,0.39180755615234375,-0.21054473519325256
1759335740249582000,4.50658203125,-0.6407499313354492,0.3262672424316406,-0.20022782683372498
1759335740259582200,4.516582275390625,-0.3933372497558594,0.18315935134887695,-0.09163844585418701
1759335740269582600,4.52658251953125,-0.1605243682861328,0.2261202335357666,0.049414634704589844
1759335740279582500,4.53658251953125,0.004796028137207031,0.2592940330505371,0.13645589351654053
1759335740289582600,4.54658251953125,-0.030267715454101562,0.3101620674133301,0.21579331159591675
1759335740299583500,4.55658349609375,0.08451175689697266,0.2639467716217041,0.30279630422592163
1759335740309583400,4.566583251953125,0.2104034423828125,0.19868946075439453,0.2636057138442993
1759335740319583500,4.57658349609375,0.23715496063232422,0.16959691047668457,0.13491040468215942
1759335740329583400,4.586583251953125,0.2581014633178711,0.09298992156982422,0.12963151931762695
1759335740339583500,4.59658349609375,0.1318492889404297,0.09632015228271484,0.12242943048477173
1759335740349583400,4.606583251953125,-0.031479835510253906,0.07229018211364746,0.07062453031539917
1759335740359583500,4.61658349609375,-0.1873302459716797,0.0694735050201416,-0.03172022104263306
1759335740369583400,4.626583251953125,-0.31699562072753906,0.04364728927612305,-0.028530359268188477
1759335740379583500,4.63658349609375,-0.36920642852783203,0.05580735206604004,0.04046642780303955
1759335740389583400,4.646583251953125,-0.4209470748901367,0.058583736419677734,0.1709473729133606
1759335740399582500,4.65658251953125,-0.40294551849365234,0.04742574691772461,0.23001933097839355
1759335740409582600,4.66658251953125,-0.24789810180664062,0.009731531143188477,0.2267797589302063
1759335740419582500,4.67658251953125,0.0040035247802734375,-0.031859397888183594,0.16522681713104248
1759335740429582600,4.68658251953125,0.34607696533203125,-0.04967379570007324,0.06984567642211914
1759335740439582500,4.69658251953125,0.3908987045288086,-0.02504444122314453,0.17133688926696777
1759335740449582600,4.70658251953125,0.26836299896240234,-0.12232160568237305,0.2668774127960205
1759335740459582500,4.71658251953125,0.23981475830078125,-0.29524850845336914,0.2890268564224243
1759335740469582600,4.72658251953125,0.2122516632080078,-0.3255610466003418,0.21776336431503296
1759335740479582500,4.73658251953125,0.17174625396728516,-0.32009363174438477,0.06279343366622925
1759335740489582600,4.74658251953125,0.19041824340820312,-0.30587148666381836,-0.05770671367645264
1759335740499583200,4.756583251953125,0.07025814056396484,-0.2870464324951172,-0.06527930498123169
1759335740509583400,4.766583251953125,-0.14699077606201172,-0.3045344352722168,0.022048890590667725
1759335740519583200,4.776583251953125,-0.4068012237548828,-0.3232603073120117,0.05180621147155762
1759335740529583400,4.786583251953125,-0.5394878387451172,-0.24689173698425293,-0.06476229429244995
1759335740539583200,4.796583251953125,-0.5813369750976562,-0.11275577545166016,-0.1804526448249817
1759335740549583400,4.806583251953125,-0.4703798294067383,0.04900360107421875,-0.19758251309394836
1759335740559583500,4.81658349609375,-0.29574108123779297,0.09677338600158691,-0.1538330316543579
1759335740569583400,4.826583251953125,-0.1728353500366211,0.053846120834350586,-0.062131673097610474
1759335740579583500,4.83658349609375,-0.05613517761230469,-0.09677386283874512,0.032766878604888916
1759335740589583400,4.846583251953125,-0.05529022216796875,-0.17261338233947754,0.04916095733642578
1759335740599582500,4.85658251953125,-0.16007328033447266,-0.18070721626281738,0.05503666400909424
1759335740609582600,4.86658251953125,-0.17796993255615234,-0.14876961708068848,0.020181238651275635
1759335740619582500,4.87658251953125,-0.14018535614013672,-0.14576506614685059,-0.039844810962677
1759335740629582600,4.88658251953125,-0.13765621185302734,-0.14042448997497559,-0.0691072940826416
1759335740639582500,4.89658251953125,-0.17993736267089844,-0.130035400390625,-0.11530792713165283
1759335740649582600,4.90658251953125,-0.07581329345703125,-0.1085822582244873,-0.08620426058769226
1759335740659582500,4.91658251953125,0.059700965881347656,-0.09017729759216309,-0.09652122855186462
1759335740669582600,4.92658251953125,0.09482574462890625,-0.07431864738464355,-0.08510041236877441
1759335740679582500,4.93658251953125,0.024602890014648438,-0.08919000625610352,-0.05445089936256409
1759335740689582600,4.94658251953125,-0.0313873291015625,-0.07466769218444824,0.06107023358345032
1759335740699583500,4.95658349609375,-0.008585929870605469,-0.12899398803710938,0.03375983238220215
1759335740709583400,4.966583251953125,-0.029293060302734375,-0.1726233959197998,-0.09250760078430176
1759335740719583500,4.97658349609375,-0.028632164001464844,-0.12939906120300293,-0.2430865615606308
1759335740729583400,4.986583251953125,0.04667854309082031,-0.060634613037109375,-0.28499549627304077
1759335740739583500,4.99658349609375,0.22011661529541016,-0.03679084777832031,-0.1573593020439148
1759335740749583400,5.006583251953125,0.2445363998413086,-0.08486628532409668,0.018241852521896362
1759335740759583500,5.01658349609375,0.165191650390625,-0.13243722915649414,0.18084320425987244
1759335740769583400,5.026583251953125,0.09751129150390625,-0.0668647289276123,0.3127053678035736
1759335740779583500,5.03658349609375,0.06560611724853516,-0.040038108825683594,0.35219183564186096
1759335740789583400,5.046583251953125,0.1529674530029297,-0.19694900512695312,0.11490073800086975
1759335740799582700,5.056582763671875,0.24493980407714844,-0.15282177925109863,-0.18699312210083008
1759335740809582800,5.066582763671875,0.3087797164916992,-0.05575895309448242,-0.3318341374397278
1759335740819583000,5.0765830078125,0.2132577896118164,-0.026523113250732422,-0.19845832884311676
1759335740829582800,5.086582763671875,-0.024984359741210938,-0.07647466659545898,0.03168898820877075
1759335740839583000,5.0965830078125,-0.2056427001953125,-0.10465335845947266,0.09950906038284302
1759335740849582800,5.106582763671875,-0.2212085723876953,-0.0895230770111084,0.03445994853973389
1759335740859582700,5.116582763671875,-0.011919021606445312,-0.004586458206176758,-0.07839643955230713
1759335740869582800,5.126582763671875,0.15152454376220703,-0.016660451889038086,-0.13300375640392303
1759335740879582700,5.136582763671875,0.17830753326416016,-0.10669302940368652,-0.13045410811901093
1759335740889582800,5.146582763671875,0.17633914947509766,-0.10023927688598633,-0.12790687382221222
1759335740899583700,5.156583740234375,0.1435375213623047,-0.08467221260070801,-0.04804602265357971
1759335740909583600,5.16658349609375,0.18321609497070312,-0.030301332473754883,-0.014018863439559937
1759335740919583700,5.176583740234375,0.09412288665771484,-0.011020183563232422,0.10234373807907104
1759335740929583600,5.18658349609375,0.06978321075439453,-0.08063149452209473,0.12482500076293945
1759335740939583700,5.196583740234375,0.13381195068359375,-0.03466963768005371,0.07878968119621277
1759335740949583600,5.20658349609375,0.14011001586914062,-0.01674032211303711,0.056102603673934937
1759335740959582700,5.216582763671875,0.028997421264648438,-0.03231477737426758,0.0955822765827179
1759335740969582800,5.226582763671875,-0.055846214294433594,-0.05499768257141113,0.1003229022026062
1759335740979582700,5.236582763671875,-0.07827568054199219,-0.07118415832519531,-0.004232943058013916
1759335740989582800,5.246582763671875,0.00492095947265625,-0.03568124771118164,-0.05607348680496216
1759335740999582000,5.25658203125,0.06182575225830078,-0.0743401050567627,-0.11902901530265808
1759335741009581800,5.266581787109375,0.14272117614746094,-0.15104007720947266,-0.12282863259315491
1759335741019582000,5.27658203125,0.19980621337890625,-0.16549348831176758,-0.06509417295455933
1759335741029581800,5.286581787109375,0.19956016540527344,-0.14645838737487793,0.03538244962692261
1759335741039582000,5.29658203125,0.1467905044555664,-0.16827607154846191,0.16237199306488037
1759335741049581800,5.306581787109375,0.1179656982421875,-0.23080849647521973,0.17482468485832214
1759335741059582000,5.31658203125,0.07955360412597656,-0.17644500732421875,0.14254862070083618
1759335741069581800,5.326581787109375,-0.0015592575073242188,-0.19148039817810059,0.1164628267288208
1759335741079582000,5.33658203125,-0.04692268371582031,-0.16853976249694824,0.08400431275367737
1759335741089581800,5.346581787109375,-0.15469074249267578,-0.17690682411193848,0.029881685972213745
1759335741099582500,5.35658251953125,-0.3368101119995117,-0.33608007431030273,-0.10263955593109131
1759335741109582300,5.366582275390625,0.28385448455810547,-0.15187811851501465,-0.2599424123764038
1759335741119582500,5.37658251953125,0.08661746978759766,-0.0734705924987793,-0.2845810055732727
1759335741129582300,5.386582275390625,0.08342266082763672,-0.08962035179138184,-0.2268487960100174
1759335741149582300,5.406582275390625,-0.23225021362304688,-0.12374234199523926,-0.02455088496208191
1759335741159582500,5.41658251953125,-0.2313232421875,-0.12470197677612305,-0.04047068953514099
1759335741169582300,5.426582275390625,-0.0925760269165039,-0.1697375774383545,0.02200719714164734
1759335741179582500,5.43658251953125,-0.010030746459960938,-0.1750960350036621,0.06718236207962036
1759335741189582300,5.446582275390625,-0.013326644897460938,-0.16215229034423828,0.05816647410392761
1759335741199581400,5.45658154296875,-0.34328269958496094,-0.2898697853088379,0.08752888441085815
1759335741209581600,5.46658154296875,-0.0993509292602539,-0.26033949851989746,-0.11621764302253723
1759335741219581400,5.47658154296875,0.09222888946533203,-0.19467449188232422,-0.236229807138443
1759335741229581600,5.48658154296875,0.11947917938232422,-0.11959409713745117,-0.2273094356060028
1759335741239581400,5.49658154296875,0.37387847900390625,-0.16220569610595703,-0.10644254088401794
1759335741249581600,5.50658154296875,0.3750181198120117,-0.03294181823730469,0.008726030588150024
1759335741259582500,5.51658251953125,0.39817047119140625,0.009946346282958984,0.17057177424430847
1759335741269582300,5.526582275390625,0.3483247756958008,-0.03713059425354004,0.23118463158607483
1759335741279582500,5.53658251953125,0.34755611419677734,-0.031087398529052734,0.213460773229599
1759335741289582300,5.546582275390625,0.13492679595947266,-0.030057907104492188,0.04827427864074707
1759335741299583200,5.556583251953125,-0.0117950439453125,0.020241260528564453,-0.02682510018348694
1759335741309583400,5.566583251953125,-0.00022220611572265625,0.01833367347717285,-0.03006032109260559
1759335741319583200,5.576583251953125,0.21939849853515625,0.09314656257629395,-0.12482547760009766
1759335741329583400,5.586583251953125,0.10792827606201172,0.09636569023132324,-0.06441694498062134
1759335741339583200,5.596583251953125,-0.03062725067138672,0.05255126953125,0.03641432523727417
1759335741349583400,5.606583251953125,0.03625202178955078,0.010335683822631836,0.07796585559844971
1759335741359583200,5.616583251953125,0.16743755340576172,0.03371405601501465,-0.020321190357208252
1759335741369583400,5.626583251953125,0.1954822540283203,0.09156537055969238,-0.04808071255683899
1759335741379583200,5.636583251953125,0.049109458923339844,0.009766340255737305,0.022023916244506836
1759335741389583400,5.646583251953125,-0.0845937728881836,-0.0624089241027832,0.055243730545043945
1759335741399582500,5.65658251953125,-0.10239315032958984,-0.09521245956420898,0.01734715700149536
1759335741409582300,5.666582275390625,-0.03064727783203125,-0.01472926139831543,-0.13513627648353577
1759335741419582500,5.67658251953125,-0.1069040298461914,0.05172586441040039,-0.12231752276420593
1759335741429582300,5.686582275390625,-0.0590667724609375,0.00002956390380859375,-0.07863295078277588
1759335741439582500,5.69658251953125,0.036078453063964844,-0.004250288009643555,-0.010151207447052002
1759335741449582300,5.706582275390625,0.051464080810546875,0.05194997787475586,-0.029402971267700195
1759335741459582500,5.71658251953125,-0.06765079498291016,0.0622406005859375,0.08800798654556274
1759335741469582300,5.726582275390625,-0.12481689453125,0.052420854568481445,0.12460494041442871
1759335741479582500,5.73658251953125,-0.1296529769897461,0.03426241874694824,0.12049376964569092
1759335741489582300,5.746582275390625,-0.10608768463134766,-0.059374332427978516,0.044806480407714844
1759335741509583400,5.766583251953125,0.030959129333496094,-0.09528326988220215,-0.05651921033859253
1759335741519583200,5.776583251953125,0.07309722900390625,-0.0703434944152832,-0.029848098754882812
1759335741529583400,5.786583251953125,0.06049346923828125,-0.06590032577514648,-0.01910644769668579
1759335741539583200,5.796583251953125,-0.021314620971679688,-0.07413530349731445,0.04613763093948364
1759335741549583400,5.806583251953125,-0.0933237075805664,-0.02341604232788086,0.11425894498825073
1759335741559583200,5.816583251953125,-0.07674312591552734,0.019573450088500977,0.11553877592086792
1759335741569583400,5.826583251953125,0.056964874267578125,0.04339456558227539,0.06291252374649048
1759335741579583200,5.836583251953125,0.09435367584228516,0.011377096176147461,0.06731140613555908
1759335741589583400,5.846583251953125,0.18152713775634766,-0.01896977424621582,0.08688467741012573
1759335741599582500,5.85658251953125,0.2371997833251953,0.009315013885498047,0.07657647132873535
1759335741609582300,5.866582275390625,0.23994064331054688,0.009829521179199219,0.07847517728805542
1759335741619582500,5.87658251953125,0.13721084594726562,-0.07523202896118164,-0.025506198406219482
1759335741629582300,5.886582275390625,-0.008502006530761719,-0.10799217224121094,-0.17007267475128174
1759335741639582500,5.89658251953125,-0.029039382934570312,-0.11004161834716797,-0.13998070359230042
1759335741649582300,5.906582275390625,-0.05368614196777344,-0.04044365882873535,-0.051496654748916626
1759335741659582500,5.91658251953125,-0.010767936706542969,-0.01816415786743164,0.010507017374038696
1759335741669582600,5.92658251953125,0.0036983489990234375,-0.0732123851776123,0.047113269567489624
1759335741679582500,5.93658251953125,0.13811874389648438,-0.15269780158996582,-0.04777038097381592
1759335741689582600,5.94658251953125,0.15063858032226562,-0.12228775024414062,-0.10984310507774353
1759335741699583200,5.956583251953125,-0.003952980041503906,-0.13832974433898926,-0.05985984206199646
1759335741709583400,5.966583251953125,-0.12941837310791016,-0.11455607414245605,0.08459314703941345
1759335741719583500,5.97658349609375,-0.16621685028076172,-0.11753654479980469,0.153337299823761
1759335741729583400,5.986583251953125,-0.18632984161376953,-0.1422884464263916,0.18719249963760376
1759335741739583500,5.99658349609375,-0.1731586456298828,-0.21929144859313965,0.07083892822265625
1759335741749583400,6.006583251953125,0.0025501251220703125,-0.24537968635559082,-0.1147693395614624
1759335741759583500,6.01658349609375,0.08245468139648438,-0.2451486587524414,-0.13153119385242462
1759335741769583400,6.026583251953125,0.08333587646484375,-0.24919366836547852,-0.12503544986248016
1759335741779583500,6.03658349609375,-0.15259170532226562,-0.15546703338623047,0.1300843358039856
1759335741789583400,6.046583251953125,-0.4528989791870117,-0.1416165828704834,0.21947342157363892
1759335741799582500,6.05658251953125,-0.4487800598144531,-0.07432723045349121,0.050647735595703125
1759335741809582600,6.06658251953125,-0.47316837310791016,-0.01793360710144043,-0.2071036398410797
1759335741819582500,6.07658251953125,-0.5911102294921875,0.09893369674682617,-0.5000541806221008
1759335741829582600,6.08658251953125,0.21930503845214844,0.12193870544433594,-0.6662086248397827
1759335741839582500,6.09658251953125,-0.05390739440917969,-0.0048067569732666016,-0.3069947063922882
1759335741849582600,6.10658251953125,0.25537109375,-0.1333620548248291,0.010282546281814575
1759335741859582500,6.11658251953125,0.2519512176513672,-0.11952495574951172,-0.0039144158363342285
1759335741869582600,6.12658251953125,0.6686267852783203,-0.033145904541015625,0.34491613507270813
1759335741879582500,6.13658251953125,0.4295692443847656,-0.1154336929321289,0.42341744899749756
