seconds_elapsed,acc_z,acc_y,acc_x,grav_z,grav_y,grav_x,gyro_z,gyro_y,gyro_x
0.0500,-0.0783,0.0231,-0.1900,6.0163,-5.4015,-5.5496,-0.0058,0.0142,-0.0083
0.0600,-0.0866,0.0577,-0.1355,6.0148,-5.4024,-5.5503,-0.0000,0.0100,-0.0160
0.0700,-0.0773,0.0898,-0.0821,6.0135,-5.4036,-5.5507,-0.0019,-0.0013,-0.0242
0.0800,-0.0769,0.1124,-0.0631,6.0123,-5.4052,-5.5504,0.0010,-0.0098,-0.0299
0.0900,-0.0850,0.1297,-0.0413,6.0113,-5.4069,-5.5497,-0.0016,-0.0150,-0.0300
0.1000,-0.0881,0.1541,-0.0128,6.0107,-5.4086,-5.5487,-0.0013,-0.0168,-0.0250
0.1100,-0.0914,0.1685,-0.0214,6.0104,-5.4101,-5.5476,-0.0060,-0.0137,-0.0186
0.1200,-0.0867,0.1649,-0.0479,6.0102,-5.4114,-5.5466,-0.0059,-0.0072,-0.0128
0.1300,-0.0763,0.1511,-0.0583,6.0098,-5.4125,-5.5460,-0.0086,-0.0025,-0.0118
0.1400,-0.0724,0.1298,-0.0875,6.0092,-5.4138,-5.5453,-0.0112,-0.0027,-0.0154
0.1500,-0.0632,0.1217,-0.1584,6.0085,-5.4155,-5.5444,-0.0180,-0.0030,-0.0180
0.1600,-0.0371,0.1146,-0.2000,6.0076,-5.4176,-5.5433,-0.0183,0.0026,-0.0183
0.1700,-0.0220,0.1012,-0.1762,6.0062,-5.4197,-5.5428,-0.0186,0.0117,-0.0177
0.1800,-0.0401,0.0952,-0.1225,6.0043,-5.4218,-5.5429,-0.0137,0.0186,-0.0194
0.1900,-0.0749,0.0903,-0.0863,6.0022,-5.4237,-5.5433,-0.0126,0.0129,-0.0233
0.2000,-0.1052,0.1039,-0.1375,6.0004,-5.4259,-5.5430,-0.0114,-0.0002,-0.0261
0.2100,-0.1235,0.1402,-0.2087,5.9991,-5.4281,-5.5423,-0.0133,-0.0047,-0.0256
0.2200,-0.1355,0.1584,-0.2021,5.9980,-5.4303,-5.5413,-0.0182,0.0011,-0.0198
0.2300,-0.1486,0.1509,-0.1557,5.9968,-5.4323,-5.5407,-0.0216,0.0094,-0.0121
0.2400,-0.1493,0.1157,-0.0754,5.9957,-5.4340,-5.5401,-0.0223,0.0080,-0.0066
0.2500,-0.1305,0.0814,-0.0689,5.9953,-5.4356,-5.5390,-0.0257,-0.0055,-0.0062
0.2600,-0.0885,0.1012,-0.1491,5.9956,-5.4375,-5.5369,-0.0285,-0.0174,-0.0079
0.2700,-0.0465,0.1241,-0.1868,5.9961,-5.4396,-5.5342,-0.0313,-0.0184,-0.0074
0.2800,-0.0404,0.1087,-0.1849,5.9966,-5.4417,-5.5316,-0.0332,-0.0120,-0.0053
0.2900,-0.0851,0.0756,-0.2017,5.9969,-5.4437,-5.5293,-0.0333,-0.0076,-0.0017
0.3000,-0.1292,0.0837,-0.2503,5.9972,-5.4454,-5.5273,-0.0321,-0.0039,0.0036
0.3100,-0.1457,0.1635,-0.2688,5.9975,-5.4467,-5.5258,-0.0265,0.0012,0.0045
0.3200,-0.1490,0.2285,-0.2002,5.9976,-5.4480,-5.5243,-0.0306,-0.0036,0.0011
0.3300,-0.1521,0.1844,-0.1379,5.9981,-5.4500,-5.5218,-0.0415,-0.0205,-0.0030
0.3400,-0.1264,0.1032,-0.1731,5.9994,-5.4527,-5.5177,-0.0463,-0.0324,-0.0053
0.3500,-0.0606,0.0266,-0.1553,6.0009,-5.4555,-5.5134,-0.0449,-0.0303,-0.0045
0.3600,-0.0380,-0.0278,-0.0806,6.0021,-5.4581,-5.5094,-0.0407,-0.0255,-0.0040
0.3700,-0.0656,-0.0079,-0.0584,6.0033,-5.4601,-5.5062,-0.0274,-0.0262,-0.0026
0.3800,-0.1059,0.0748,-0.0569,6.0047,-5.4613,-5.5035,-0.0187,-0.0300,0.0023
0.3900,-0.1408,0.1435,-0.0657,6.0066,-5.4617,-5.5010,-0.0098,-0.0333,0.0078
0.4000,-0.1674,0.1928,-0.0656,6.0090,-5.4614,-5.4986,-0.0030,-0.0370,0.0104
0.4100,-0.1727,0.2389,-0.0301,6.0118,-5.4605,-5.4966,0.0149,-0.0430,0.0122
0.4200,-0.1527,0.2778,-0.0031,6.0151,-5.4586,-5.4948,0.0080,-0.0522,0.0163
0.4300,-0.1161,0.2962,0.0104,6.0192,-5.4566,-5.4923,0.0198,-0.0605,0.0209
0.4400,-0.0869,0.2663,0.0168,6.0239,-5.4542,-5.4895,0.0191,-0.0650,0.0252
0.4500,-0.0636,0.1816,0.0093,6.0288,-5.4516,-5.4867,0.0193,-0.0640,0.0255
0.4600,-0.0458,0.0770,-0.0105,6.0335,-5.4490,-5.4841,0.0207,-0.0619,0.0209
0.4700,-0.0439,0.0145,-0.0729,6.0379,-5.4467,-5.4816,0.0245,-0.0629,0.0133
0.4800,-0.0359,0.0195,-0.1309,6.0418,-5.4448,-5.4792,0.0269,-0.0604,0.0037
0.4900,-0.0212,0.0674,-0.1492,6.0448,-5.4434,-5.4773,0.0252,-0.0502,-0.0040
0.5000,-0.0095,0.1063,-0.1558,6.0469,-5.4424,-5.4759,0.0225,-0.0368,-0.0053
0.5100,-0.0109,0.1279,-0.1604,6.0484,-5.4414,-5.4752,0.0206,-0.0240,-0.0004
0.5200,-0.0183,0.1501,-0.1480,6.0495,-5.4402,-5.4752,0.0174,-0.0127,0.0052
0.5300,-0.0572,0.1390,-0.1230,6.0502,-5.4391,-5.4756,0.0131,-0.0039,0.0060
0.5400,-0.0928,0.1175,-0.1114,6.0505,-5.4382,-5.4761,0.0086,-0.0010,0.0024
0.5500,-0.1141,0.1102,-0.1027,6.0506,-5.4379,-5.4763,0.0017,-0.0053,-0.0028
0.5600,-0.1259,0.1237,-0.0825,6.0507,-5.4383,-5.4758,-0.0060,-0.0107,-0.0087
0.5700,-0.1164,0.1450,-0.0714,6.0506,-5.4394,-5.4747,-0.0105,-0.0122,-0.0145
0.5800,-0.1163,0.1465,-0.0728,6.0504,-5.4410,-5.4734,-0.0121,-0.0129,-0.0162
0.5900,-0.0929,0.1676,-0.0997,6.0504,-5.4426,-5.4719,-0.0126,-0.0139,-0.0120
0.6000,-0.0552,0.1874,-0.1353,6.0505,-5.4439,-5.4704,-0.0161,-0.0095,-0.0071
0.6100,-0.0293,0.1847,-0.1606,6.0504,-5.4451,-5.4693,-0.0193,-0.0004,-0.0060
0.6200,-0.0304,0.1733,-0.1749,6.0499,-5.4466,-5.4685,-0.0188,0.0043,-0.0099
0.6300,-0.0538,0.1598,-0.1557,6.0490,-5.4484,-5.4676,-0.0197,-0.0009,-0.0176
0.6400,-0.0731,0.1665,-0.1429,6.0480,-5.4510,-5.4662,-0.0260,-0.0100,-0.0267
0.6500,-0.0739,0.1898,-0.1714,6.0469,-5.4544,-5.4640,-0.0322,-0.0118,-0.0337
0.6600,-0.0575,0.1908,-0.1831,6.0454,-5.4583,-5.4617,-0.0361,-0.0045,-0.0341
0.6700,-0.0613,0.1426,-0.1273,6.0434,-5.4621,-5.4601,-0.0362,0.0075,-0.0335
0.6800,-0.0806,0.0756,-0.0392,6.0409,-5.4659,-5.4591,-0.0299,0.0130,-0.0362
0.6900,-0.0788,0.0545,-0.0072,6.0382,-5.4695,-5.4584,-0.0228,0.0057,-0.0415
0.7000,-0.0717,0.0934,-0.0584,6.0357,-5.4734,-5.4574,-0.0203,-0.0050,-0.0504
0.7100,-0.0585,0.1364,-0.1274,6.0331,-5.4778,-5.4558,-0.0228,-0.0116,-0.0592
0.7200,-0.0339,0.1200,-0.1667,6.0303,-5.4829,-5.4538,-0.0262,-0.0103,-0.0654
0.7300,-0.0324,0.0875,-0.1835,6.0268,-5.4883,-5.4521,-0.0248,-0.0010,-0.0685
0.7400,-0.0462,0.1045,-0.1738,6.0228,-5.4933,-5.4516,-0.0122,0.0110,-0.0660
0.7500,-0.0916,0.1520,-0.1088,6.0186,-5.4972,-5.4523,0.0021,0.0174,-0.0566
0.7600,-0.1398,0.2126,-0.0494,6.0148,-5.5000,-5.4536,0.0049,0.0162,-0.0445
0.7700,-0.1583,0.2229,-0.0297,6.0119,-5.5022,-5.4547,0.0018,0.0097,-0.0367
0.7800,-0.1733,0.1386,-0.0007,6.0096,-5.5045,-5.4549,-0.0010,-0.0025,-0.0370
0.7900,-0.1619,0.0334,0.0144,6.0079,-5.5069,-5.4544,0.0011,-0.0160,-0.0419
0.8000,-0.1347,-0.0220,-0.0077,6.0066,-5.5093,-5.4533,0.0071,-0.0281,-0.0472
0.8100,-0.1133,-0.0400,-0.0486,6.0056,-5.5118,-5.4519,0.0116,-0.0371,-0.0511
0.8200,-0.0918,-0.0401,-0.1106,6.0048,-5.5142,-5.4504,0.0174,-0.0388,-0.0516
0.8300,-0.0618,-0.0165,-0.1606,6.0041,-5.5159,-5.4494,0.0252,-0.0330,-0.0449
0.8400,-0.0440,0.0180,-0.1744,6.0035,-5.5168,-5.4492,0.0299,-0.0259,-0.0338
0.8500,-0.0502,0.0526,-0.1971,6.0031,-5.5169,-5.4495,0.0283,-0.0194,-0.0243
0.8600,-0.0490,0.0596,-0.2356,6.0027,-5.5167,-5.4502,0.0245,-0.0101,-0.0201
0.8700,-0.0562,0.0040,-0.2188,6.0018,-5.5167,-5.4512,0.0234,-0.0053,-0.0244
0.8800,-0.0842,-0.0402,-0.1660,6.0005,-5.5172,-5.4520,0.0205,-0.0105,-0.0350
0.8900,-0.1066,-0.0190,-0.1611,5.9991,-5.5185,-5.4522,0.0141,-0.0174,-0.0425
0.9000,-0.1223,0.0200,-0.1723,5.9977,-5.5204,-5.4519,0.0074,-0.0186,-0.0401
0.9100,-0.1301,0.0613,-0.1535,5.9966,-5.5222,-5.4512,0.0022,-0.0156,-0.0300
0.9200,-0.1444,0.1016,-0.1130,5.9961,-5.5236,-5.4505,-0.0020,-0.0114,-0.0150
0.9300,-0.1590,0.1272,-0.0880,5.9961,-5.5241,-5.4498,-0.0053,-0.0096,-0.0032
0.9400,-0.1596,0.1353,-0.0876,5.9962,-5.5242,-5.4496,-0.0058,-0.0102,-0.0003
0.9500,-0.1537,0.1502,-0.0645,5.9968,-5.5245,-5.4487,-0.0093,-0.0178,0.0010
0.9600,-0.1351,0.1642,-0.0389,5.9979,-5.5253,-5.4467,-0.0158,-0.0308,-0.0050
0.9700,-0.1040,0.1611,-0.0514,5.9992,-5.5270,-5.4436,-0.0241,-0.0387,-0.0140
0.9800,-0.0892,0.1696,-0.0892,6.0004,-5.5297,-5.4395,-0.0350,-0.0434,-0.0200
0.9900,-0.0839,0.2100,-0.1316,6.0016,-5.5332,-5.4347,-0.0447,-0.0437,-0.0200
1.0000,-0.0775,0.2478,-0.1449,6.0027,-5.5368,-5.4297,-0.0493,-0.0371,-0.0143
1.0100,-0.1065,0.2630,-0.1291,6.0041,-5.5400,-5.4249,-0.0497,-0.0328,-0.0030
1.0200,-0.1459,0.2627,-0.1035,6.0059,-5.5426,-5.4202,-0.0489,-0.0343,0.0057
1.0300,-0.1499,0.2582,-0.0977,6.0083,-5.5449,-5.4152,-0.0519,-0.0433,0.0065
1.0400,-0.1210,0.2419,-0.1209,6.0113,-5.5476,-5.4092,-0.0573,-0.0572,0.0013
1.0500,-0.0878,0.2169,-0.1463,6.0145,-5.5510,-5.4021,-0.0619,-0.0675,-0.0085
1.0600,-0.0526,0.1930,-0.1640,6.0176,-5.5552,-5.3943,-0.0659,-0.0735,-0.0171
1.0700,-0.0348,0.1789,-0.1570,6.0204,-5.5600,-5.3862,-0.0673,-0.0712,-0.0211
1.0800,-0.0376,0.1510,-0.1171,6.0228,-5.5648,-5.3785,-0.0651,-0.0583,-0.0183
1.0900,-0.0211,0.1106,-0.1026,6.0246,-5.5690,-5.3722,-0.0569,-0.0378,-0.0084
1.1000,-0.0164,0.1001,-0.1058,6.0259,-5.5720,-5.3676,-0.0454,-0.0200,0.0017
1.1100,-0.0140,0.1260,-0.0756,6.0268,-5.5741,-5.3645,-0.0372,-0.0087,0.0039
1.1200,-0.0282,0.1480,-0.0573,6.0273,-5.5759,-5.3621,-0.0318,-0.0143,-0.0060
1.1300,-0.0542,0.1444,-0.0762,6.0277,-5.5785,-5.3588,-0.0342,-0.0374,-0.0279
1.1400,-0.0349,0.1497,-0.1269,6.0279,-5.5832,-5.3538,-0.0454,-0.0541,-0.0546
1.1500,-0.0121,0.2055,-0.1835,6.0273,-5.5899,-5.3474,-0.0564,-0.0596,-0.0763
1.1600,-0.0044,0.2839,-0.1848,6.0256,-5.5983,-5.3405,-0.0659,-0.0519,-0.0875
1.1700,-0.0173,0.3271,-0.1418,6.0230,-5.6073,-5.3340,-0.0706,-0.0347,-0.0860
1.1800,-0.0602,0.3363,-0.1211,6.0198,-5.6159,-5.3286,-0.0673,-0.0170,-0.0749
1.1900,-0.1219,0.2972,-0.0995,6.0164,-5.6234,-5.3246,-0.0586,0.0008,-0.0614
1.2000,-0.1705,0.2299,-0.0830,6.0127,-5.6297,-5.3220,-0.0478,0.0126,-0.0523
1.2100,-0.2084,0.1784,-0.1161,6.0092,-5.6352,-5.3202,-0.0429,0.0078,-0.0521
1.2200,-0.2618,0.1701,-0.1828,6.0062,-5.6410,-5.3175,-0.0493,-0.0126,-0.0585
1.2300,-0.2798,0.1955,-0.2744,6.0039,-5.6477,-5.3130,-0.0629,-0.0357,-0.0650
1.2400,-0.2513,0.2327,-0.3460,6.0025,-5.6555,-5.3062,-0.0815,-0.0508,-0.0646
1.2500,-0.2107,0.2745,-0.3424,6.0017,-5.6644,-5.2977,-0.1077,-0.0551,-0.0622
1.2600,-0.1752,0.3021,-0.3178,6.0009,-5.6747,-5.2874,-0.1399,-0.0511,-0.0652
1.2700,-0.1596,0.3385,-0.3474,5.9995,-5.6870,-5.2758,-0.1682,-0.0428,-0.0708
1.2800,-0.1605,0.3531,-0.3575,5.9971,-5.7009,-5.2635,-0.1805,-0.0358,-0.0832
1.2900,-0.1449,0.2925,-0.2835,5.9936,-5.7161,-5.2510,-0.1814,-0.0346,-0.1029
1.3000,-0.0942,0.1605,-0.2060,5.9889,-5.7324,-5.2385,-0.1762,-0.0378,-0.1257
1.3100,-0.0445,0.0230,-0.1787,5.9831,-5.7497,-5.2262,-0.1693,-0.0416,-0.1444
1.3200,-0.0259,-0.0444,-0.1927,5.9767,-5.7674,-5.2141,-0.1623,-0.0435,-0.1511
1.3300,0.0015,-0.0491,-0.1339,5.9697,-5.7849,-5.2027,-0.1578,-0.0216,-0.1526
1.3400,0.0512,-0.0437,0.0146,5.9606,-5.8023,-5.1937,-0.1591,0.0291,-0.1534
1.3500,0.0689,-0.0370,0.0790,5.9492,-5.8194,-5.1876,-0.1513,0.0714,-0.1430
1.3600,0.0631,0.0137,0.1032,5.9372,-5.8347,-5.1841,-0.1311,0.0853,-0.1210
1.3700,0.0335,0.1121,0.1846,5.9265,-5.8477,-5.1818,-0.1101,0.0691,-0.1052
1.3800,-0.0147,0.2262,0.2488,5.9177,-5.8595,-5.1785,-0.1055,0.0289,-0.1081
1.3900,-0.0707,0.3069,0.1887,5.9103,-5.8722,-5.1727,-0.1132,-0.0089,-0.1285
1.4000,-0.1319,0.3103,0.0688,5.9027,-5.8867,-5.1649,-0.1157,-0.0219,-0.1578
1.4100,-0.1243,0.3499,0.0746,5.8935,-5.9032,-5.1565,-0.1305,-0.0143,-0.1823
1.4200,-0.0593,0.3994,0.0464,5.8823,-5.9219,-5.1479,-0.1526,0.0110,-0.2001
1.4300,0.0060,0.3367,-0.0926,5.8684,-5.9420,-5.1405,-0.1507,0.0512,-0.2119
1.4400,0.0759,0.2788,-0.1165,5.8516,-5.9622,-5.1363,-0.1429,0.0938,-0.2154
1.4500,0.1446,0.3132,-0.1207,5.8329,-5.9820,-5.1345,-0.1428,0.1281,-0.2097
1.4600,0.1231,0.3347,-0.2002,5.8132,-6.0015,-5.1341,-0.1386,0.1461,-0.2117
1.4700,0.0151,0.3057,-0.2632,5.7923,-6.0216,-5.1341,-0.1426,0.1397,-0.2336
1.4800,-0.1227,0.2837,-0.3342,5.7703,-6.0442,-5.1324,-0.1621,0.1230,-0.2731
1.4900,-0.2771,0.2856,-0.4039,5.7457,-6.0706,-5.1289,-0.1901,0.1280,-0.3262
1.5000,-0.3473,0.2338,-0.4784,5.7165,-6.1009,-5.1255,-0.1944,0.1663,-0.3795
1.5100,-0.3158,0.2245,-0.5205,5.6832,-6.1337,-5.1234,-0.2078,0.1969,-0.3997
1.5200,-0.2304,0.2041,-0.6457,5.6476,-6.1677,-5.1219,-0.2296,0.2335,-0.3943
1.5300,-0.1754,0.1256,-0.7593,5.6090,-6.2019,-5.1230,-0.2210,0.3043,-0.4029
1.5400,-0.1943,0.1085,-0.7413,5.5659,-6.2363,-5.1283,-0.2107,0.3590,-0.4286
1.5500,-0.2277,0.0210,-0.7614,5.5186,-6.2716,-5.1362,-0.1936,0.3822,-0.4683
1.5600,-0.2273,0.0661,-0.7618,5.4687,-6.3087,-5.1442,-0.2099,0.3718,-0.4999
1.5700,-0.1104,0.1967,-0.8589,5.4169,-6.3485,-5.1500,-0.2462,0.3796,-0.5209
1.5800,-0.0509,0.2141,-0.8936,5.3622,-6.3906,-5.1552,-0.2592,0.4191,-0.5483
1.5900,-0.1494,0.1980,-0.6766,5.3030,-6.4342,-5.1622,-0.2630,0.4491,-0.5768
1.6000,-0.2287,0.2533,-0.5077,5.2417,-6.4792,-5.1684,-0.2827,0.4437,-0.5890
1.6100,-0.1543,0.2368,-0.5052,5.1808,-6.5254,-5.1718,-0.2997,0.4357,-0.5919
1.6200,0.0603,0.0115,-0.4472,5.1171,-6.5711,-5.1773,-0.2685,0.4923,-0.6006
1.6300,0.2189,-0.0993,-0.3021,5.0499,-6.6148,-5.1876,-0.2405,0.5530,-0.5921
1.6400,0.3111,-0.0741,-0.3300,4.9812,-6.6566,-5.2005,-0.2359,0.5929,-0.5719
1.6500,0.3770,-0.0617,-0.4927,4.9107,-6.6969,-5.2159,-0.2245,0.6478,-0.5634
1.6600,0.3857,-0.0501,-0.6589,4.8374,-6.7357,-5.2344,-0.2060,0.6934,-0.5600
1.6700,0.3551,-0.0602,-0.7520,4.7623,-6.7732,-5.2548,-0.1953,0.7074,-0.5563
1.6800,0.2846,-0.0770,-0.7482,4.6872,-6.8101,-5.2746,-0.2024,0.6899,-0.5582
1.6900,0.2085,-0.0287,-0.8492,4.6132,-6.8473,-5.2916,-0.2086,0.6309,-0.5682
1.7000,0.1555,0.0349,-0.8606,4.5414,-6.8854,-5.3043,-0.2238,0.5596,-0.5933
1.7100,0.1680,0.0307,-0.7689,4.4704,-6.9260,-5.3118,-0.2589,0.5133,-0.6276
1.7200,0.2449,-0.0216,-0.8265,4.3991,-6.9695,-5.3144,-0.3018,0.4768,-0.6497
1.7300,0.3705,-0.0740,-0.9043,4.3294,-7.0154,-5.3112,-0.3531,0.4121,-0.6410
1.7400,0.4776,-0.0907,-0.9680,4.2666,-7.0624,-5.2998,-0.4026,0.2942,-0.5965
1.7500,0.5562,-0.1120,-0.8966,4.2129,-7.1091,-5.2802,-0.4281,0.1961,-0.5580
1.7600,0.5657,-0.0913,-0.6112,4.1636,-7.1553,-5.2569,-0.4402,0.1815,-0.5489
1.7700,0.4098,-0.0235,-0.3260,4.1131,-7.2022,-5.2326,-0.4662,0.2225,-0.5573
1.7800,0.2206,0.0040,-0.2475,4.0591,-7.2506,-5.2078,-0.4931,0.2652,-0.5718
1.7900,0.1486,0.0465,-0.2358,4.0024,-7.3002,-5.1823,-0.5120,0.2707,-0.5802
1.8000,0.2099,0.1348,-0.1335,3.9468,-7.3505,-5.1538,-0.5360,0.2192,-0.5713
1.8100,0.3609,0.1547,-0.1030,3.8963,-7.4009,-5.1201,-0.5569,0.1239,-0.5500
1.8200,0.4997,0.1020,-0.1677,3.8528,-7.4506,-5.0807,-0.5692,0.0108,-0.5212
1.8300,0.5083,-0.0073,-0.1596,3.8171,-7.4995,-5.0356,-0.5898,-0.0889,-0.4856
1.8400,0.3775,-0.1664,-0.1426,3.7872,-7.5478,-4.9857,-0.6141,-0.1360,-0.4569
1.8500,0.2404,-0.2316,-0.1746,3.7599,-7.5957,-4.9332,-0.6298,-0.1298,-0.4357
1.8600,0.1928,-0.1461,-0.1481,3.7329,-7.6431,-4.8803,-0.6408,-0.0957,-0.4165
1.8700,0.1724,0.0119,-0.0507,3.7053,-7.6899,-4.8276,-0.6528,-0.0666,-0.3988
1.8800,0.1303,0.1326,0.0570,3.6776,-7.7365,-4.7740,-0.6712,-0.0589,-0.3891
1.8900,0.0914,0.1886,0.1207,3.6503,-7.7833,-4.7184,-0.6942,-0.0678,-0.3881
1.9000,0.0498,0.2218,0.1439,3.6232,-7.8309,-4.6603,-0.7174,-0.0822,-0.3930
1.9100,-0.0308,0.2248,0.1512,3.5958,-7.8793,-4.5994,-0.7431,-0.0947,-0.4037
1.9200,-0.0480,0.1709,0.1793,3.5677,-7.9287,-4.5361,-0.7689,-0.0932,-0.4098
1.9300,-0.0495,0.0560,0.2015,3.5388,-7.9787,-4.4705,-0.7920,-0.0802,-0.4090
1.9400,-0.0915,-0.0597,0.2422,3.5090,-8.0290,-4.4034,-0.8177,-0.0532,-0.4086
1.9500,-0.1067,-0.1226,0.2787,3.4775,-8.0798,-4.3349,-0.8437,-0.0181,-0.4069
1.9600,-0.0822,-0.1617,0.2694,3.4450,-8.1309,-4.2648,-0.8716,0.0010,-0.3999
1.9700,-0.0261,-0.1416,0.1919,3.4128,-8.1821,-4.1922,-0.8969,-0.0098,-0.3885
1.9800,0.0179,-0.0604,0.0154,3.3824,-8.2329,-4.1167,-0.9078,-0.0500,-0.3735
1.9900,0.0181,0.0272,-0.1963,3.3554,-8.2824,-4.0387,-0.9039,-0.1134,-0.3538
2.0000,-0.0285,0.1211,-0.3646,3.3326,-8.3301,-3.9587,-0.8902,-0.1868,-0.3371
2.0100,-0.0684,0.2383,-0.3759,3.3130,-8.3762,-3.8771,-0.8848,-0.2407,-0.3324
2.0200,-0.0643,0.3558,-0.2785,3.2943,-8.4216,-3.7936,-0.8987,-0.2508,-0.3381
2.0300,-0.0734,0.4537,-0.2046,3.2740,-8.4675,-3.7082,-0.9263,-0.2211,-0.3541
2.0400,-0.0828,0.5347,-0.1270,3.2500,-8.5142,-3.6212,-0.9622,-0.1747,-0.3772
2.0500,-0.0579,0.5391,-0.0836,3.2223,-8.5622,-3.5318,-0.9998,-0.1427,-0.3996
2.0600,-0.0591,0.4954,-0.0411,3.1918,-8.6111,-3.4392,-1.0423,-0.1383,-0.4175
2.0700,-0.0655,0.4848,0.0659,3.1601,-8.6610,-3.3418,-1.0954,-0.1587,-0.4235
2.0800,-0.1042,0.4530,0.1067,3.1293,-8.7114,-3.2380,-1.1495,-0.2093,-0.4197
2.0900,-0.1466,0.4119,0.1394,3.1005,-8.7620,-3.1273,-1.1994,-0.2702,-0.4119
2.1000,-0.1679,0.3627,0.2953,3.0737,-8.8125,-3.0097,-1.2553,-0.3214,-0.4009
2.1100,-0.2337,0.2239,0.4266,3.0490,-8.8627,-2.8847,-1.3123,-0.3848,-0.3881
2.1200,-0.2759,-0.0264,0.2896,3.0272,-8.9119,-2.7531,-1.3347,-0.4617,-0.3688
2.1300,-0.1921,-0.2384,0.1503,3.0087,-8.9586,-2.6186,-1.3265,-0.5184,-0.3369
2.1400,-0.1476,-0.3056,0.2250,2.9936,-9.0022,-2.4830,-1.3198,-0.5573,-0.3028
2.1500,-0.1694,-0.3053,0.2364,2.9812,-9.0428,-2.3463,-1.3135,-0.5850,-0.2739
2.1600,-0.1535,-0.2878,0.1424,2.9710,-9.0806,-2.2094,-1.3027,-0.5995,-0.2450
2.1700,-0.1217,-0.2437,0.0820,2.9628,-9.1154,-2.0728,-1.2901,-0.6029,-0.2155
2.1800,-0.0255,-0.0930,0.2144,2.9562,-9.1475,-1.9364,-1.3009,-0.5679,-0.1864
2.1900,0.0180,0.0806,0.2946,2.9505,-9.1773,-1.7992,-1.3271,-0.5185,-0.1602
2.2000,-0.0336,0.1327,0.1422,2.9451,-9.2050,-1.6610,-1.3386,-0.4839,-0.1449
2.2100,-0.0597,0.1711,0.1398,2.9391,-9.2309,-1.5226,-1.3550,-0.4432,-0.1484
2.2200,-0.0793,0.2438,0.2918,2.9308,-9.2555,-1.3824,-1.3904,-0.4101,-0.1653
2.2300,-0.2094,0.1604,0.1086,2.9197,-9.2792,-1.2397,-1.4058,-0.4238,-0.1922
2.2400,-0.3486,0.0053,-0.2339,2.9051,-9.3018,-1.0965,-1.3786,-0.4604,-0.2319
2.2500,-0.3158,-0.0782,-0.2491,2.8860,-9.3233,-0.9553,-1.3495,-0.4657,-0.2745
2.2600,-0.2650,-0.2316,-0.2036,2.8624,-9.3438,-0.8162,-1.3284,-0.4542,-0.3134
2.2700,-0.3244,-0.4755,-0.3412,2.8345,-9.3632,-0.6798,-1.2921,-0.4591,-0.3494
2.2800,-0.3818,-0.7028,-0.5944,2.8027,-9.3814,-0.5478,-1.2235,-0.4720,-0.3841
2.2900,-0.3098,-0.7043,-0.7422,2.7671,-9.3984,-0.4239,-1.1215,-0.4444,-0.4157
2.3000,-0.1978,-0.4467,-0.6586,2.7283,-9.4142,-0.3116,-1.0167,-0.3753,-0.4312
2.3100,-0.1410,-0.2000,-0.5038,2.6884,-9.4285,-0.2100,-0.9354,-0.3075,-0.4282
2.3200,-0.1015,-0.0732,-0.3384,2.6490,-9.4413,-0.1162,-0.8854,-0.2592,-0.4109
2.3300,-0.0815,0.0247,-0.1113,2.6115,-9.4524,-0.0260,-0.8832,-0.2390,-0.3821
2.3400,-0.0382,0.0953,0.0772,2.5768,-9.4617,0.0660,-0.9244,-0.2401,-0.3460
2.3500,0.0116,0.1747,0.1216,2.5453,-9.4690,0.1625,-0.9738,-0.2420,-0.3096
2.3600,0.0165,0.3147,0.0914,2.5167,-9.4744,0.2634,-1.0163,-0.2360,-0.2796
2.3700,-0.0176,0.4288,0.0043,2.4907,-9.4778,0.3674,-1.0374,-0.2406,-0.2505
2.3800,-0.0336,0.5721,-0.1136,2.4672,-9.4793,0.4721,-1.0262,-0.2589,-0.2183
2.3900,-0.0361,0.7187,-0.1995,2.4463,-9.4791,0.5753,-1.0006,-0.2773,-0.1912
2.4000,-0.0371,0.6774,-0.2043,2.4272,-9.4773,0.6766,-0.9792,-0.2963,-0.1730
2.4100,-0.0302,0.4953,-0.1257,2.4091,-9.4742,0.7769,-0.9758,-0.3121,-0.1627
2.4200,-0.0261,0.2653,-0.0694,2.3911,-9.4699,0.8781,-0.9932,-0.3207,-0.1625
2.4300,-0.0093,0.0218,-0.0709,2.3722,-9.4645,0.9816,-1.0177,-0.3264,-0.1697
2.4400,0.0306,-0.1091,-0.1318,2.3522,-9.4580,1.0866,-1.0247,-0.3193,-0.1785
2.4500,0.0611,-0.0777,-0.2832,2.3313,-9.4507,1.1900,-0.9947,-0.2819,-0.1886
2.4600,0.0069,0.0751,-0.4555,2.3096,-9.4433,1.2875,-0.9298,-0.2294,-0.2016
2.4700,-0.1368,0.2254,-0.5286,2.2867,-9.4363,1.3767,-0.8497,-0.1918,-0.2191
2.4800,-0.2607,0.2542,-0.4769,2.2623,-9.4300,1.4578,-0.7737,-0.1741,-0.2404
2.4900,-0.3209,0.2129,-0.3360,2.2359,-9.4245,1.5326,-0.7282,-0.1782,-0.2592
2.5000,-0.3402,0.1389,-0.1961,2.2079,-9.4189,1.6057,-0.7297,-0.2113,-0.2652
2.5100,-0.2543,0.0169,-0.1600,2.1793,-9.4124,1.6812,-0.7550,-0.2533,-0.2562
2.5200,-0.0750,-0.0873,-0.2144,2.1512,-9.4045,1.7594,-0.7750,-0.2749,-0.2393
2.5300,0.0775,-0.1270,-0.3200,2.1245,-9.3955,1.8383,-0.7680,-0.2591,-0.2248
2.5400,0.1427,-0.1418,-0.4739,2.0992,-9.3861,1.9138,-0.7194,-0.2154,-0.2181
2.5500,0.1553,-0.1630,-0.5985,2.0749,-9.3775,1.9817,-0.6312,-0.1558,-0.2212
2.5600,0.1625,-0.1754,-0.6148,2.0509,-9.3706,2.0386,-0.5225,-0.0880,-0.2352
2.5700,0.1287,-0.1420,-0.5293,2.0266,-9.3658,2.0844,-0.4270,-0.0389,-0.2535
2.5800,0.0579,-0.0619,-0.4407,2.0016,-9.3627,2.1222,-0.3641,-0.0326,-0.2601
2.5900,0.0145,0.0734,-0.4121,1.9767,-9.3603,2.1557,-0.3325,-0.0705,-0.2443
2.6000,0.0271,0.2166,-0.3793,1.9528,-9.3577,2.1888,-0.3329,-0.1365,-0.2133
2.6100,0.0583,0.3337,-0.3919,1.9305,-9.3539,2.2243,-0.3519,-0.2193,-0.1771
2.6200,0.1073,0.4288,-0.5041,1.9096,-9.3490,2.2627,-0.3589,-0.2883,-0.1456
2.6300,0.1611,0.5345,-0.6256,1.8899,-9.3434,2.3020,-0.3449,-0.3340,-0.1228
2.6400,0.1864,0.6367,-0.6764,1.8741,-9.3387,2.3338,-0.3239,-0.3600,-0.1083
2.6500,0.1966,0.6632,-0.6787,1.8680,-9.3369,2.3460,-0.3133,-0.3645,-0.1039
2.6600,0.2463,0.6884,-0.6369,1.8529,-9.3325,2.3750,-0.2846,-0.3570,-0.0972
2.6700,0.2603,0.5938,-0.4869,1.8358,-9.3278,2.4068,-0.2577,-0.3390,-0.0897
2.6800,0.2086,0.3725,-0.2269,1.8197,-9.3231,2.4368,-0.2586,-0.3391,-0.0766
2.6900,0.2178,0.0768,0.0585,1.8048,-9.3177,2.4684,-0.2859,-0.3365,-0.0637
2.7000,0.2820,-0.1454,0.2298,1.7913,-9.3112,2.5024,-0.3146,-0.3002,-0.0529
2.7100,0.2620,-0.2233,0.1839,1.7803,-9.3040,2.5370,-0.3136,-0.2557,-0.0316
2.7200,0.1749,-0.1770,0.0309,1.7727,-9.2969,2.5683,-0.2634,-0.2072,-0.0031
2.7300,0.0533,0.0333,-0.0189,1.7689,-9.2907,2.5930,-0.1986,-0.1570,0.0233
2.7400,-0.1056,0.4371,0.0641,1.7682,-9.2853,2.6129,-0.1786,-0.1165,0.0374
2.7500,-0.2463,0.7016,0.0960,1.7689,-9.2799,2.6314,-0.1803,-0.0755,0.0309
2.7600,-0.3912,0.6015,0.0539,1.7694,-9.2749,2.6486,-0.1659,-0.0579,0.0148
2.7700,-0.5136,0.3706,0.0756,1.7679,-9.2707,2.6644,-0.1508,-0.0768,-0.0092
2.7800,-0.5393,0.1516,0.1388,1.7630,-9.2671,2.6800,-0.1506,-0.1187,-0.0430
2.7900,-0.5096,0.0208,0.1736,1.7532,-9.2639,2.6974,-0.1711,-0.1716,-0.0814
2.8000,-0.4588,-0.0823,0.0621,1.7384,-9.2608,2.7176,-0.1879,-0.2234,-0.1191
2.8100,-0.3810,-0.1753,-0.1868,1.7189,-9.2581,2.7391,-0.1793,-0.2658,-0.1522
2.8200,-0.3052,-0.1943,-0.3952,1.6958,-9.2564,2.7593,-0.1488,-0.3033,-0.1722
2.8300,-0.2158,-0.1045,-0.5273,1.6708,-9.2558,2.7766,-0.1062,-0.3321,-0.1720
2.8400,-0.1300,0.0359,-0.5986,1.6459,-9.2562,2.7899,-0.0595,-0.3485,-0.1546
2.8500,-0.0886,0.0990,-0.5492,1.6229,-9.2575,2.7992,-0.0207,-0.3632,-0.1245
2.8600,-0.0439,0.0759,-0.4006,1.6027,-9.2589,2.8061,-0.0036,-0.3742,-0.0859
2.8700,0.0041,-0.0479,-0.2424,1.5860,-9.2598,2.8127,-0.0115,-0.3750,-0.0466
2.8800,0.0416,-0.2293,-0.1316,1.5727,-9.2596,2.8207,-0.0364,-0.3517,-0.0185
2.8900,0.0705,-0.2934,-0.1212,1.5622,-9.2584,2.8305,-0.0654,-0.2976,-0.0094
2.9000,0.0596,-0.2488,-0.2845,1.5537,-9.2566,2.8412,-0.0737,-0.2229,-0.0151
2.9100,0.0448,-0.2809,-0.5343,1.5466,-9.2552,2.8496,-0.0377,-0.1387,-0.0236
2.9200,0.0299,-0.3370,-0.6699,1.5415,-9.2554,2.8515,0.0308,-0.0567,-0.0256
2.9300,-0.0362,-0.2775,-0.6119,1.5389,-9.2574,2.8464,0.0791,0.0066,-0.0166
2.9400,-0.1265,-0.1667,-0.4621,1.5389,-9.2599,2.8385,0.0767,0.0380,0.0008
2.9500,-0.2114,-0.0870,-0.3966,1.5408,-9.2616,2.8317,0.0555,0.0523,0.0107
2.9600,-0.2985,-0.0338,-0.4407,1.5431,-9.2630,2.8259,0.0523,0.0634,-0.0010
2.9700,-0.3774,0.0548,-0.5195,1.5436,-9.2650,2.8190,0.0741,0.0690,-0.0330
2.9800,-0.4352,0.1503,-0.5660,1.5404,-9.2685,2.8094,0.1114,0.0572,-0.0758
2.9900,-0.4761,0.1907,-0.5767,1.5325,-9.2737,2.7965,0.1507,0.0050,-0.1115
3.0000,-0.4861,0.1899,-0.5690,1.5201,-9.2802,2.7815,0.1805,-0.0853,-0.1258
3.0100,-0.4563,0.1324,-0.4908,1.5049,-9.2873,2.7661,0.1900,-0.1881,-0.1148
3.0200,-0.3781,0.0091,-0.3398,1.4892,-9.2939,2.7526,0.1717,-0.2806,-0.0777
3.0300,-0.2492,-0.0723,-0.2426,1.4759,-9.2989,2.7426,0.1426,-0.3354,-0.0214
3.0400,-0.1284,-0.0378,-0.2149,1.4674,-9.3023,2.7359,0.1126,-0.3406,0.0420
3.0500,-0.0139,-0.0144,-0.2476,1.4654,-9.3041,2.7305,0.1070,-0.2947,0.1005
3.0600,0.0619,0.0421,-0.2817,1.4698,-9.3055,2.7235,0.1270,-0.2067,0.1387
3.0700,0.0858,0.0925,-0.2144,1.4791,-9.3072,2.7125,0.1531,-0.0982,0.1457
3.0800,0.1236,-0.0567,-0.0229,1.4907,-9.3098,2.6972,0.1840,0.0171,0.1240
3.0900,0.1865,-0.4276,0.2076,1.5025,-9.3137,2.6774,0.2166,0.1257,0.0843
3.1000,0.2128,-0.6180,0.4474,1.5129,-9.3187,2.6541,0.2231,0.2056,0.0431
3.1100,0.2050,-0.5292,0.6810,1.5215,-9.3238,2.6309,0.1916,0.2658,0.0100
3.1200,0.1941,-0.4022,0.7546,1.5293,-9.3283,2.6103,0.1495,0.3226,-0.0062
3.1300,0.1990,-0.2539,0.8182,1.5384,-9.3316,2.5932,0.0992,0.3762,0.0087
3.1400,0.1877,-0.0805,1.0035,1.5519,-9.3326,2.5817,0.0182,0.3989,0.0691
3.1500,0.2177,-0.0243,1.1733,1.5731,-9.3300,2.5781,-0.0714,0.4057,0.1666
3.1600,0.3358,-0.1383,1.1720,1.6048,-9.3241,2.5799,-0.1088,0.4564,0.2713
3.1700,0.3990,-0.2500,1.0982,1.6473,-9.3164,2.5810,-0.0884,0.5496,0.3557
3.1800,0.2471,-0.1912,1.1279,1.6983,-9.3082,2.5772,-0.0499,0.6442,0.3927
3.1900,-0.1485,0.1492,1.1749,1.7516,-9.3005,2.5694,-0.0357,0.6776,0.3702
3.2000,-0.6165,0.5436,1.1597,1.7999,-9.2932,2.5624,-0.0665,0.6035,0.3011
3.2100,-0.9998,0.8203,1.0284,1.8373,-9.2861,2.5618,-0.1278,0.4370,0.2092
3.2200,-1.2627,0.9499,0.7298,1.8610,-9.2789,2.5707,-0.1928,0.2126,0.1203
3.2300,-1.3728,0.7965,0.3639,1.8714,-9.2716,2.5894,-0.2402,-0.0388,0.0583
3.2400,-1.3140,0.3968,-0.0008,1.8712,-9.2644,2.6154,-0.2501,-0.2798,0.0325
3.2500,-1.1920,0.0154,-0.2702,1.8639,-9.2573,2.6455,-0.2381,-0.5045,0.0397
3.2600,-1.1170,-0.2309,-0.3102,1.8525,-9.2497,2.6797,-0.2497,-0.7304,0.0730
3.2700,-0.9509,-0.3931,-0.2425,1.8386,-9.2410,2.7192,-0.2689,-0.8923,0.1007
3.2800,-0.6198,-0.5405,-0.1811,1.8226,-9.2320,2.7603,-0.2529,-0.9113,0.0897
3.2900,-0.2889,-0.6175,-0.0862,1.8045,-9.2242,2.7979,-0.2170,-0.7946,0.0332
3.3000,-0.0261,-0.5417,-0.0426,1.7839,-9.2188,2.8288,-0.1817,-0.5854,-0.0541
3.3100,0.0701,-0.3259,-0.1364,1.7614,-9.2154,2.8538,-0.1777,-0.3847,-0.1301
3.3200,0.0537,-0.1477,-0.3236,1.7384,-9.2124,2.8775,-0.2152,-0.2668,-0.1610
3.3300,0.1253,-0.1372,-0.5807,1.7171,-9.2084,2.9030,-0.2444,-0.2063,-0.1471
3.3400,0.2891,-0.2384,-0.8027,1.6999,-9.2036,2.9281,-0.2240,-0.1498,-0.1083
3.3500,0.4650,-0.3012,-0.8556,1.6890,-9.1993,2.9478,-0.1599,-0.0617,-0.0591
3.3600,0.5856,-0.1999,-0.7208,1.6858,-9.1961,2.9598,-0.0989,0.0464,-0.0050
3.3700,0.5822,-0.0745,-0.4976,1.6906,-9.1932,2.9659,-0.0723,0.1343,0.0468
3.3800,0.4735,-0.0551,-0.3653,1.7017,-9.1900,2.9696,-0.0681,0.1752,0.0907
3.3900,0.3291,-0.0848,-0.3441,1.7169,-9.1861,2.9728,-0.0666,0.1653,0.1244
3.4000,0.1711,-0.1201,-0.3606,1.7337,-9.1819,2.9761,-0.0581,0.1117,0.1461
3.4100,-0.0026,-0.0948,-0.3745,1.7498,-9.1777,2.9796,-0.0447,0.0244,0.1547
3.4200,-0.1474,-0.0197,-0.3283,1.7633,-9.1738,2.9836,-0.0335,-0.0689,0.1500
3.4300,-0.2236,0.0250,-0.1753,1.7732,-9.1705,2.9881,-0.0260,-0.1327,0.1321
3.4400,-0.2758,0.0882,0.0020,1.7798,-9.1677,2.9927,-0.0213,-0.1493,0.1034
3.4500,-0.3622,0.2164,0.0965,1.7834,-9.1655,2.9973,-0.0242,-0.1344,0.0674
3.4600,-0.4785,0.2674,0.1083,1.7842,-9.1637,3.0023,-0.0377,-0.1256,0.0350
3.4700,-0.5610,0.1863,0.0311,1.7824,-9.1619,3.0088,-0.0508,-0.1423,0.0155
3.4800,-0.5431,0.1197,-0.1430,1.7785,-9.1602,3.0162,-0.0479,-0.1737,0.0066
3.4900,-0.4496,0.1091,-0.2916,1.7732,-9.1590,3.0231,-0.0305,-0.1965,0.0035
3.5000,-0.2976,0.0925,-0.2649,1.7673,-9.1583,3.0285,-0.0138,-0.1891,-0.0029
3.5100,-0.0964,0.0146,-0.0840,1.7613,-9.1582,3.0325,-0.0094,-0.1419,-0.0185
3.5200,0.0749,-0.1306,0.1051,1.7553,-9.1583,3.0357,-0.0190,-0.0777,-0.0392
3.5300,0.1841,-0.2267,0.1596,1.7491,-9.1584,3.0388,-0.0308,-0.0325,-0.0613
3.5400,0.2508,-0.2142,0.0490,1.7418,-9.1586,3.0424,-0.0359,-0.0244,-0.0795
3.5500,0.2726,-0.1638,-0.1106,1.7329,-9.1589,3.0465,-0.0386,-0.0564,-0.0880
3.5600,0.2553,-0.0989,-0.2388,1.7221,-9.1593,3.0516,-0.0393,-0.1153,-0.0881
3.5700,0.2255,-0.0343,-0.3528,1.7097,-9.1597,3.0573,-0.0298,-0.1822,-0.0802
3.5800,0.2072,-0.0180,-0.3921,1.6965,-9.1604,3.0626,-0.0087,-0.2340,-0.0655
3.5900,0.1922,-0.0261,-0.2724,1.6837,-9.1614,3.0666,0.0095,-0.2497,-0.0503
3.6000,0.1417,-0.0342,-0.0664,1.6721,-9.1626,3.0695,0.0150,-0.2289,-0.0410
3.6100,0.0671,-0.0233,0.1160,1.6620,-9.1637,3.0716,0.0118,-0.1830,-0.0398
3.6200,0.0352,-0.0221,0.2770,1.6533,-9.1646,3.0735,0.0014,-0.1238,-0.0454
3.6300,0.0365,-0.0612,0.3509,1.6458,-9.1653,3.0757,-0.0166,-0.0696,-0.0539
3.6400,0.0359,-0.0448,0.2278,1.6387,-9.1654,3.0790,-0.0367,-0.0436,-0.0622
3.6500,0.0585,0.0477,-0.0344,1.6311,-9.1651,3.0839,-0.0537,-0.0539,-0.0708
3.6600,0.0846,0.1075,-0.2995,1.6221,-9.1645,3.0905,-0.0635,-0.0911,-0.0783
3.6700,0.0904,0.0903,-0.4934,1.6111,-9.1639,3.0980,-0.0598,-0.1393,-0.0815
3.6800,0.1078,0.0339,-0.5943,1.5988,-9.1636,3.1053,-0.0442,-0.1752,-0.0769
3.6900,0.1418,-0.0035,-0.6140,1.5867,-9.1637,3.1112,-0.0219,-0.1843,-0.0621
3.7000,0.1411,-0.0115,-0.5739,1.5763,-9.1642,3.1150,-0.0008,-0.1727,-0.0403
3.7100,0.0899,-0.0218,-0.5049,1.5684,-9.1649,3.1170,0.0096,-0.1533,-0.0197
3.7200,0.0475,-0.0673,-0.4262,1.5629,-9.1654,3.1183,0.0096,-0.1310,-0.0043
3.7300,0.0590,-0.1278,-0.3480,1.5593,-9.1657,3.1192,0.0090,-0.1012,0.0048
3.7400,0.0893,-0.1368,-0.2939,1.5573,-9.1660,3.1194,0.0145,-0.0647,0.0074
3.7500,0.0978,-0.1222,-0.2425,1.5564,-9.1664,3.1186,0.0181,-0.0329,0.0062
3.7600,0.0860,-0.1441,-0.1935,1.5562,-9.1669,3.1172,0.0192,-0.0138,0.0074
3.7700,0.0463,-0.1631,-0.1878,1.5568,-9.1675,3.1152,0.0280,-0.0104,0.0142
3.7800,0.0002,-0.1329,-0.2053,1.5583,-9.1682,3.1122,0.0426,-0.0225,0.0272
3.7900,-0.0313,-0.0751,-0.1932,1.5606,-9.1692,3.1083,0.0526,-0.0430,0.0437
3.8000,-0.0534,-0.0154,-0.1490,1.5635,-9.1701,3.1041,0.0542,-0.0633,0.0534
3.8100,-0.0585,0.0537,-0.1151,1.5662,-9.1709,3.1003,0.0495,-0.0768,0.0503
3.8200,-0.0439,0.0964,-0.0839,1.5678,-9.1716,3.0974,0.0403,-0.0811,0.0382
3.8300,-0.0303,0.0841,-0.0594,1.5681,-9.1722,3.0954,0.0302,-0.0831,0.0230
3.8400,-0.0214,0.0317,-0.0776,1.5670,-9.1728,3.0943,0.0240,-0.0928,0.0116
3.8500,-0.0286,-0.0356,-0.1038,1.5647,-9.1734,3.0937,0.0225,-0.1119,0.0076
3.8600,-0.0576,-0.0595,-0.1125,1.5615,-9.1740,3.0935,0.0216,-0.1329,0.0078
3.8700,-0.0821,-0.0431,-0.1024,1.5578,-9.1746,3.0936,0.0216,-0.1462,0.0073
3.8800,-0.1195,-0.0113,-0.0993,1.5536,-9.1752,3.0938,0.0249,-0.1521,0.0017
3.8900,-0.1628,0.0135,-0.0816,1.5487,-9.1761,3.0938,0.0264,-0.1541,-0.0074
3.9000,-0.1756,-0.0048,-0.0377,1.5427,-9.1770,3.0939,0.0192,-0.1515,-0.0190
3.9100,-0.1645,-0.0455,-0.0423,1.5358,-9.1779,3.0948,0.0119,-0.1430,-0.0311
3.9200,-0.1463,-0.0761,-0.1009,1.5281,-9.1788,3.0959,0.0094,-0.1311,-0.0413
3.9300,-0.1155,-0.0996,-0.1562,1.5200,-9.1798,3.0969,0.0110,-0.1213,-0.0495
3.9400,-0.0678,-0.1212,-0.1795,1.5116,-9.1810,3.0974,0.0151,-0.1162,-0.0516
3.9500,-0.0081,-0.1095,-0.1793,1.5034,-9.1823,3.0976,0.0163,-0.1123,-0.0473
3.9600,0.0573,-0.0591,-0.1848,1.4960,-9.1835,3.0976,0.0179,-0.1028,-0.0393
3.9700,0.1240,-0.0178,-0.1844,1.4898,-9.1847,3.0971,0.0222,-0.0852,-0.0307
3.9800,0.1572,-0.0112,-0.1624,1.4849,-9.1858,3.0961,0.0244,-0.0702,-0.0231
3.9900,0.3357,-0.0217,-0.0940,1.4830,-9.1867,3.0946,0.0202,0.0099,0.0185
4.0000,0.7675,-0.0736,-0.0163,1.4935,-9.1862,3.0910,0.0148,0.2741,0.1279
4.0100,0.7059,-0.0965,-0.0306,1.5231,-9.1840,3.0828,0.0209,0.5646,0.2116
4.0200,-0.0276,-0.0538,-0.0682,1.5609,-9.1816,3.0710,0.0258,0.6314,0.1765
4.0300,-0.7413,-0.0643,-0.0830,1.5886,-9.1804,3.0605,0.0115,0.4358,0.0505
4.0400,-1.0810,-0.0913,-0.1417,1.5944,-9.1808,3.0563,-0.0077,0.0662,-0.0930
4.0500,-0.9481,-0.0652,-0.2177,1.5771,-9.1828,3.0592,-0.0095,-0.3162,-0.1875
4.0600,-0.5471,-0.0462,-0.1710,1.5437,-9.1859,3.0669,-0.0012,-0.5947,-0.2177
4.0700,-0.0666,-0.0683,0.0511,1.5038,-9.1891,3.0773,-0.0067,-0.7074,-0.1985
4.0800,0.4193,-0.0697,0.3014,1.4665,-9.1912,3.0889,-0.0267,-0.6312,-0.1481
4.0900,0.7467,-0.0702,0.4446,1.4393,-9.1918,3.1000,-0.0469,-0.4034,-0.0876
4.1000,0.8196,-0.0873,0.3930,1.4258,-9.1910,3.1085,-0.0563,-0.1005,-0.0325
4.1100,0.7007,-0.0458,0.1520,1.4266,-9.1894,3.1129,-0.0530,0.1890,0.0173
4.1200,0.5075,0.0581,-0.1174,1.4401,-9.1872,3.1130,-0.0459,0.4051,0.0687
4.1300,0.2794,0.1213,-0.3188,1.4636,-9.1845,3.1102,-0.0410,0.5277,0.1181
4.1400,-0.0035,0.0882,-0.4509,1.4932,-9.1813,3.1054,-0.0315,0.5506,0.1508
4.1500,-0.3245,0.0160,-0.5389,1.5234,-9.1783,3.0998,-0.0163,0.4731,0.1523
4.1600,-0.5902,-0.0567,-0.6059,1.5485,-9.1759,3.0944,-0.0017,0.3199,0.1181
4.1700,-0.6932,-0.1143,-0.6193,1.5638,-9.1747,3.0903,0.0121,0.1368,0.0571
4.1800,-0.6046,-0.1760,-0.5097,1.5675,-9.1749,3.0877,0.0257,-0.0277,-0.0121
4.1900,-0.3751,-0.1782,-0.3021,1.5610,-9.1766,3.0861,0.0347,-0.1321,-0.0675
4.2000,-0.1153,-0.0674,-0.0982,1.5485,-9.1790,3.0852,0.0360,-0.1673,-0.0951
4.2100,0.0888,0.0295,0.0588,1.5347,-9.1815,3.0846,0.0301,-0.1518,-0.0913
4.2200,0.2182,0.0362,0.1487,1.5234,-9.1835,3.0844,0.0179,-0.1100,-0.0620
4.2300,0.2431,0.0148,0.1202,1.5167,-9.1845,3.0846,0.0063,-0.0652,-0.0227
4.2400,0.1747,0.0346,0.0131,1.5149,-9.1847,3.0850,0.0013,-0.0283,0.0147
4.2500,0.0641,0.0519,-0.0846,1.5171,-9.1842,3.0852,-0.0009,-0.0077,0.0425
4.2600,-0.0794,0.0495,-0.1683,1.5214,-9.1835,3.0854,-0.0009,-0.0089,0.0532
4.2700,-0.2141,0.0663,-0.2214,1.5255,-9.1828,3.0855,0.0018,-0.0265,0.0445
4.2800,-0.3146,0.0715,-0.2313,1.5273,-9.1824,3.0857,0.0051,-0.0598,0.0210
4.2900,-0.3643,0.0512,-0.2267,1.5252,-9.1826,3.0863,0.0095,-0.1082,-0.0103
4.3000,-0.3635,0.0089,-0.2329,1.5183,-9.1834,3.0872,0.0140,-0.1650,-0.0459
4.3100,-0.3405,-0.0672,-0.2185,1.5064,-9.1848,3.0887,0.0161,-0.2224,-0.0813
4.3200,-0.2851,-0.1514,-0.1753,1.4897,-9.1868,3.0910,0.0154,-0.2752,-0.1119
4.3300,-0.1647,-0.2466,-0.1198,1.4693,-9.1890,3.0942,0.0102,-0.3057,-0.1287
4.3400,0.1701,-0.2682,-0.0902,1.4501,-9.1910,3.0973,0.0117,-0.2296,-0.1000
4.3500,0.3820,-0.1068,-0.1057,1.4379,-9.1927,3.0978,0.0261,-0.0837,-0.0593
4.3600,0.3268,0.0371,-0.0289,1.4325,-9.1944,3.0955,0.0247,0.0316,-0.0448
4.3700,0.3056,0.0280,0.0546,1.4311,-9.1953,3.0934,0.0081,0.1011,-0.0348
4.3800,0.2988,-0.0003,0.0510,1.4313,-9.1955,3.0928,0.0019,0.1197,-0.0306
4.3900,0.2425,-0.0664,-0.0053,1.4327,-9.1957,3.0914,-0.0058,0.1374,-0.0223
4.4000,0.1398,-0.1367,-0.0466,1.4349,-9.1958,3.0902,-0.0106,0.1082,-0.0185
4.4100,0.0598,-0.1841,0.0123,1.4354,-9.1956,3.0905,-0.0206,0.0423,-0.0228
