seconds_elapsed,acc_z,acc_y,acc_x,grav_z,grav_y,grav_x,gyro_z,gyro_y,gyro_x
0.0300,-0.0357,0.0129,0.0213,1.1062,-9.2442,3.0809,-0.0529,0.1984,0.0758
0.0400,-0.0774,-0.0016,-0.0443,1.1191,-9.2417,3.0836,-0.0521,0.1845,0.0705
0.0500,-0.1069,-0.0184,-0.1278,1.1305,-9.2394,3.0863,-0.0473,0.1684,0.0567
0.0600,-0.1230,-0.0556,-0.1688,1.1399,-9.2375,3.0886,-0.0424,0.1567,0.0389
0.0700,-0.1336,-0.0713,-0.1816,1.1473,-9.2359,3.0907,-0.0393,0.1476,0.0212
0.0800,-0.1426,-0.0381,-0.2071,1.1530,-9.2346,3.0925,-0.0337,0.1364,0.0067
0.0900,-0.1698,-0.0137,-0.2289,1.1571,-9.2336,3.0938,-0.0244,0.1188,-0.0040
0.1000,-0.1936,-0.0090,-0.2307,1.1598,-9.2331,3.0945,-0.0147,0.0964,-0.0093
0.1100,-0.1762,-0.0141,-0.1713,1.1616,-9.2328,3.0945,-0.0083,0.0753,-0.0094
0.1200,-0.1556,-0.0137,-0.0673,1.1629,-9.2328,3.0942,-0.0035,0.0635,-0.0069
0.1300,-0.1281,-0.0045,0.0093,1.1645,-9.2327,3.0937,-0.0011,0.0646,-0.0026
0.1400,-0.1042,-0.0107,0.0741,1.1667,-9.2327,3.0931,-0.0037,0.0748,0.0033
0.1500,-0.1072,-0.0207,0.1070,1.1698,-9.2324,3.0927,-0.0071,0.0830,0.0106
0.1600,-0.1220,-0.0184,0.0966,1.1738,-9.2319,3.0926,-0.0101,0.0797,0.0185
0.1700,-0.1246,-0.0183,0.0669,1.1781,-9.2313,3.0928,-0.0138,0.0655,0.0245
0.1800,-0.1132,-0.0289,0.0338,1.1822,-9.2305,3.0935,-0.0170,0.0449,0.0269
0.1900,-0.1102,-0.0618,0.0060,1.1858,-9.2297,3.0947,-0.0176,0.0241,0.0264
0.2000,-0.1093,-0.0870,-0.0084,1.1885,-9.2289,3.0960,-0.0144,0.0057,0.0229
0.2100,-0.0917,-0.1012,-0.0224,1.1905,-9.2283,3.0971,-0.0075,-0.0039,0.0195
0.2200,-0.0699,-0.0684,-0.0263,1.1921,-9.2280,3.0972,0.0062,0.0076,0.0151
0.2300,-0.0622,0.0189,0.0033,1.1938,-9.2284,3.0955,0.0249,0.0433,0.0047
0.2400,-0.0475,0.0631,0.0489,1.1959,-9.2294,3.0916,0.0415,0.0929,-0.0062
0.2500,-0.0390,0.0676,0.0777,1.1987,-9.2310,3.0858,0.0518,0.1373,-0.0096
0.2600,-0.0276,0.0451,0.1298,1.2028,-9.2327,3.0792,0.0499,0.1633,-0.0039
0.2700,-0.0144,0.0070,0.2019,1.2080,-9.2341,3.0729,0.0428,0.1726,0.0055
0.2800,-0.0327,0.0225,0.1998,1.2142,-9.2353,3.0668,0.0447,0.1802,0.0117
0.2900,-0.0491,0.0890,0.1440,1.2212,-9.2367,3.0599,0.0550,0.2038,0.0111
0.3000,-0.0401,0.1630,0.0878,1.2287,-9.2384,3.0516,0.0639,0.2490,0.0024
0.3100,-0.0283,0.2284,0.0472,1.2368,-9.2406,3.0418,0.0722,0.3025,-0.0125
0.3200,-0.0431,0.2410,-0.0176,1.2446,-9.2433,3.0302,0.0945,0.3360,-0.0285
0.3300,-0.1157,0.1930,-0.1865,1.2516,-9.2473,3.0152,0.1407,0.3321,-0.0411
0.3400,-0.1980,0.0967,-0.3697,1.2569,-9.2530,2.9954,0.1975,0.2915,-0.0448
0.3500,-0.2386,-0.0326,-0.4554,1.2607,-9.2602,2.9713,0.2474,0.2333,-0.0393
0.3600,-0.2394,-0.1225,-0.4736,1.2635,-9.2686,2.9438,0.2858,0.1822,-0.0331
0.3700,-0.2302,-0.1266,-0.4618,1.2652,-9.2779,2.9139,0.3114,0.1471,-0.0331
0.3800,-0.2444,-0.0904,-0.4434,1.2658,-9.2877,2.8823,0.3273,0.1302,-0.0402
0.3900,-0.2604,-0.0152,-0.4026,1.2651,-9.2978,2.8498,0.3283,0.1295,-0.0550
0.4000,-0.2751,0.1287,-0.3347,1.2627,-9.3078,2.8180,0.3120,0.1364,-0.0775
0.4100,-0.3021,0.2512,-0.2511,1.2579,-9.3175,2.7878,0.2951,0.1458,-0.1078
0.4200,-0.3297,0.2667,-0.1601,1.2501,-9.3271,2.7590,0.2831,0.1388,-0.1428
0.4300,-0.3804,0.2336,-0.0992,1.2385,-9.3368,2.7312,0.2764,0.0976,-0.1751
0.4400,-0.4749,0.2277,-0.0573,1.2223,-9.3468,2.7043,0.2783,0.0392,-0.2086
0.4500,-0.5191,0.2381,-0.0185,1.2012,-9.3572,2.6777,0.2832,-0.0181,-0.2463
0.4600,-0.4864,0.2136,0.0361,1.1748,-9.3681,2.6512,0.2904,-0.0649,-0.2889
0.4700,-0.4282,0.1732,0.0903,1.1429,-9.3796,2.6242,0.3034,-0.0982,-0.3385
0.4800,-0.3709,0.1691,0.1174,1.1058,-9.3919,2.5961,0.3158,-0.1157,-0.3860
0.4900,-0.2112,0.1712,0.1194,1.0645,-9.4046,2.5669,0.3293,-0.1179,-0.4185
0.5000,-0.0493,0.1738,0.1230,1.0211,-9.4178,2.5362,0.3489,-0.1106,-0.4339
0.5100,0.0289,0.2023,0.0152,0.9773,-9.4313,2.5029,0.3776,-0.1036,-0.4280
0.5200,0.0811,0.2804,-0.2171,0.9353,-9.4454,2.4657,0.4296,-0.1052,-0.3995
0.5300,0.0954,0.3444,-0.3023,0.8967,-9.4603,2.4224,0.5043,-0.1073,-0.3593
0.5400,0.0696,0.4037,-0.3692,0.8624,-9.4765,2.3710,0.5941,-0.1089,-0.3053
0.5500,0.0405,0.4223,-0.3527,0.8336,-9.4938,2.3113,0.6707,-0.0947,-0.2474
0.5600,0.0297,0.3201,-0.1989,0.8105,-9.5115,2.2458,0.7065,-0.0587,-0.2005
0.5700,0.0092,0.1425,-0.1238,0.7922,-9.5287,2.1784,0.7070,-0.0190,-0.1619
0.5800,0.0208,0.0419,-0.0625,0.7781,-9.5449,2.1115,0.6847,0.0302,-0.1320
0.5900,0.0566,-0.1309,0.0685,0.7680,-9.5598,2.0467,0.6552,0.0842,-0.1047
0.6000,0.1405,-0.3156,0.2901,0.7614,-9.5735,1.9845,0.6188,0.1447,-0.0808
0.6100,0.2041,-0.2889,0.4859,0.7577,-9.5856,1.9265,0.5561,0.2346,-0.0749
0.6200,0.2147,-0.2532,0.5824,0.7556,-9.5961,1.8745,0.4795,0.3401,-0.0844
0.6300,0.2037,-0.2435,0.6040,0.7544,-9.6051,1.8282,0.4206,0.4484,-0.0938
0.6400,0.2278,-0.1926,0.5690,0.7544,-9.6132,1.7853,0.3948,0.5465,-0.0931
0.6500,0.2307,-0.1609,0.4699,0.7564,-9.6209,1.7422,0.4084,0.6244,-0.0775
0.6600,0.2461,-0.1490,0.3620,0.7620,-9.6289,1.6952,0.4539,0.7132,-0.0431
0.6700,0.3163,-0.2414,0.4115,0.7721,-9.6369,1.6444,0.4620,0.8253,-0.0154
0.6800,0.2508,-0.4286,0.7374,0.7852,-9.6441,1.5953,0.4000,0.9225,-0.0098
0.6900,0.0546,-0.5694,0.9526,0.7996,-9.6497,1.5537,0.3032,0.9530,0.0004
0.7000,-0.1247,-0.6900,0.9285,0.8148,-9.6534,1.5227,0.1786,0.8824,0.0177
0.7100,-0.2927,-0.6596,0.9081,0.8293,-9.6550,1.5046,0.0604,0.7366,0.0263
0.7200,-0.4513,-0.5290,0.7523,0.8417,-9.6551,1.4970,-0.0096,0.5443,0.0286
0.7300,-0.5416,-0.4068,0.4928,0.8511,-9.6544,1.4959,-0.0396,0.3186,0.0336
0.7400,-0.5714,-0.2344,0.3314,0.8579,-9.6534,1.4988,-0.0579,0.1355,0.0386
0.7500,-0.5181,-0.0323,0.2839,0.8628,-9.6520,1.5046,-0.0773,0.0481,0.0358
0.7600,-0.3961,0.1273,0.2644,0.8665,-9.6504,1.5128,-0.0959,0.0550,0.0254
0.7700,-0.2584,0.1981,0.2070,0.8698,-9.6487,1.5217,-0.1016,0.1174,0.0184
0.7800,-0.1296,0.1914,0.1142,0.8739,-9.6471,1.5300,-0.0956,0.1888,0.0184
0.7900,-0.0315,0.1602,0.0193,0.8791,-9.6455,1.5370,-0.0887,0.2519,0.0179
0.8000,0.0115,0.1321,-0.0704,0.8848,-9.6440,1.5429,-0.0851,0.2981,0.0105
0.8100,-0.0078,0.0930,-0.1817,0.8901,-9.6427,1.5482,-0.0814,0.3210,-0.0003
0.8200,-0.0659,0.0279,-0.3685,0.8947,-9.6415,1.5530,-0.0752,0.3221,-0.0087
0.8300,-0.1108,-0.0329,-0.5344,0.8985,-9.6405,1.5571,-0.0676,0.3105,-0.0143
0.8400,-0.1250,-0.0724,-0.6066,0.9017,-9.6396,1.5605,-0.0597,0.2950,-0.0163
0.8500,-0.1222,-0.0929,-0.6316,0.9045,-9.6389,1.5633,-0.0517,0.2789,-0.0169
0.8600,-0.0917,-0.0936,-0.6448,0.9071,-9.6383,1.5655,-0.0421,0.2599,-0.0178
0.8700,-0.0453,-0.0752,-0.6418,0.9094,-9.6379,1.5668,-0.0319,0.2367,-0.0159
0.8800,0.0137,-0.0477,-0.5906,0.9115,-9.6376,1.5673,-0.0246,0.2143,-0.0125
0.8900,0.0782,-0.0191,-0.5361,0.9137,-9.6373,1.5677,-0.0235,0.1980,-0.0079
0.9000,0.1155,0.0146,-0.5107,0.9162,-9.6370,1.5684,-0.0258,0.1861,-0.0026
0.9100,0.1386,0.0375,-0.4903,0.9189,-9.6366,1.5693,-0.0264,0.1772,-0.0006
0.9200,0.1830,0.0539,-0.4437,0.9216,-9.6361,1.5703,-0.0265,0.1654,0.0007
0.9300,0.2360,0.0616,-0.3675,0.9243,-9.6357,1.5715,-0.0285,0.1498,0.0050
0.9400,0.2772,0.0537,-0.2896,0.9273,-9.6351,1.5730,-0.0309,0.1357,0.0100
0.9500,0.3242,0.0326,-0.2432,0.9306,-9.6345,1.5751,-0.0358,0.1277,0.0148
0.9600,0.3963,-0.0115,-0.2303,0.9342,-9.6337,1.5779,-0.0461,0.1238,0.0195
0.9700,0.4884,-0.0873,-0.2776,0.9383,-9.6327,1.5818,-0.0560,0.1158,0.0274
0.9800,0.5752,-0.1804,-0.3688,0.9433,-9.6314,1.5866,-0.0641,0.0983,0.0437
0.9900,0.6642,-0.2624,-0.4480,0.9500,-9.6297,1.5924,-0.0717,0.0708,0.0677
1.0000,0.7592,-0.3380,-0.5059,0.9589,-9.6278,1.5991,-0.0782,0.0407,0.0978
1.0100,0.7972,-0.3806,-0.5326,0.9706,-9.6253,1.6067,-0.0841,0.0153,0.1334
1.0200,0.8520,-0.4095,-0.5304,0.9855,-9.6224,1.6152,-0.0901,-0.0080,0.1727
1.0300,1.0254,-0.4534,-0.4804,1.0041,-9.6190,1.6241,-0.0901,-0.0247,0.2193
1.0400,1.3286,-0.4695,-0.3883,1.0277,-9.6150,1.6327,-0.0827,-0.0199,0.2805
1.0500,1.7500,-0.4731,-0.2809,1.0587,-9.6103,1.6402,-0.0725,0.0249,0.3632
1.0600,2.2464,-0.4842,-0.1565,1.1002,-9.6047,1.6457,-0.0581,0.1339,0.4717
1.0700,2.7551,-0.5032,-0.0385,1.1555,-9.5978,1.6479,-0.0390,0.3215,0.5982
1.0800,3.1511,-0.5528,0.0128,1.2267,-9.5894,1.6452,-0.0142,0.5889,0.7229
1.0900,3.3291,-0.6660,-0.0358,1.3136,-9.5796,1.6353,0.0241,0.9004,0.8187
1.1000,3.1565,-0.8041,-0.1938,1.4121,-9.5688,1.6160,0.0762,1.1879,0.8607
1.1100,2.5612,-0.9359,-0.3543,1.5153,-9.5579,1.5866,0.1366,1.3879,0.8455
1.1200,1.9026,-1.1612,-0.4697,1.6184,-9.5474,1.5474,0.1948,1.5213,0.8249
1.1300,1.8230,-1.4606,-0.4231,1.7240,-9.5364,1.5008,0.2197,1.6076,0.8875
1.1400,2.3097,-1.8649,-0.1027,1.8422,-9.5219,1.4512,0.1999,1.6413,1.0899
1.1500,3.0033,-2.4721,0.3358,1.9848,-9.5004,1.4025,0.1578,1.6427,1.4088
1.1600,3.4682,-3.2037,0.7388,2.1578,-9.4695,1.3536,0.1609,1.6217,1.7357
1.1700,3.2274,-3.9504,0.7148,2.3549,-9.4299,1.2999,0.2127,1.5534,1.9434
1.1800,2.2842,-4.1959,0.6381,2.5612,-9.3840,1.2409,0.2717,1.3464,2.0109
1.1900,1.1225,-3.9228,0.8301,2.7650,-9.3338,1.1803,0.3431,1.0327,2.0084
1.2000,0.2016,-2.7999,0.9497,2.9616,-9.2811,1.1177,0.4252,0.8520,1.9558
1.2100,-0.4596,-1.7773,0.7018,3.1480,-9.2279,1.0473,0.5287,0.8706,1.8446
1.2200,-1.0849,-1.7035,-0.1277,3.3210,-9.1763,0.9627,0.6792,0.9033,1.6984
1.2300,-1.5451,-1.7789,-0.9412,3.4779,-9.1283,0.8602,0.8715,0.9297,1.5249
1.2400,-1.7920,-2.0008,-1.3732,3.6169,-9.0849,0.7372,1.0663,0.9812,1.3483
1.2500,-1.8793,-2.1147,-1.6048,3.7419,-9.0444,0.5978,1.2060,0.9111,1.2700
1.2600,-1.5119,-2.2605,-1.7590,3.8647,-9.0011,0.4541,1.2732,0.7007,1.3587
1.2700,-1.1854,-2.5655,-1.9300,3.9985,-8.9483,0.3148,1.3074,0.4589,1.5634
1.2800,-1.3237,-2.7292,-2.0096,4.1492,-8.8831,0.1819,1.3312,0.2540,1.7720
1.2900,-1.6824,-2.6522,-1.9016,4.3147,-8.8056,0.0575,1.3248,0.0274,1.9396
1.3000,-1.8826,-2.3677,-1.6408,4.4922,-8.7164,-0.0510,1.2650,-0.2908,2.0834
1.3100,-1.5415,-1.9899,-1.1616,4.6788,-8.6166,-0.1381,1.1651,-0.5060,2.1816
1.3200,-1.0563,-1.5688,-0.5518,4.8694,-8.5090,-0.2082,1.0459,-0.5248,2.2174
1.3300,-0.8542,-1.0856,0.0770,5.0594,-8.3958,-0.2660,0.9255,-0.5209,2.2228
1.3400,-0.8695,-0.5482,0.7564,5.2475,-8.2780,-0.3097,0.8148,-0.6137,2.2223
1.3500,-1.0127,-0.0945,1.3794,5.4333,-8.1563,-0.3356,0.7211,-0.7838,2.2214
1.3600,-1.1983,0.1727,1.8175,5.6177,-8.0301,-0.3416,0.6411,-0.9925,2.2384
1.3700,-1.2555,0.2989,2.0434,5.7709,-7.9212,-0.3323,0.5881,-1.1285,2.2565
1.3800,-1.2107,0.3266,2.1038,5.8321,-7.8766,-0.3252,0.5741,-1.1514,2.2585
1.3900,-1.2560,0.3547,2.2309,5.9819,-7.7641,-0.3056,0.5687,-1.1488,2.2192
1.4000,-1.4285,0.2891,2.2873,6.1529,-7.6303,-0.2826,0.5820,-1.0602,2.1074
1.4100,-1.5686,0.2822,2.2644,6.3118,-7.5001,-0.2639,0.5908,-0.9569,1.9998
1.4200,-1.5087,0.3526,2.0363,6.4613,-7.3722,-0.2498,0.5838,-0.8573,1.9384
1.4300,-1.4231,0.2951,1.6125,6.6043,-7.2448,-0.2376,0.5446,-0.7770,1.8938
1.4400,-1.5735,0.2175,1.1246,6.7409,-7.1184,-0.2255,0.5104,-0.7207,1.8344
1.4500,-1.8334,0.2395,0.5206,6.8701,-6.9942,-0.2139,0.4836,-0.6522,1.7629
1.4600,-1.9368,0.4962,0.2416,6.9919,-6.8728,-0.2028,0.4393,-0.6075,1.6940
1.4700,-2.0349,0.9946,0.3074,7.1068,-6.7544,-0.1882,0.3784,-0.6080,1.6214
1.4800,-2.2543,1.5473,0.3676,7.2141,-6.6402,-0.1675,0.3109,-0.6190,1.5304
1.4900,-2.4849,1.9142,0.3709,7.3129,-6.5320,-0.1400,0.2467,-0.6549,1.4215
1.5000,-2.7834,2.0936,0.2991,7.4028,-6.4307,-0.1037,0.1981,-0.7044,1.3036
1.5100,-2.9094,2.2870,0.2895,7.4828,-6.3380,-0.0612,0.1781,-0.7369,1.1626
1.5200,-2.9679,2.4971,0.2709,7.5517,-6.2561,-0.0166,0.1802,-0.7401,1.0021
1.5300,-2.9475,2.6949,0.1888,7.6096,-6.1855,0.0258,0.1951,-0.6767,0.8469
1.5400,-2.7066,2.9156,0.1907,7.6573,-6.1262,0.0618,0.2099,-0.5805,0.6978
1.5500,-2.5921,3.1813,0.1976,7.6949,-6.0787,0.0888,0.2271,-0.4600,0.5365
1.5600,-2.5069,3.3766,0.1093,7.7218,-6.0442,0.1041,0.2578,-0.3172,0.3592
1.5700,-2.3597,3.4332,-0.0497,7.7376,-6.0240,0.1064,0.3001,-0.1795,0.1717
1.5800,-2.2045,3.4304,-0.1759,7.7423,-6.0181,0.0958,0.3456,-0.0494,-0.0114
1.5900,-1.6915,3.4492,-0.3966,7.7364,-6.0261,0.0715,0.3987,0.0995,-0.1847
1.6000,-1.1676,3.4201,-0.6799,7.7203,-6.0469,0.0314,0.4493,0.2690,-0.3423
1.6100,-0.9322,3.3292,-0.8468,7.6953,-6.0787,-0.0245,0.4883,0.4314,-0.4776
1.6200,-0.6708,3.2340,-1.0115,7.6620,-6.1199,-0.0943,0.5194,0.5725,-0.5968
1.6300,-0.3075,3.1164,-1.1700,7.6207,-6.1693,-0.1760,0.5503,0.6910,-0.7076
1.6400,-0.0330,2.8833,-1.2737,7.5716,-6.2262,-0.2679,0.5818,0.7856,-0.8132
1.6500,-0.0856,2.4965,-1.2623,7.5148,-6.2896,-0.3670,0.6122,0.8241,-0.9055
1.6600,-0.2304,2.0254,-1.1599,7.4518,-6.3574,-0.4676,0.6420,0.7764,-0.9572
1.6700,0.2398,1.4514,-1.1111,7.3875,-6.4245,-0.5629,0.6648,0.6476,-0.9158
1.6800,1.5434,0.6263,-1.1684,7.3299,-6.4822,-0.6491,0.6803,0.5040,-0.7376
1.6900,2.7736,-0.4480,-1.1729,7.2873,-6.5219,-0.7263,0.6812,0.3804,-0.4679
1.7000,3.1647,-1.5295,-1.1547,7.2628,-6.5416,-0.7926,0.6625,0.2094,-0.2198
1.7100,2.9190,-2.0877,-1.1790,7.2527,-6.5468,-0.8408,0.6178,-0.0566,-0.0834
1.7200,2.6648,-1.5269,-1.0413,7.2493,-6.5475,-0.8647,0.5195,-0.3082,-0.0850
1.7300,2.6396,-0.0018,-0.7229,7.2435,-6.5535,-0.8681,0.3787,-0.3843,-0.1981
1.7400,2.2681,1.4300,-0.3928,7.2279,-6.5713,-0.8632,0.2610,-0.3136,-0.3730
1.7500,1.2679,2.1674,0.1122,7.1991,-6.6034,-0.8590,0.1752,-0.2019,-0.5620
1.7600,0.4848,2.4446,0.9663,7.1588,-6.6475,-0.8548,0.0689,-0.1657,-0.6770
1.7700,0.2742,2.1424,1.8802,7.1143,-6.6972,-0.8387,-0.0855,-0.2899,-0.7014
1.7800,0.2585,1.8098,2.2668,7.0689,-6.7497,-0.8005,-0.2428,-0.4574,-0.7420
1.7900,0.4081,1.1990,2.0911,7.0193,-6.8073,-0.7471,-0.3156,-0.4592,-0.8289
1.8000,0.9079,0.0437,1.3198,6.9611,-6.8718,-0.6993,-0.3010,-0.2714,-0.9468
1.8100,1.5572,-0.5733,0.1290,6.8919,-6.9446,-0.6649,-0.3294,-0.1403,-1.0864
1.8200,2.1805,-0.2543,-0.2091,6.8103,-7.0281,-0.6262,-0.4727,-0.2041,-1.2733
1.8300,2.2850,0.1820,0.4601,6.7116,-7.1268,-0.5705,-0.6219,-0.2634,-1.5486
1.8400,1.4707,-0.3147,0.9198,6.5896,-7.2443,-0.5077,-0.6863,-0.1735,-1.8564
1.8500,0.2240,-1.3742,0.9149,6.4447,-7.3771,-0.4507,-0.6965,-0.0061,-2.0827
1.8600,-0.6740,-2.1210,1.0892,6.2836,-7.5174,-0.4039,-0.6991,0.1767,-2.2026
1.8700,-1.0763,-2.4996,1.3826,6.1111,-7.6601,-0.3665,-0.7212,0.3622,-2.2884
1.8800,-1.3811,-2.7351,1.5484,5.9288,-7.8034,-0.3365,-0.7481,0.5405,-2.3531
1.8900,-1.3426,-2.6704,1.5654,5.7398,-7.9443,-0.3134,-0.7427,0.6897,-2.3637
1.9000,-1.0344,-2.3365,1.4380,5.5480,-8.0801,-0.2977,-0.6978,0.8053,-2.3408
1.9100,-1.0155,-1.9300,1.3297,5.3543,-8.2100,-0.2904,-0.6242,0.9055,-2.3310
1.9200,-1.2740,-1.4819,1.2691,5.1573,-8.3351,-0.2927,-0.5335,1.0129,-2.3415
1.9300,-1.4078,-1.0010,1.2161,4.9557,-8.4560,-0.3067,-0.4283,1.1354,-2.3596
1.9400,-1.3301,-0.6350,1.2619,4.7494,-8.5726,-0.3326,-0.3318,1.2557,-2.3689
1.9500,-1.2905,-0.2706,1.2856,4.5393,-8.6842,-0.3683,-0.2531,1.3531,-2.3687
1.9600,-1.5892,0.1304,1.2304,4.3257,-8.7906,-0.4105,-0.1987,1.4191,-2.3687
1.9700,-1.8356,0.2977,1.2527,4.1091,-8.8918,-0.4543,-0.1866,1.4434,-2.3640
1.9800,-1.7941,0.2416,1.3269,3.8903,-8.9877,-0.4935,-0.2323,1.4246,-2.3497
1.9900,-1.7584,0.0388,1.3238,3.6707,-9.0780,-0.5213,-0.3316,1.3687,-2.3262
2.0000,-1.7207,-0.3446,1.1739,3.4521,-9.1627,-0.5327,-0.4517,1.2605,-2.2830
2.0100,-1.6289,-0.7894,1.0039,3.2375,-9.2412,-0.5251,-0.5807,1.1195,-2.2130
2.0200,-1.6835,-1.1988,0.8488,3.0295,-9.3130,-0.4979,-0.7062,0.9688,-2.1298
2.0300,-1.9840,-1.5310,0.6835,2.8291,-9.3782,-0.4524,-0.8042,0.7747,-2.0458
2.0400,-2.2413,-1.6246,0.6067,2.6366,-9.4369,-0.3918,-0.8548,0.5298,-1.9597
2.0500,-2.1945,-1.3116,0.6877,2.4535,-9.4889,-0.3199,-0.8723,0.2757,-1.8519
2.0600,-2.0637,-0.6855,0.7999,2.2827,-9.5338,-0.2398,-0.8821,0.0377,-1.7043
2.0700,-2.1817,-0.0407,0.8019,2.1278,-9.5714,-0.1531,-0.8842,-0.2170,-1.5171
2.0800,-2.5540,0.4527,0.5952,1.9919,-9.6017,-0.0605,-0.8727,-0.5510,-1.3057
2.0900,-2.8455,0.6576,0.3016,1.8761,-9.6252,0.0374,-0.8529,-0.9559,-1.0902
2.1000,-2.5456,0.4383,0.2173,1.7791,-9.6427,0.1396,-0.8327,-1.2629,-0.8938
2.1100,-2.0130,-0.1319,0.0965,1.6981,-9.6553,0.2422,-0.7949,-1.3957,-0.7213
2.1200,-1.6697,-0.8653,-0.4170,1.6317,-9.6638,0.3395,-0.7107,-1.4431,-0.5586
2.1300,-1.3806,-1.5665,-1.1509,1.5785,-9.6694,0.4246,-0.5496,-1.4453,-0.4279
2.1400,-0.9642,-1.9924,-1.6379,1.5340,-9.6735,0.4898,-0.3291,-1.4113,-0.3631
2.1500,-0.4101,-1.8741,-1.8217,1.4912,-9.6779,0.5333,-0.1391,-1.3430,-0.3773
2.1600,-0.1164,-1.6457,-1.9066,1.4432,-9.6837,0.5597,-0.0162,-1.2554,-0.4713
2.1700,0.0375,-1.1668,-1.8968,1.3830,-9.6915,0.5760,0.0213,-1.1424,-0.6311
2.1800,0.2111,-0.1057,-1.5475,1.3051,-9.7014,0.5900,-0.0110,-1.0316,-0.8342
2.1900,0.2533,0.8003,-1.1705,1.2080,-9.7130,0.6051,-0.0383,-0.9468,-1.0260
2.2000,0.4718,1.3356,-0.9817,1.0955,-9.7253,0.6202,-0.0504,-0.8920,-1.1473
2.2100,0.8284,1.6451,-0.5982,0.9759,-9.7371,0.6357,-0.0814,-0.8786,-1.1672
2.2200,1.1198,1.7066,-0.0563,0.8587,-9.7469,0.6541,-0.1252,-0.8910,-1.0932
2.2300,1.2539,1.5693,0.2771,0.7518,-9.7544,0.6744,-0.1325,-0.9091,-0.9574
2.2400,1.2283,1.4330,0.1794,0.6600,-9.7598,0.6920,-0.0865,-0.8759,-0.7845
2.2500,1.2787,1.3919,-0.1616,0.5859,-9.7640,0.7006,0.0281,-0.7696,-0.6102
2.2600,1.2012,1.2173,-0.9171,0.5261,-9.7681,0.6908,0.2614,-0.4811,-0.5393
2.2700,0.6368,0.5330,-2.1653,0.4663,-9.7737,0.6531,0.5237,0.0415,-0.6691
2.2800,-0.1756,-0.1758,-2.6556,0.3905,-9.7808,0.5921,0.6718,0.5192,-0.9110
2.2900,-0.5133,-0.3076,-1.9636,0.2949,-9.7881,0.5230,0.6638,0.7451,-1.0881
2.3000,0.0144,-0.2976,-0.7455,0.1899,-9.7937,0.4636,0.4889,0.7536,-1.0986
2.3100,1.1434,-0.2149,0.6224,0.0900,-9.7968,0.4272,0.2307,0.6050,-0.9816
2.3200,1.8884,-0.0193,1.3983,0.0028,-9.7978,0.4157,0.0037,0.3454,-0.8301
2.3300,1.8673,0.0305,1.4732,-0.0704,-9.7972,0.4224,-0.1265,0.0851,-0.6721
2.3400,1.8463,0.0238,1.2080,-0.1294,-9.7960,0.4364,-0.1424,-0.0192,-0.5289
2.3500,2.0183,-0.0114,0.5757,-0.1757,-9.7948,0.4476,-0.0804,0.0448,-0.4129
2.3600,1.9343,-0.0755,-0.0062,-0.2109,-9.7939,0.4523,-0.0155,0.1429,-0.3093
2.3700,1.6197,-0.1423,-0.3714,-0.2357,-9.7934,0.4526,0.0134,0.1682,-0.2107
2.3800,1.2532,-0.1050,-0.7907,-0.2516,-9.7930,0.4511,0.0240,0.1327,-0.1291
2.3900,0.7853,0.1119,-1.1465,-0.2616,-9.7929,0.4487,0.0325,0.0994,-0.0906
2.4000,0.3484,0.3741,-1.3486,-0.2706,-9.7928,0.4455,0.0366,0.0914,-0.1065
2.4100,0.1187,0.6283,-1.2666,-0.2831,-9.7926,0.4427,0.0199,0.0929,-0.1599
2.4200,0.1092,0.8054,-0.9724,-0.3015,-9.7920,0.4429,-0.0243,0.0746,-0.2229
2.4300,0.2613,0.8113,-0.6758,-0.3260,-9.7910,0.4485,-0.0883,0.0345,-0.2783
2.4400,0.4310,0.6113,-0.4639,-0.3558,-9.7893,0.4606,-0.1560,-0.0012,-0.3280
2.4500,0.5135,0.4557,-0.3907,-0.3909,-9.7871,0.4788,-0.2110,-0.0067,-0.3845
2.4600,0.4335,0.1833,-0.3108,-0.4322,-9.7842,0.5015,-0.2465,0.0418,-0.4570
2.4700,0.3164,0.0560,-0.1101,-0.4805,-9.7806,0.5277,-0.2784,0.1431,-0.5355
2.4800,0.2503,0.2884,0.0579,-0.5354,-9.7760,0.5582,-0.3234,0.2438,-0.5979
2.4900,0.1766,0.2916,0.1512,-0.5945,-9.7705,0.5943,-0.3799,0.3062,-0.6322
2.5000,0.0895,-0.0331,0.2390,-0.6550,-9.7640,0.6364,-0.4346,0.3402,-0.6380
2.5100,-0.0832,-0.6759,0.2514,-0.7146,-9.7566,0.6833,-0.4677,0.3485,-0.6187
2.5200,-0.3414,-1.5464,0.0170,-0.7714,-9.7488,0.7316,-0.4575,0.3208,-0.5871
2.5300,-0.5780,-2.4066,-0.4747,-0.8254,-9.7410,0.7758,-0.3887,0.2622,-0.5592
2.5400,-0.6419,-2.8034,-0.7867,-0.8778,-9.7335,0.8112,-0.2917,0.2260,-0.5540
2.5500,-0.5882,-2.9842,-0.9081,-0.9308,-9.7263,0.8382,-0.2288,0.2212,-0.5715
2.5600,-0.5073,-3.2527,-0.9192,-0.9862,-9.7187,0.8630,-0.2431,0.2372,-0.6023
2.5700,-0.3923,-3.4192,-0.5560,-1.0445,-9.7098,0.8932,-0.3247,0.3182,-0.6428
2.5800,-0.2150,-3.6723,-0.0119,-1.1047,-9.6993,0.9339,-0.4292,0.4562,-0.6612
2.5900,0.0343,-4.0936,0.5069,-1.1624,-9.6874,0.9861,-0.5219,0.5738,-0.6194
2.6000,0.2773,-4.5290,0.8559,-1.2113,-9.6749,1.0474,-0.5891,0.6027,-0.5024
2.6100,0.5245,-4.8689,0.9468,-1.2456,-9.6630,1.1148,-0.6419,0.5650,-0.3260
2.6200,0.8495,-5.1108,0.8546,-1.2611,-9.6526,1.1860,-0.6821,0.5140,-0.1184
2.6300,1.2396,-5.2440,0.6205,-1.2558,-9.6441,1.2587,-0.6888,0.4414,0.1049
2.6400,1.6546,-5.2207,0.1664,-1.2302,-9.6379,1.3294,-0.6606,0.3607,0.3144
2.6500,2.0850,-4.9558,-0.4018,-1.1865,-9.6341,1.3950,-0.6027,0.3159,0.4887
2.6600,2.5490,-4.3901,-0.8989,-1.1267,-9.6325,1.4539,-0.5386,0.3110,0.6569
2.6700,3.0505,-3.6783,-1.2997,-1.0487,-9.6332,1.5066,-0.4823,0.3220,0.8604
2.6800,3.4171,-3.0068,-1.6673,-0.9489,-9.6360,1.5538,-0.4218,0.3513,1.0951
2.6900,3.5785,-2.2427,-1.9731,-0.8252,-9.6408,1.5937,-0.3246,0.4240,1.3295
2.7000,3.5533,-1.4711,-2.2690,-0.6780,-9.6476,1.6213,-0.1685,0.5187,1.5435
2.7100,3.3441,-0.7874,-2.5223,-0.5097,-9.6560,1.6324,0.0119,0.6130,1.7283
2.7200,3.1325,-0.1968,-2.5427,-0.3232,-9.6651,1.6255,0.1848,0.7023,1.8843
2.7300,3.0214,-0.2722,-1.9299,-0.1217,-9.6734,1.6031,0.3034,0.8225,1.9993
2.7400,3.0526,-1.1137,-0.7956,0.0913,-9.6789,1.5714,0.3364,1.0249,2.0665
2.7500,3.0334,-2.2149,0.2985,0.3120,-9.6798,1.5370,0.3123,1.2768,2.0899
2.7600,2.7993,-3.2447,1.1257,0.5357,-9.6755,1.5016,0.2968,1.5049,2.0639
2.7700,2.5227,-4.0472,1.5719,0.7578,-9.6671,1.4596,0.3612,1.7240,2.0077
2.7800,2.1294,-4.2891,1.9874,0.9770,-9.6560,1.4020,0.4897,1.9961,1.9547
2.7900,1.4859,-3.7527,2.5825,1.1941,-9.6424,1.3245,0.6051,2.3395,1.9112
2.8000,0.6473,-2.7774,3.1923,1.4101,-9.6258,1.2291,0.6683,2.7008,1.8833
2.8100,-0.5751,-1.7008,3.7919,1.6251,-9.6051,1.1214,0.6462,2.9663,1.8669
2.8200,-2.0081,-0.7464,4.3389,1.8365,-9.5791,1.0127,0.5154,2.9835,1.8537
2.8300,-2.4851,-0.3973,4.7788,2.0446,-9.5467,0.9156,0.3079,2.8890,1.8894
2.8400,-3.1087,-0.4293,4.5905,2.2523,-9.5073,0.8341,0.1177,2.7761,1.9163
2.8500,-4.0268,-0.4128,4.2305,2.4541,-9.4631,0.7656,0.0352,2.4544,1.8595
2.8600,-4.3925,-0.4532,3.5929,2.6433,-9.4171,0.7016,0.1093,2.0877,1.7709
2.8700,-3.4152,-0.5710,1.9694,2.8199,-9.3710,0.6277,0.2967,1.9693,1.6805
2.8800,-2.1536,-0.8008,0.4158,2.9852,-9.3257,0.5295,0.5571,2.0592,1.5828
2.8900,-2.5132,-1.2396,-0.5058,3.1375,-9.2821,0.3970,0.8913,2.1391,1.4603
2.9000,-3.1453,-1.9677,-0.6960,3.2744,-9.2403,0.2319,1.2012,1.9819,1.3379
2.9100,-3.0398,-2.6882,-0.5114,3.3979,-9.1983,0.0494,1.4167,1.6149,1.2823
2.9200,-2.7386,-3.0145,-0.3642,3.5174,-9.1524,-0.1387,1.5686,1.3021,1.3291
2.9300,-2.3359,-3.1910,-0.4236,3.6417,-9.0984,-0.3337,1.7314,1.1553,1.4452
2.9400,-1.7786,-3.3245,-0.7939,3.7742,-9.0340,-0.5426,1.9394,1.0825,1.5674
2.9500,-1.8591,-3.2267,-1.0272,3.9152,-8.9574,-0.7661,2.1244,0.9350,1.6981
2.9600,-2.2492,-3.0403,-0.7114,4.0684,-8.8663,-0.9925,2.2324,0.5721,1.8706
2.9700,-3.0366,-2.7239,-0.2204,4.2383,-8.7599,-1.2046,2.2587,0.0353,2.0251
2.9800,-3.9113,-2.2030,0.1381,4.4230,-8.6403,-1.3900,2.1740,-0.4326,2.1295
2.9900,-4.1914,-1.2802,0.7130,4.6198,-8.5105,-1.5426,1.9996,-0.7651,2.2242
3.0000,-4.2689,-0.1517,1.1197,4.8272,-8.3717,-1.6624,1.8272,-1.0130,2.3185
3.0100,-4.3758,0.7941,1.0511,5.0435,-8.2242,-1.7543,1.6913,-1.1842,2.4039
3.0200,-4.2946,1.4889,1.1207,5.2636,-8.0694,-1.8250,1.5628,-1.2146,2.4255
3.0300,-3.9762,1.9261,1.4221,5.4769,-7.9128,-1.8826,1.4506,-1.1290,2.3237
3.0400,-3.7746,2.3121,1.4281,5.6741,-7.7607,-1.9317,1.3639,-1.0904,2.1353
3.0500,-3.9289,2.7979,1.4018,5.8549,-7.6163,-1.9672,1.2368,-1.1770,1.9765
3.0600,-4.1594,3.4801,1.7603,6.0262,-7.4782,-1.9799,1.0484,-1.3109,1.8940
3.0700,-4.2972,4.3438,2.1261,6.1930,-7.3442,-1.9668,0.8590,-1.4246,1.8549
3.0800,-4.4796,5.0999,2.1746,6.3559,-7.2132,-1.9318,0.7045,-1.4889,1.8079
3.0900,-4.5869,5.7238,2.1445,6.5109,-7.0871,-1.8817,0.5843,-1.4755,1.6966
3.1000,-4.0294,6.2593,2.2947,6.6509,-6.9715,-1.8240,0.4873,-1.4037,1.4884
3.1100,-3.2262,6.4733,2.4051,6.7691,-6.8726,-1.7641,0.3970,-1.2814,1.2023
3.1200,-2.7298,6.3857,2.2833,6.8486,-6.8059,-1.7158,0.3322,-1.1423,0.9415
3.1300,-2.5211,6.2994,2.1739,6.8752,-6.7836,-1.6975,0.3132,-1.0744,0.8358
3.1400,-2.1016,6.0829,1.8766,6.9292,-6.7387,-1.6567,0.2840,-0.9240,0.5866
3.1500,-1.7232,5.7791,1.5166,6.9733,-6.7029,-1.6167,0.2710,-0.7595,0.3150
3.1600,-1.4324,5.3760,1.1006,6.9969,-6.6851,-1.5884,0.2815,-0.5741,0.0689
3.1700,-1.2214,4.9466,0.6421,7.0013,-6.6836,-1.5752,0.3124,-0.3614,-0.1570
3.1800,-1.0089,4.5164,0.2446,6.9868,-6.6973,-1.5815,0.3575,-0.0981,-0.3802
3.1900,-0.8633,4.3035,0.0793,6.9537,-6.7253,-1.6080,0.4035,0.1116,-0.5924
3.2000,-1.3120,3.8543,-0.2116,6.9044,-6.7664,-1.6470,0.4355,0.1789,-0.7866
3.2100,-1.8475,3.2626,-0.5341,6.8416,-6.8197,-1.6889,0.4509,0.1430,-0.9686
3.2200,-1.8742,3.1721,-0.5316,6.7680,-6.8836,-1.7258,0.4376,0.0380,-1.1179
3.2300,-1.2247,2.8577,-0.5503,6.6866,-6.9554,-1.7544,0.3982,-0.0519,-1.2166
3.2400,-0.0886,2.2726,-0.6433,6.6009,-7.0315,-1.7755,0.3454,-0.0980,-1.2506
3.2500,1.3646,1.8142,-0.8599,6.5154,-7.1071,-1.7907,0.2889,-0.1252,-1.2006
3.2600,3.3048,1.1932,-1.2343,6.4359,-7.1765,-1.8013,0.2292,-0.1099,-1.0655
3.2700,4.4926,0.2036,-1.5218,6.3661,-7.2361,-1.8111,0.1685,-0.0358,-0.9035
3.2800,3.4776,-0.9069,-1.2314,6.3036,-7.2891,-1.8173,0.0842,-0.0842,-0.8592
3.2900,2.0331,-1.8319,-0.0838,6.2392,-7.3460,-1.8100,-0.0675,-0.1665,-0.9635
3.3000,1.4455,-2.4186,1.1832,6.1694,-7.4115,-1.7821,-0.3040,-0.3002,-1.0166
3.3100,1.1433,-2.5657,1.6244,6.1026,-7.4807,-1.7219,-0.5538,-0.6212,-0.9762
3.3200,0.8197,-3.0230,1.6371,6.0421,-7.5505,-1.6273,-0.7082,-0.8564,-0.9719
3.3300,0.0453,-4.1303,1.2337,5.9816,-7.6211,-1.5179,-0.7782,-0.8485,-0.9619
3.3400,0.2245,-4.6026,0.7661,5.9232,-7.6877,-1.4074,-0.8678,-0.7454,-0.8542
3.3500,1.5191,-3.8022,1.0849,5.8693,-7.7490,-1.2920,-0.9980,-0.7134,-0.8143
3.3600,1.7189,-2.5335,1.6133,5.8091,-7.8135,-1.1693,-1.0908,-0.6544,-0.9601
3.3700,0.9541,-1.2283,1.9925,5.7318,-7.8872,-1.0501,-1.0807,-0.4640,-1.1584
3.3800,0.7184,0.1140,2.2515,5.6355,-7.9690,-0.9489,-0.9833,-0.1813,-1.3374
3.3900,0.5559,1.2316,2.4326,5.5212,-8.0571,-0.8735,-0.8587,0.1352,-1.5086
3.4000,0.2944,2.0397,2.4760,5.3888,-8.1514,-0.8237,-0.7419,0.4158,-1.6826
3.4100,0.1775,2.5988,2.3131,5.2388,-8.2515,-0.7936,-0.6787,0.6346,-1.8525
3.4200,0.0691,2.9369,2.1793,5.0712,-8.3572,-0.7748,-0.6848,0.8249,-2.0223
3.4300,-0.2387,2.8897,2.1908,4.8856,-8.4682,-0.7603,-0.7553,1.0245,-2.1931
3.4400,-0.7237,2.3766,2.2909,4.6828,-8.5833,-0.7448,-0.8661,1.2174,-2.3322
3.4500,-1.1656,1.4433,2.2829,4.4672,-8.6991,-0.7239,-0.9896,1.3831,-2.3954
3.4600,-1.4292,0.2586,2.1394,4.2471,-8.8110,-0.6951,-1.0948,1.4978,-2.3565
3.4700,-1.5916,-0.9552,1.8767,4.0321,-8.9144,-0.6575,-1.1516,1.5018,-2.2325
3.4800,-1.8961,-2.0263,1.5718,3.8290,-9.0070,-0.6098,-1.1892,1.4129,-2.0663
3.4900,-2.2743,-2.8236,1.3993,3.6423,-9.0880,-0.5500,-1.2161,1.2153,-1.8589
3.5000,-2.4754,-3.3563,0.8557,3.4778,-9.1564,-0.4768,-1.2015,0.8859,-1.6016
3.5100,-2.3955,-3.3997,0.1798,3.3392,-9.2119,-0.3928,-1.1318,0.5132,-1.3318
3.5200,-2.2417,-3.0070,-0.1323,3.2265,-9.2554,-0.3033,-1.0259,0.1313,-1.0671
3.5300,-2.1395,-2.5002,-0.3988,3.1395,-9.2879,-0.2115,-0.8931,-0.2798,-0.8009
3.5400,-2.0903,-1.8583,-0.4438,3.0778,-9.3102,-0.1187,-0.7655,-0.7118,-0.5347
3.5500,-2.0932,-1.2473,-0.2927,3.0399,-9.3234,-0.0224,-0.6883,-1.1455,-0.2918
3.5600,-2.1247,-1.0287,-0.2754,3.0204,-9.3294,0.0811,-0.6491,-1.5297,-0.1237
3.5700,-2.1213,-1.2966,-0.3512,3.0095,-9.3313,0.1919,-0.6303,-1.8044,-0.0740
3.5800,-2.0112,-1.8576,-0.5223,2.9945,-9.3330,0.3075,-0.6284,-1.9128,-0.1633
3.5900,-1.8833,-2.3823,-0.9772,2.9632,-9.3385,0.4227,-0.6097,-1.8666,-0.3668
3.6000,-1.6909,-2.9398,-1.7089,2.9086,-9.3502,0.5298,-0.5238,-1.7282,-0.6115
3.6100,-1.3931,-3.4524,-2.5338,2.8306,-9.3687,0.6185,-0.3424,-1.5271,-0.8354
3.6200,-1.1150,-3.2901,-3.0242,2.7339,-9.3932,0.6789,-0.1015,-1.2799,-1.0078
3.6300,-0.9111,-2.2941,-2.8416,2.6239,-9.4222,0.7101,0.0845,-1.0091,-1.1350
3.6400,-0.9086,-1.1253,-2.4054,2.5051,-9.4537,0.7205,0.1730,-0.7789,-1.2169
3.6500,-1.1506,-0.2772,-2.0007,2.3822,-9.4854,0.7201,0.2058,-0.6931,-1.2405
3.6600,-1.3682,0.1972,-1.4988,2.2590,-9.5158,0.7168,0.2118,-0.7657,-1.2185
3.6700,-1.4225,0.2924,-0.9917,2.1372,-9.5440,0.7143,0.2241,-0.8802,-1.1914
3.6800,-1.3621,0.2660,-0.7561,2.0162,-9.5706,0.7105,0.2531,-0.9275,-1.1879
3.6900,-1.1654,0.2762,-0.4543,1.8948,-9.5960,0.7018,0.2862,-0.8401,-1.1931
3.7000,-0.7057,0.2314,0.1571,1.7736,-9.6202,0.6870,0.2996,-0.6318,-1.1994
3.7100,-0.3105,0.2342,0.6188,1.6526,-9.6431,0.6675,0.2913,-0.4495,-1.2148
3.7200,-0.3370,0.4261,0.6822,1.5301,-9.6647,0.6467,0.2736,-0.3893,-1.2413
3.7300,-0.3890,0.7015,0.5168,1.4056,-9.6850,0.6263,0.2681,-0.4031,-1.2543
3.7400,-0.1092,0.8370,0.2954,1.2811,-9.7036,0.6044,0.2941,-0.4099,-1.2348
3.7500,0.2882,0.8499,0.0630,1.1596,-9.7205,0.5783,0.3421,-0.3977,-1.1903
3.7600,0.4851,0.8795,-0.0909,1.0439,-9.7354,0.5471,0.3833,-0.4071,-1.1193
3.7700,0.5412,1.0788,-0.0984,0.9365,-9.7482,0.5133,0.3900,-0.4778,-1.0168
3.7800,0.5257,1.4479,0.0011,0.8399,-9.7586,0.4810,0.3627,-0.5933,-0.8960
3.7900,0.4369,1.8635,0.0828,0.7539,-9.7671,0.4523,0.3301,-0.7072,-0.7954
3.8000,0.2663,2.2076,-0.0710,0.6744,-9.7741,0.4244,0.3532,-0.6999,-0.7737
3.8100,-0.0492,2.2140,-0.5610,0.5895,-9.7811,0.3883,0.4594,-0.3067,-0.9313
3.8200,-0.5250,1.9259,-0.8468,0.4845,-9.7886,0.3389,0.5316,0.3518,-1.2026
3.8300,-0.6187,1.5602,-0.3138,0.3589,-9.7956,0.2867,0.4603,0.8409,-1.3598
3.8400,0.1990,1.1170,0.8888,0.2310,-9.8006,0.2468,0.2865,0.9722,-1.2536
3.8500,1.5977,0.5621,1.9710,0.1239,-9.8031,0.2268,0.0852,0.7287,-0.9472
3.8600,2.3014,0.1263,2.5476,0.0466,-9.8039,0.2272,-0.0995,0.3038,-0.6558
3.8700,2.2199,0.2386,2.7555,-0.0089,-9.8036,0.2433,-0.2158,0.0751,-0.4961
3.8800,2.0930,0.4889,2.0308,-0.0551,-9.8029,0.2649,-0.2031,0.1298,-0.4565
3.8900,1.8284,0.3783,0.4261,-0.0996,-9.8021,0.2795,-0.0807,0.1883,-0.4517
3.9000,1.6875,0.1408,-0.8564,-0.1412,-9.8016,0.2809,0.0484,0.0727,-0.3887
3.9100,2.0380,0.0580,-1.4599,-0.1730,-9.8013,0.2729,0.1037,-0.0348,-0.2475
3.9200,2.2105,0.1315,-1.7221,-0.1895,-9.8013,0.2638,0.0746,0.0672,-0.0903
3.9300,1.3053,0.1888,-2.0416,-0.1929,-9.8013,0.2598,0.0112,0.2119,0.0015
3.9400,-0.0673,0.3677,-2.2652,-0.1925,-9.8013,0.2615,-0.0358,0.2235,-0.0205
3.9500,-0.9946,0.7152,-1.9611,-0.1998,-9.8010,0.2676,-0.0863,0.1617,-0.1495
3.9600,-1.4130,0.9203,-1.4041,-0.2228,-9.8001,0.2801,-0.1671,0.0582,-0.3220
3.9700,-1.4593,0.7618,-1.1026,-0.2618,-9.7985,0.3011,-0.2595,-0.1000,-0.4598
3.9800,-1.3568,0.5859,-1.0731,-0.3115,-9.7961,0.3294,-0.3193,-0.2218,-0.5282
3.9900,-0.5354,0.0698,-1.4418,-0.3647,-9.7932,0.3604,-0.3154,-0.1925,-0.5288
4.0000,0.6309,-0.6465,-1.8815,-0.4147,-9.7901,0.3885,-0.2612,-0.0294,-0.4733
4.0100,1.1272,-0.9235,-1.8089,-0.4572,-9.7873,0.4117,-0.2090,0.1496,-0.3967
4.0200,1.1143,-0.9204,-1.2299,-0.4928,-9.7847,0.4330,-0.2109,0.2548,-0.3516
4.0300,0.7392,-0.7692,-0.2845,-0.5264,-9.7818,0.4582,-0.2817,0.2451,-0.3598
4.0400,0.3630,-0.7960,0.5693,-0.5622,-9.7781,0.4920,-0.3844,0.1214,-0.3856
4.0500,0.2111,-1.1424,0.9596,-0.6006,-9.7736,0.5342,-0.4614,-0.0215,-0.3975
4.0600,0.2023,-1.6745,0.8790,-0.6400,-9.7685,0.5801,-0.4738,-0.0658,-0.3980
4.0700,0.2254,-1.9623,0.7147,-0.6789,-9.7631,0.6247,-0.4350,-0.0033,-0.3905
4.0800,0.1855,-2.1099,0.5743,-0.7167,-9.7577,0.6660,-0.4005,0.1087,-0.3893
4.0900,0.0071,-2.2896,0.4202,-0.7549,-9.7520,0.7060,-0.3943,0.2044,-0.4148
4.1000,-0.2778,-2.4415,0.3628,-0.7960,-9.7457,0.7470,-0.4053,0.2417,-0.4603
4.1100,-0.4328,-2.7333,0.3435,-0.8417,-9.7384,0.7897,-0.4263,0.2384,-0.5089
4.1200,-0.2698,-3.1069,0.4052,-0.8919,-9.7302,0.8350,-0.4599,0.2281,-0.5537
4.1300,0.0615,-3.5593,0.5072,-0.9462,-9.7207,0.8842,-0.5071,0.2074,-0.5908
4.1400,0.3946,-4.1255,0.5163,-1.0033,-9.7100,0.9375,-0.5528,0.1578,-0.6068
4.1500,1.1087,-5.1046,0.2874,-1.0602,-9.6982,0.9947,-0.5942,0.0982,-0.5758
4.1600,1.6914,-5.7771,0.0617,-1.1112,-9.6860,1.0558,-0.6379,0.1055,-0.4816
4.1700,2.1890,-5.9610,-0.1174,-1.1490,-9.6743,1.1214,-0.6702,0.2114,-0.3218
4.1800,3.0102,-6.0709,-0.5022,-1.1673,-9.6638,1.1906,-0.6853,0.3439,-0.1172
4.1900,3.4797,-5.5592,-0.8605,-1.1630,-9.6553,1.2612,-0.6733,0.4129,0.1073
4.2000,3.5672,-4.6157,-1.0195,-1.1360,-9.6495,1.3289,-0.6201,0.3769,0.3425
4.2100,3.4035,-3.5742,-1.1111,-1.0871,-9.6467,1.3887,-0.5361,0.2560,0.5736
4.2200,3.0980,-2.5734,-1.2367,-1.0185,-9.6469,1.4384,-0.4494,0.1120,0.7858
4.2300,2.8048,-1.7236,-1.3815,-0.9318,-9.6495,1.4790,-0.3752,0.0025,0.9828
4.2400,2.7111,-1.0433,-1.5927,-0.8269,-9.6540,1.5113,-0.2986,-0.0799,1.1954
4.2500,3.1978,-0.4683,-1.9659,-0.7009,-9.6600,1.5356,-0.2222,-0.1443,1.4370
4.2600,3.8919,-0.2889,-2.3268,-0.5507,-9.6670,1.5520,-0.1370,-0.1760,1.7069
4.2700,4.2748,-0.5713,-2.4876,-0.3737,-9.6742,1.5592,-0.0224,-0.1531,1.9891
4.2800,4.4515,-0.9568,-2.3895,-0.1686,-9.6805,1.5549,0.1008,-0.0401,2.2542
4.2900,4.1846,-1.4381,-2.0207,0.0632,-9.6841,1.5394,0.2067,0.2025,2.4725
4.3000,3.2283,-1.9143,-1.3585,0.3157,-9.6829,1.5146,0.2698,0.5601,2.5781
4.3100,2.2526,-2.3328,-0.4747,0.5785,-9.6754,1.4847,0.2650,0.9787,2.5734
4.3200,1.3982,-2.7658,0.2316,0.8436,-9.6609,1.4517,0.2324,1.4132,2.5095
4.3300,-0.0739,-2.9613,0.6789,1.1037,-9.6404,1.4137,0.2295,1.7645,2.3645
4.3400,-1.3415,-2.7637,0.9395,1.3492,-9.6161,1.3657,0.2864,1.9865,2.1609
4.3500,-1.7013,-2.3820,1.4981,1.5768,-9.5902,1.3035,0.3629,2.1699,1.9837
4.3600,-1.7431,-2.0842,2.5292,1.7915,-9.5624,1.2285,0.3831,2.3734,1.8819
4.3700,-2.1732,-1.8967,3.2276,1.9990,-9.5315,1.1459,0.3567,2.5454,1.8276
4.3800,-2.8959,-1.6628,3.3069,2.1994,-9.4974,1.0581,0.3424,2.6209,1.7602
4.3900,-3.2700,-1.2624,3.2123,2.3902,-9.4613,0.9641,0.3585,2.6254,1.6811
4.4000,-3.8435,-0.7684,2.7200,2.5692,-9.4241,0.8632,0.4197,2.5126,1.5790
4.4100,-4.8962,-0.3401,1.5817,2.7290,-9.3886,0.7543,0.5772,2.1523,1.3809
4.4200,-4.4847,-0.0041,0.7380,2.8621,-9.3578,0.6351,0.7992,1.7505,1.1548
4.4300,-2.7629,-0.0252,0.3805,2.9729,-9.3313,0.5010,1.0258,1.5846,1.0166
4.4400,-1.6818,-0.5162,-0.2933,3.0724,-9.3060,0.3449,1.2857,1.5842,0.9748
4.4500,-1.4204,-0.8624,-0.6976,3.1686,-9.2786,0.1613,1.5851,1.5634,1.0004
4.4600,-1.5534,-1.1293,-0.8582,3.2646,-9.2464,-0.0482,1.8373,1.4872,1.0417
4.4700,-1.7095,-1.5715,-0.9056,3.3615,-9.2076,-0.2728,1.9770,1.2997,1.0985
4.4800,-2.0353,-1.9897,-0.5272,3.4630,-9.1605,-0.4972,2.0434,0.9383,1.1934
4.4900,-2.4881,-2.2930,-0.4996,3.5759,-9.1028,-0.7118,2.1025,0.4239,1.3574
4.5000,-2.9344,-2.3304,-0.7116,3.7089,-9.0316,-0.9102,2.1526,-0.1866,1.5786
4.5100,-3.4280,-2.1997,-0.7569,3.8663,-8.9455,-1.0878,2.1468,-0.6697,1.7973
4.5200,-3.5433,-2.0036,-0.4464,4.0463,-8.8449,-1.2445,2.0811,-0.9367,2.0128
4.5300,-3.4553,-1.6324,-0.0856,4.2471,-8.7294,-1.3825,2.0016,-1.0871,2.2224
4.5400,-3.4743,-0.9344,-0.0326,4.4650,-8.5999,-1.5021,1.8917,-1.2042,2.3827
4.5500,-3.5188,-0.1341,0.1620,4.6918,-8.4604,-1.6000,1.7404,-1.3199,2.4304
4.5600,-3.7193,0.4894,0.4729,4.9164,-8.3171,-1.6753,1.6005,-1.3909,2.3555
4.5700,-3.8369,0.9835,0.7373,5.1311,-8.1747,-1.7320,1.4903,-1.4331,2.2359
4.5800,-3.7767,1.4474,1.2177,5.3337,-8.0349,-1.7740,1.3892,-1.4237,2.1135
4.5900,-3.5854,1.9281,1.8456,5.5225,-7.8993,-1.8058,1.2917,-1.3299,1.9710
4.6000,-3.3889,2.3927,2.3630,5.6951,-7.7696,-1.8325,1.2187,-1.2372,1.8146
4.6100,-3.4663,2.8442,2.6112,5.8534,-7.6462,-1.8531,1.1424,-1.2194,1.6861
4.6200,-3.6404,3.3660,2.8275,6.0015,-7.5283,-1.8626,1.0270,-1.2441,1.5916
4.6300,-3.6623,3.7890,2.8806,6.1410,-7.4158,-1.8593,0.9124,-1.2456,1.4977
4.6400,-3.6407,4.0442,2.7570,6.2701,-7.3100,-1.8476,0.8357,-1.2145,1.3731
4.6500,-3.5754,4.3624,2.7300,6.3883,-7.2118,-1.8289,0.7674,-1.2194,1.2474
4.6600,-3.2014,4.6913,2.6348,6.4962,-7.1215,-1.8026,0.6962,-1.2080,1.1247
4.6700,-2.5971,4.7690,2.4357,6.5915,-7.0406,-1.7744,0.6383,-1.0830,0.9690
4.6800,-2.0428,4.5583,2.1997,6.6702,-6.9716,-1.7530,0.5993,-0.8808,0.7744
4.6900,-1.6258,4.2396,1.9261,6.7304,-6.9164,-1.7419,0.5759,-0.6805,0.5608
4.7000,-1.3353,3.9594,1.5689,6.7723,-6.8757,-1.7409,0.5597,-0.5055,0.3462
4.7100,-1.1627,3.8447,1.1649,6.7956,-6.8501,-1.7510,0.5484,-0.3252,0.1204
4.7200,-1.1117,3.7856,0.8097,6.8008,-6.8399,-1.7706,0.5198,-0.1857,-0.0960
4.7300,-0.9921,3.5536,0.4846,6.7896,-6.8443,-1.7963,0.4793,-0.0665,-0.2905
4.7400,-0.9066,3.1465,0.1650,6.7627,-6.8621,-1.8294,0.4613,0.1048,-0.4853
4.7500,-1.1778,2.7805,-0.0766,6.7196,-6.8927,-1.8724,0.4477,0.2282,-0.6638
4.7600,-1.6183,2.5533,-0.2733,6.6642,-6.9339,-1.9177,0.4040,0.2112,-0.7966
4.7700,-1.8726,2.3956,-0.4973,6.6016,-6.9833,-1.9549,0.3461,0.1055,-0.9013
4.7800,-1.7966,2.3605,-0.6466,6.5347,-7.0392,-1.9789,0.2815,-0.0620,-0.9761
4.7900,-1.4288,2.4333,-0.7239,6.4668,-7.0998,-1.9855,0.1969,-0.2599,-1.0213
4.8000,-0.8997,2.4781,-0.8581,6.3993,-7.1639,-1.9736,0.0959,-0.4230,-1.0498
4.8100,-0.4093,2.4895,-0.9889,6.3319,-7.2310,-1.9461,-0.0095,-0.5278,-1.0749
4.8200,0.0986,2.4623,-1.2010,6.2620,-7.3020,-1.9066,-0.0955,-0.5874,-1.1404
4.8300,0.4505,2.4459,-1.3877,6.1865,-7.3772,-1.8631,-0.1027,-0.5325,-1.1864
4.8400,1.9066,2.3250,-1.9011,6.1097,-7.4482,-1.8338,-0.0120,-0.2347,-1.0455
4.8500,5.0504,1.4612,-2.6634,6.0406,-7.5049,-1.8320,0.0827,0.0533,-0.8481
4.8600,5.8575,-0.1882,-2.4639,5.9756,-7.5543,-1.8422,0.0212,0.1077,-0.8579
4.8700,4.1636,-1.5479,-1.1888,5.9159,-7.6007,-1.8441,-0.1694,0.1366,-0.9687
4.8800,3.3896,-1.9626,-0.3830,5.8894,-7.6217,-1.8420,-0.2680,0.1758,-1.0093
4.8900,1.8315,-2.7277,1.0924,5.8234,-7.6774,-1.8202,-0.4766,-0.0679,-1.0193
4.9000,-0.0495,-3.2215,1.8130,5.7530,-7.7447,-1.7579,-0.6302,-0.5674,-0.9411
4.9100,-0.5745,-3.8456,1.9231,5.6926,-7.8090,-1.6672,-0.6838,-0.7273,-0.9091
4.9200,0.4295,-4.7073,1.8863,5.6321,-7.8719,-1.5743,-0.7154,-0.5914,-0.8977
4.9300,1.3514,-4.7746,1.7795,5.5683,-7.9343,-1.4855,-0.7681,-0.4790,-0.9279
4.9400,1.2158,-3.9205,1.7358,5.4943,-8.0015,-1.3977,-0.8046,-0.4046,-1.0960
4.9500,0.1788,-2.5606,1.7180,5.4027,-8.0778,-1.3134,-0.7928,-0.3020,-1.2858
4.9600,-0.0106,-0.9035,1.8227,5.2936,-8.1615,-1.2378,-0.7504,-0.1599,-1.4613
4.9700,-0.1993,0.4413,2.0004,5.1659,-8.2522,-1.1736,-0.7126,0.0117,-1.6572
4.9800,-0.8638,1.3009,2.0480,5.0191,-8.3495,-1.1205,-0.7018,0.2215,-1.8207
4.9900,-0.8541,1.8320,1.8790,4.8563,-8.4508,-1.0771,-0.7370,0.4752,-1.9393
5.0000,-0.5072,2.0254,1.6878,4.6793,-8.5547,-1.0395,-0.8247,0.7330,-2.0513
5.0100,-0.4611,1.7593,1.5402,4.4879,-8.6609,-1.0026,-0.9333,0.9638,-2.1690
5.0200,-0.9578,0.5968,1.4592,4.2821,-8.7688,-0.9626,-1.0500,1.1654,-2.2839
5.0300,-1.5154,-0.7432,1.4424,4.0636,-8.8770,-0.9165,-1.1674,1.3291,-2.3705
5.0400,-1.7979,-1.6364,1.4183,3.8367,-8.9827,-0.8626,-1.2453,1.4169,-2.3983
5.0500,-2.0344,-2.3740,1.4946,3.6080,-9.0827,-0.8009,-1.2827,1.4243,-2.3651
5.0600,-2.2072,-2.8063,1.6360,3.3835,-9.1745,-0.7321,-1.2977,1.3856,-2.2855
5.0700,-2.4585,-2.9940,1.7200,3.1676,-9.2570,-0.6556,-1.2937,1.2590,-2.1675
5.0800,-2.4834,-2.9733,1.7008,2.9648,-9.3296,-0.5717,-1.2623,1.0580,-2.0104
5.0900,-2.4785,-2.7191,1.5230,2.7799,-9.3914,-0.4834,-1.1842,0.8067,-1.8072
5.1000,-2.6975,-2.3132,1.1845,2.6174,-9.4422,-0.3948,-1.0375,0.4166,-1.5601
5.1100,-2.5597,-1.6366,1.0861,2.4800,-9.4825,-0.3100,-0.8574,-0.0151,-1.3135
5.1200,-2.0461,-0.7557,1.3461,2.3651,-9.5142,-0.2304,-0.7315,-0.3129,-1.1022
5.1300,-1.6831,0.1398,1.5235,2.2691,-9.5391,-0.1536,-0.6875,-0.4839,-0.9184
5.1400,-1.6025,0.7763,1.5654,2.1887,-9.5588,-0.0744,-0.7172,-0.5983,-0.7714
5.1500,-1.5840,1.0152,1.5253,2.1201,-9.5746,0.0124,-0.7963,-0.7078,-0.6596
5.1600,-1.5508,1.0242,1.3371,2.0601,-9.5870,0.1103,-0.8972,-0.8439,-0.5781
5.1700,-1.5166,0.6465,0.8558,2.0045,-9.5969,0.2201,-0.9815,-1.0169,-0.5487
5.1800,-1.4433,0.3265,0.4421,1.9474,-9.6052,0.3378,-0.9941,-1.1605,-0.5737
5.1900,-1.1756,-0.6502,-0.0109,1.8851,-9.6128,0.4542,-0.9231,-1.2563,-0.6162
5.2000,-0.8424,-2.1278,-0.6705,1.8169,-9.6202,0.5622,-0.7971,-1.3753,-0.6528
5.2100,-0.5767,-3.1276,-1.3869,1.7432,-9.6280,0.6560,-0.6009,-1.4813,-0.6875
5.2200,-0.4691,-3.6752,-2.1444,1.6639,-9.6368,0.7287,-0.3672,-1.5286,-0.7315
5.2300,-0.4868,-3.7143,-2.4729,1.5780,-9.6472,0.7801,-0.1884,-1.5400,-0.8026
5.2400,-0.4837,-3.3891,-2.6593,1.4831,-9.6592,0.8171,-0.0976,-1.5134,-0.9001
5.2500,-0.4839,-2.4305,-2.8631,1.3790,-9.6720,0.8472,-0.0987,-1.3869,-0.9835
5.2600,-0.0935,-1.0239,-2.5926,1.2702,-9.6843,0.8767,-0.1567,-1.1672,-1.0102
5.2700,0.3977,0.3375,-2.0017,1.1624,-9.6950,0.9072,-0.1968,-0.9306,-0.9970
5.2800,0.4827,1.2375,-1.7077,1.0576,-9.7045,0.9341,-0.1588,-0.6807,-0.9935
5.2900,0.2997,1.6509,-1.6869,0.9541,-9.7137,0.9499,-0.0430,-0.4273,-1.0163
5.3000,0.1200,1.9070,-1.6414,0.8504,-9.7233,0.9496,0.1092,-0.1916,-1.0367
5.3100,0.2142,2.2808,-1.5565,0.7487,-9.7333,0.9329,0.2374,0.0516,-1.0180
5.3200,0.7292,2.7943,-1.2891,0.6548,-9.7427,0.9049,0.3032,0.2891,-0.9160
5.3300,1.5155,3.4190,-0.9510,0.5760,-9.7509,0.8704,0.3607,0.4797,-0.7642
5.3400,1.6910,3.6606,-1.2328,0.5090,-9.7585,0.8252,0.5147,0.6802,-0.7258
5.3500,0.6809,3.0390,-2.1722,0.4378,-9.7672,0.7604,0.7196,0.9632,-0.8728
5.3600,-0.2444,2.2533,-2.4104,0.3508,-9.7766,0.6794,0.8239,1.2195,-1.0432
5.3700,0.0849,1.7058,-1.4477,0.2522,-9.7852,0.5941,0.8206,1.3205,-1.1124
5.3800,0.8050,0.6902,-0.4357,0.1504,-9.7918,0.5138,0.7473,1.2130,-1.0922
5.3900,1.1795,-0.5273,0.3085,0.0527,-9.7962,0.4464,0.5819,0.9056,-0.9861
5.4000,1.9188,-1.5828,1.4242,-0.0324,-9.7983,0.4011,0.3285,0.5494,-0.7942
5.4100,2.4231,-2.0024,2.2558,-0.0992,-9.7986,0.3827,0.0504,0.3172,-0.6014
5.4200,2.1873,-1.5754,2.1866,-0.1513,-9.7977,0.3901,-0.1866,0.2629,-0.4870
5.4300,1.8626,-1.1616,1.3765,-0.1939,-9.7959,0.4157,-0.3051,0.2558,-0.3973
5.4400,1.6158,-0.8352,0.2956,-0.2260,-9.7939,0.4457,-0.2764,0.2101,-0.2664
5.4500,1.5547,-0.4606,-0.5988,-0.2431,-9.7925,0.4678,-0.1581,0.2018,-0.0987
5.4600,1.3259,-0.1545,-1.3728,-0.2446,-9.7920,0.4763,-0.0018,0.2635,0.0394
5.4700,0.8421,0.1457,-1.9036,-0.2360,-9.7925,0.4698,0.1458,0.3255,0.0953
5.4800,0.3827,0.5194,-2.1344,-0.2263,-9.7936,0.4512,0.2365,0.3458,0.0580
5.4900,-0.1174,0.8473,-1.8669,-0.2252,-9.7947,0.4286,0.2209,0.3554,-0.0759
5.5000,-0.5069,0.9780,-1.2228,-0.2399,-9.7950,0.4137,0.0835,0.3391,-0.2501
5.5100,-0.4277,0.9198,-0.6558,-0.2694,-9.7941,0.4163,-0.1212,0.2788,-0.3603
5.5200,-0.0364,0.8368,-0.3511,-0.3047,-9.7921,0.4385,-0.3070,0.2388,-0.3678
5.5300,0.2442,0.8178,-0.2902,-0.3378,-9.7893,0.4752,-0.4093,0.2585,-0.3219
5.5400,0.3535,0.9171,-0.4495,-0.3656,-9.7862,0.5164,-0.3921,0.3107,-0.2739
5.5500,0.2814,1.3426,-0.3323,-0.3895,-9.7833,0.5522,-0.3110,0.3610,-0.2533
5.5600,0.0196,2.0057,0.2305,-0.4125,-9.7806,0.5822,-0.2813,0.3295,-0.2574
5.5700,-0.2408,2.3281,0.4244,-0.4372,-9.7777,0.6125,-0.3179,0.2030,-0.2806
5.5800,-0.2956,1.8870,0.0765,-0.4668,-9.7741,0.6469,-0.3669,0.1079,-0.3451
5.5900,-0.0296,0.8184,-0.2389,-0.5043,-9.7696,0.6858,-0.4148,0.1280,-0.4357
5.6000,0.2029,0.1768,-0.3462,-0.5499,-9.7639,0.7300,-0.4662,0.2487,-0.5181
5.6100,0.4055,-0.4505,-0.4505,-0.6018,-9.7569,0.7803,-0.5180,0.4159,-0.5888
5.6200,0.3830,-1.9526,-0.6281,-0.6588,-9.7486,0.8365,-0.5643,0.5549,-0.6538
5.6300,0.2145,-2.8358,-0.7558,-0.7204,-9.7388,0.8970,-0.5832,0.5927,-0.7068
5.6400,0.0047,-3.1667,-0.8737,-0.7862,-9.7280,0.9572,-0.5561,0.5087,-0.7405
5.6500,-0.4540,-3.7223,-0.9712,-0.8550,-9.7166,1.0126,-0.5029,0.3483,-0.7475
5.6600,-0.7108,-4.0286,-0.8429,-0.9242,-9.7050,1.0620,-0.4647,0.1795,-0.7191
5.6700,-0.6686,-4.0709,-0.5871,-0.9904,-9.6934,1.1074,-0.4481,0.0365,-0.6613
5.6800,-0.5241,-4.1801,-0.5351,-1.0526,-9.6817,1.1514,-0.4564,-0.0011,-0.6177
5.6900,-0.2320,-4.5887,-0.5331,-1.1111,-9.6694,1.1987,-0.5155,0.0670,-0.5853
5.7000,0.3815,-5.2449,-0.3463,-1.1631,-9.6561,1.2550,-0.6319,0.1052,-0.4975
5.7100,1.2788,-6.0277,0.0008,-1.2028,-9.6419,1.3251,-0.7903,0.1348,-0.3403
5.7200,2.3732,-6.7985,0.5913,-1.2230,-9.6270,1.4116,-0.9460,0.2572,-0.1252
5.7300,3.4681,-7.2906,1.1388,-1.2172,-9.6126,1.5111,-1.0165,0.4524,0.1371
5.7400,4.2365,-7.0607,1.1898,-1.1812,-9.6006,1.6127,-0.9423,0.6211,0.4311
5.7500,4.5487,-6.1136,0.7445,-1.1133,-9.5933,1.7017,-0.7342,0.6948,0.7463
5.7600,4.5398,-4.8174,0.1220,-1.0146,-9.5923,1.7680,-0.4864,0.6866,1.0430
5.7700,4.3356,-3.4386,-0.3973,-0.8893,-9.5965,1.8115,-0.2950,0.6263,1.3058
5.7800,3.9706,-1.8548,-1.1515,-0.7406,-9.6040,1.8383,-0.1668,0.5228,1.5553
5.7900,3.6307,-0.6668,-2.0819,-0.5699,-9.6129,1.8521,-0.0541,0.3828,1.8010
5.8000,3.4008,-0.1902,-2.6797,-0.3785,-9.6220,1.8529,0.0696,0.2338,2.0318
5.8100,3.0778,0.0090,-2.9281,-0.1689,-9.6302,1.8408,0.1920,0.0940,2.2302
5.8200,2.6762,-0.2067,-2.9181,0.0560,-9.6361,1.8164,0.3096,0.0138,2.3873
5.8300,2.1729,-0.8510,-2.6487,0.2929,-9.6383,1.7811,0.4152,0.0538,2.4832
5.8400,1.5291,-1.7082,-1.9966,0.5374,-9.6358,1.7370,0.4725,0.2326,2.5023
5.8500,0.9947,-2.5682,-1.3566,0.7848,-9.6276,1.6873,0.4944,0.5461,2.4662
5.8600,0.6298,-3.3216,-0.7261,1.0332,-9.6138,1.6315,0.5061,0.9890,2.4026
5.8700,0.0435,-3.7206,0.0584,1.2807,-9.5945,1.5680,0.4955,1.5369,2.2985
5.8800,-0.9004,-3.4727,0.5048,1.5223,-9.5711,1.4938,0.5120,2.0648,2.1328
5.8900,-1.9400,-2.7599,0.7868,1.7512,-9.5455,1.4043,0.5841,2.3617,1.9531
5.9000,-3.0169,-1.9800,1.2116,1.9622,-9.5193,1.3002,0.6638,2.3364,1.7799
5.9100,-3.4480,-1.3943,1.9405,2.1529,-9.4928,1.1880,0.6952,2.2021,1.6172
5.9200,-2.9454,-1.1161,2.8138,2.3269,-9.4654,1.0730,0.6778,2.1845,1.5230
5.9300,-2.8131,-0.8436,3.3983,2.4918,-9.4359,0.9567,0.6318,2.2673,1.4681
5.9400,-3.3564,-0.6275,3.3744,2.6470,-9.4047,0.8400,0.5784,2.3199,1.3553
5.9500,-3.5102,-0.5378,2.7707,2.7849,-9.3747,0.7227,0.5956,2.2314,1.1799
5.9600,-3.0451,-0.2958,2.0580,2.9020,-9.3478,0.6010,0.7111,1.9964,1.0085
5.9700,-2.7738,-0.1401,1.7766,2.9995,-9.3245,0.4702,0.9410,1.6605,0.8533
5.9800,-2.7212,-0.3041,0.9461,3.0786,-9.3050,0.3180,1.3437,1.3793,0.7088
5.9900,-2.0106,-0.8818,-0.7309,3.1428,-9.2879,0.1278,1.8070,1.3832,0.6096
6.0000,-0.8483,-1.7052,-1.1836,3.1978,-9.2692,-0.1037,2.1170,1.5650,0.5760
6.0100,-0.5494,-2.4700,-0.0846,3.2497,-9.2447,-0.3574,2.2156,1.5415,0.6278
6.0200,-1.2086,-2.9072,0.8917,3.3068,-9.2112,-0.6106,2.2592,1.2172,0.7465
6.0300,-1.8058,-3.0388,0.5408,3.3747,-9.1667,-0.8578,2.3608,0.8081,0.8794
6.0400,-2.1281,-2.9993,-0.0822,3.4558,-9.1105,-1.1000,2.4853,0.3144,0.9988
6.0500,-2.8892,-2.9264,-0.2447,3.5523,-9.0422,-1.3319,2.5557,-0.2374,1.1206
6.0600,-3.5172,-2.4371,-0.1467,3.6683,-8.9616,-1.5452,2.5234,-0.6945,1.2973
6.0700,-3.4936,-1.2509,0.1629,3.8093,-8.8678,-1.7340,2.3980,-1.0086,1.5342
6.0800,-3.3297,0.0940,0.4958,3.9759,-8.7609,-1.8955,2.1783,-1.1039,1.7779
6.0900,-3.0339,1.3686,0.8895,4.1593,-8.6447,-2.0304,1.9271,-1.0578,1.9013
6.1000,-3.1885,2.2405,1.0808,4.3453,-8.5258,-2.1413,1.7110,-1.1054,1.8751
6.1100,-3.8449,2.6373,1.2895,4.5287,-8.4077,-2.2267,1.5453,-1.2940,1.8244
6.1200,-4.0579,2.8354,1.8043,4.7110,-8.2905,-2.2872,1.4094,-1.4159,1.7756
6.1300,-3.5618,2.9981,2.2985,4.8862,-8.1758,-2.3328,1.3070,-1.3339,1.6726
6.1400,-2.9954,2.9771,2.4764,5.0481,-8.0650,-2.3733,1.2538,-1.2316,1.5510
6.1500,-2.9484,2.9479,2.5696,5.1997,-7.9579,-2.4078,1.1900,-1.2715,1.4739
6.1600,-3.2954,3.3851,2.7912,5.3475,-7.8532,-2.4277,1.0711,-1.3657,1.4353
6.1700,-3.5536,3.9224,2.7950,5.4937,-7.7510,-2.4296,0.9447,-1.4634,1.4125
6.1800,-3.6641,4.2885,2.6342,5.6391,-7.6509,-2.4140,0.8369,-1.5629,1.3890
6.1900,-3.5476,4.3897,2.4786,5.7808,-7.5539,-2.3843,0.7581,-1.5583,1.3125
6.2000,-3.2167,4.4424,2.2261,5.9100,-7.4635,-2.3522,0.7161,-1.4247,1.1647
6.2100,-3.0137,4.7429,1.9878,6.0217,-7.3829,-2.3235,0.6762,-1.2926,0.9820
6.2200,-2.8137,4.9454,1.7889,6.1150,-7.3143,-2.2970,0.6359,-1.1689,0.7674
6.2300,-2.4239,5.0455,1.5659,6.1874,-7.2603,-2.2746,0.6066,-1.0210,0.5170
6.2400,-1.8769,5.1120,1.3651,6.2360,-7.2231,-2.2602,0.5858,-0.8247,0.2364
6.2500,-1.4697,4.9785,1.1558,6.2585,-7.2045,-2.2574,0.5586,-0.5872,-0.0572
6.2600,-1.3289,4.5721,0.8304,6.2554,-7.2043,-2.2668,0.5316,-0.3720,-0.3228
6.2700,-1.1176,3.9116,0.5552,6.2298,-7.2196,-2.2884,0.5255,-0.1511,-0.5444
6.2800,-1.0358,3.3059,0.4604,6.1842,-7.2472,-2.3245,0.5308,0.0517,-0.7233
6.2900,-1.1787,2.9143,0.3682,6.1242,-7.2835,-2.3694,0.5122,0.1333,-0.8412
6.3000,-1.2518,2.5384,0.1368,6.0560,-7.3257,-2.4139,0.4748,0.1405,-0.9268
6.3100,-1.2313,2.2516,-0.1230,5.9812,-7.3733,-2.4552,0.4324,0.1002,-1.0127
6.3200,-0.9573,2.0457,-0.3627,5.9023,-7.4257,-2.4879,0.3753,-0.0247,-1.0769
6.3300,-0.1934,1.8261,-0.6256,5.8228,-7.4816,-2.5076,0.3055,-0.1739,-1.1057
6.3400,0.6428,1.5923,-0.8521,5.7447,-7.5395,-2.5143,0.2224,-0.2753,-1.1123
6.3500,1.0058,1.4923,-0.9436,5.6674,-7.5988,-2.5112,0.1342,-0.2965,-1.1116
6.3600,1.2436,1.4018,-1.1145,5.5899,-7.6592,-2.5015,0.0623,-0.3040,-1.1090
6.3700,1.6042,1.2083,-1.5214,5.5118,-7.7202,-2.4873,0.0275,-0.3262,-1.1174
6.3800,2.0291,0.9946,-1.9822,5.4323,-7.7814,-2.4713,0.0243,-0.3220,-1.1286
6.3900,2.4348,0.6274,-2.1610,5.3513,-7.8422,-2.4559,0.0008,-0.2930,-1.1264
6.4000,2.5896,0.2383,-1.5601,5.2688,-7.9030,-2.4391,-0.0983,-0.1943,-1.1088
6.4100,2.6072,-0.1646,-0.2882,5.1830,-7.9652,-2.4204,-0.2436,0.0161,-1.1086
6.4200,2.0018,-0.9529,0.8022,5.0942,-8.0301,-2.3945,-0.4009,-0.0358,-1.0970
6.4300,0.3802,-1.9431,1.3774,5.0113,-8.0961,-2.3465,-0.5428,-0.3496,-1.0537
6.4400,-0.3592,-3.1570,1.4583,4.9374,-8.1614,-2.2762,-0.6495,-0.4818,-1.0007
6.4500,0.7175,-4.3357,1.1263,4.8671,-8.2260,-2.1935,-0.7717,-0.5077,-0.9865
6.4600,1.3090,-4.7166,0.8011,4.7927,-8.2944,-2.0969,-0.9254,-0.5762,-1.0980
6.4700,0.4670,-4.3008,0.7770,4.7068,-8.3709,-1.9842,-1.0662,-0.6283,-1.2410
6.4800,-0.0302,-3.2052,1.1111,4.6097,-8.4527,-1.8616,-1.1438,-0.5722,-1.3289
6.4900,0.0832,-2.0087,1.4920,4.5007,-8.5365,-1.7420,-1.1236,-0.3917,-1.4339
6.5000,-0.2969,-1.2396,1.7274,4.3759,-8.6218,-1.6364,-1.0274,-0.1714,-1.5706
6.5100,-0.7015,-0.4672,1.8780,4.2348,-8.7082,-1.5476,-0.9261,-0.0102,-1.6980
6.5200,-0.6756,0.3494,1.7898,4.0792,-8.7954,-1.4703,-0.8831,0.0968,-1.8234
6.5300,-0.6285,0.8149,1.7140,3.9087,-8.8843,-1.3965,-0.9262,0.2245,-1.9629
6.5400,-0.9380,0.6484,1.7761,3.7220,-8.9754,-1.3212,-1.0092,0.3913,-2.0989
6.5500,-1.2004,0.1745,1.7327,3.5208,-9.0671,-1.2441,-1.0696,0.5716,-2.1925
6.5600,-1.1864,-0.1188,1.6783,3.3100,-9.1562,-1.1675,-1.0858,0.7375,-2.2305
6.5700,-1.1656,-0.2857,1.7637,3.0936,-9.2407,-1.0928,-1.0965,0.8991,-2.2444
6.5800,-1.1853,-0.4938,1.8734,2.8733,-9.3200,-1.0185,-1.1278,1.0660,-2.2520
6.5900,-1.2696,-0.7608,1.9502,2.6505,-9.3937,-0.9422,-1.1668,1.1851,-2.2419
6.6000,-1.2511,-0.8938,2.0711,2.4292,-9.4613,-0.8592,-1.2377,1.2114,-2.1866
6.6100,-1.1666,-1.0671,2.0828,2.2510,-9.5121,-0.7816,-1.3013,1.1661,-2.0817
6.6200,-1.1321,-1.2047,2.0360,2.1824,-9.5308,-0.7483,-1.3159,1.1333,-2.0218
6.6300,-1.0676,-1.4698,1.9259,2.0218,-9.5725,-0.6616,-1.3163,0.9932,-1.8376
6.6400,-1.0200,-1.6069,1.8440,1.8517,-9.6138,-0.5535,-1.2698,0.7261,-1.5727
6.6500,-1.0230,-1.5855,1.7360,1.7108,-9.6457,-0.4443,-1.1832,0.3476,-1.2749
6.6600,-0.8641,-1.3598,1.7188,1.6016,-9.6688,-0.3371,-1.0723,-0.0786,-0.9580
6.6700,-0.5194,-0.8540,1.9797,1.5241,-9.6845,-0.2329,-0.9915,-0.4389,-0.6525
6.6800,-0.3698,-0.2322,2.1869,1.4750,-9.6941,-0.1289,-0.9722,-0.7099,-0.3785
6.6900,-0.5602,0.2128,1.8915,1.4498,-9.6987,-0.0211,-0.9888,-0.9508,-0.1584
6.7000,-0.7955,0.2629,1.2282,1.4409,-9.6996,0.0914,-0.9976,-1.1810,-0.0244
6.7100,-0.6548,-0.0144,0.7494,1.4398,-9.6980,0.2068,-0.9911,-1.3349,0.0352
6.7200,-0.2718,-0.4010,0.4844,1.4411,-9.6946,0.3225,-0.9736,-1.3633,0.0654
6.7300,-0.0567,-0.8838,0.1161,1.4433,-9.6899,0.4353,-0.9375,-1.3232,0.0830
6.7400,-0.1960,-1.5924,-0.6158,1.4445,-9.6843,0.5428,-0.8656,-1.3313,0.0686
6.7500,-0.3634,-2.0138,-1.1607,1.4394,-9.6792,0.6405,-0.7225,-1.4261,-0.0113
6.7600,-0.5886,-2.3223,-1.7030,1.4223,-9.6758,0.7246,-0.5788,-1.5009,-0.1315
6.7700,-0.6515,-2.7017,-2.2881,1.3922,-9.6743,0.7990,-0.5252,-1.4705,-0.2481
6.7800,-0.4307,-2.6786,-2.4582,1.3507,-9.6740,0.8707,-0.5479,-1.3975,-0.3536
6.7900,-0.5329,-2.2695,-2.6721,1.2992,-9.6741,0.9445,-0.5858,-1.3833,-0.4444
6.8000,-0.9834,-1.5794,-3.0063,1.2372,-9.6747,1.0183,-0.5505,-1.3985,-0.5516
6.8100,-1.3903,-0.9828,-3.4050,1.1612,-9.6773,1.0813,-0.3847,-1.3725,-0.7105
6.8200,-1.6841,-0.6124,-3.7358,1.0670,-9.6835,1.1215,-0.1324,-1.2663,-0.9240
6.8300,-1.8602,-0.1798,-3.7369,0.9521,-9.6939,1.1346,0.0971,-1.0200,-1.1546
6.8400,-1.4562,0.3829,-3.1549,0.8233,-9.7068,1.1253,0.2374,-0.6600,-1.2610
6.8500,-0.3155,0.8426,-2.2279,0.6972,-9.7193,1.1029,0.2877,-0.3345,-1.1879
6.8600,0.4927,1.2539,-1.6783,0.5837,-9.7299,1.0753,0.3120,-0.1352,-1.0856
6.8700,0.1061,1.5130,-1.9612,0.4772,-9.7395,1.0399,0.4387,0.0346,-1.0979
6.8800,-0.7514,1.3623,-2.8963,0.3624,-9.7502,0.9837,0.7043,0.4116,-1.3097
6.8900,-1.4246,1.1765,-3.6163,0.2234,-9.7624,0.8989,0.9748,1.0455,-1.6643
6.9000,-1.3231,1.3535,-3.3408,0.0568,-9.7737,0.7942,1.0936,1.7920,-1.9342
6.9100,0.4134,1.7551,-2.0214,-0.1187,-9.7811,0.6909,0.9960,2.3497,-1.8930
6.9200,2.8159,1.9797,-0.0952,-0.2737,-9.7836,0.6093,0.7419,2.3180,-1.5408
6.9300,3.5984,1.5616,1.7949,-0.3900,-9.7828,0.5589,0.4165,1.6440,-1.0586
6.9400,2.9551,1.0629,2.1550,-0.4658,-9.7809,0.5358,0.1685,0.7064,-0.6302
6.9500,1.9156,1.1885,1.7068,-0.5146,-9.7790,0.5258,0.0760,-0.0528,-0.4319
6.9600,1.5083,1.3890,1.8099,-0.5578,-9.7770,0.5191,0.0310,-0.4492,-0.4286
6.9700,2.0625,1.0379,1.0473,-0.6022,-9.7747,0.5132,0.0378,-0.5542,-0.4083
6.9800,2.6084,0.4583,-0.3117,-0.6397,-9.7729,0.5019,0.1381,-0.4245,-0.2915
6.9900,2.6626,0.1792,-1.0935,-0.6620,-9.7725,0.4801,0.2702,-0.0939,-0.1335
7.0000,1.9148,0.2383,-1.3127,-0.6686,-9.7735,0.4488,0.3681,0.2224,-0.0180
7.0100,1.0011,0.6539,-1.0000,-0.6672,-9.7752,0.4136,0.3744,0.3641,0.0112
7.0200,0.5915,1.1065,-0.4146,-0.6659,-9.7765,0.3839,0.2686,0.3552,-0.0181
7.0300,0.5301,1.2565,-0.1294,-0.6685,-9.7769,0.3682,0.0925,0.3249,-0.0612
7.0400,0.6244,0.6864,-0.0804,-0.6752,-9.7764,0.3707,-0.0972,0.3162,-0.0937
7.0500,0.8561,-0.3062,-0.3167,-0.6837,-9.7750,0.3895,-0.2338,0.3211,-0.1014
7.0600,0.8864,-0.9829,-0.8539,-0.6915,-9.7733,0.4178,-0.2833,0.3409,-0.0820
7.0700,0.4286,-1.3206,-1.2403,-0.6968,-9.7716,0.4475,-0.2706,0.2946,-0.0525
7.0800,-0.1531,-1.1691,-1.2562,-0.6997,-9.7701,0.4744,-0.2429,0.1887,-0.0317
7.0900,-0.6070,-0.5458,-0.9143,-0.7018,-9.7688,0.4987,-0.2361,0.0809,-0.0233
7.1000,-0.9525,0.1199,-0.5356,-0.7038,-9.7674,0.5229,-0.2569,-0.0386,-0.0207
7.1100,-0.8521,0.4950,-0.3459,-0.7060,-9.7657,0.5497,-0.3020,-0.1365,-0.0138
7.1200,-0.6261,0.5919,-0.3255,-0.7078,-9.7638,0.5814,-0.3647,-0.1197,-0.0085
7.1300,-0.3689,0.4505,-0.4143,-0.7105,-9.7612,0.6203,-0.4386,0.0328,-0.0488
7.1400,-0.2667,0.0931,-0.4642,-0.7195,-9.7573,0.6690,-0.5399,0.2462,-0.1618
7.1500,-0.5732,-0.1959,-0.1038,-0.7402,-9.7512,0.7313,-0.6806,0.4450,-0.3121
7.1600,-0.7110,-0.3446,0.5858,-0.7740,-9.7424,0.8096,-0.8376,0.5906,-0.4588
7.1700,-0.7801,-0.7200,1.1569,-0.8203,-9.7302,0.9039,-0.9790,0.6995,-0.5976
7.1800,-1.0053,-1.6229,1.5273,-0.8771,-9.7147,1.0106,-1.0647,0.7835,-0.7079
7.1900,-1.1759,-3.1638,1.6900,-0.9403,-9.6965,1.1221,-1.0595,0.7893,-0.7507
7.2000,-1.1199,-5.1930,1.5649,-1.0036,-9.6773,1.2282,-0.9603,0.6748,-0.7152
7.2100,-0.7894,-7.2211,1.2069,-1.0613,-9.6589,1.3220,-0.8487,0.4858,-0.6164
7.2200,-0.1427,-8.3081,0.8589,-1.1097,-9.6415,1.4062,-0.8101,0.3195,-0.4909
7.2300,0.6692,-8.1992,0.3341,-1.1471,-9.6249,1.4877,-0.8076,0.2627,-0.3626
7.2400,1.3955,-7.7108,-0.6716,-1.1714,-9.6092,1.5685,-0.7946,0.3057,-0.2263
7.2500,1.8234,-7.1249,-1.7204,-1.1808,-9.5945,1.6493,-0.8027,0.3683,-0.0793
7.2600,1.9761,-6.1818,-2.3748,-1.1747,-9.5804,1.7335,-0.8483,0.4152,0.0640
7.2700,1.9601,-5.0376,-2.7394,-1.1546,-9.5664,1.8219,-0.8792,0.4369,0.1942
7.2800,1.8201,-4.0483,-2.9270,-1.1218,-9.5529,1.9108,-0.8560,0.4498,0.3188
7.2900,1.7379,-3.1321,-2.7750,-1.0756,-9.5412,1.9942,-0.7707,0.4529,0.4628
7.3000,1.7795,-2.1457,-2.3441,-1.0139,-9.5325,2.0668,-0.6406,0.4473,0.6305
7.3100,1.8320,-0.7871,-1.8717,-0.9360,-9.5277,2.1247,-0.4758,0.4305,0.7988
7.3200,1.8773,0.3906,-1.6777,-0.8430,-9.5273,2.1651,-0.2913,0.3768,0.9582
7.3300,2.0095,0.7996,-1.7748,-0.7366,-9.5309,2.1878,-0.1288,0.2791,1.1123
7.3400,2.1980,0.7886,-1.9467,-0.6177,-9.5378,2.1943,0.0249,0.1829,1.2609
7.3500,2.3426,0.3778,-2.0755,-0.4865,-9.5475,2.1850,0.1907,0.1713,1.3915
7.3600,2.3578,-0.3229,-2.0484,-0.3426,-9.5596,2.1590,0.3710,0.2499,1.5100
7.3700,2.1470,-0.9598,-1.9291,-0.1852,-9.5737,2.1147,0.5678,0.3871,1.6206
7.3800,1.7126,-1.3146,-1.8122,-0.0145,-9.5893,2.0509,0.7612,0.5229,1.7208
7.3900,1.1426,-1.4755,-1.7712,0.1673,-9.6050,1.9687,0.9267,0.5716,1.8135
7.4000,0.5242,-1.4383,-1.7114,0.3572,-9.6191,1.8717,1.0445,0.4961,1.8952
7.4100,-0.0429,-1.2753,-1.5180,0.5516,-9.6300,1.7654,1.1044,0.3334,1.9583
7.4200,-0.4644,-1.1188,-1.2191,0.7481,-9.6361,1.6562,1.1139,0.1234,2.0157
7.4300,-0.7739,-0.9576,-0.7076,0.9467,-9.6365,1.5491,1.0959,-0.1109,2.0810
7.4400,-1.0765,-0.7652,0.1236,1.1483,-9.6304,1.4471,1.0542,-0.3187,2.1419
7.4500,-1.5935,-0.4567,1.1184,1.3514,-9.6177,1.3534,0.9796,-0.4713,2.1607
7.4600,-2.4205,0.0158,2.1748,1.5505,-9.5987,1.2729,0.8473,-0.6240,2.0995
7.4700,-3.0996,0.5284,3.0859,1.7382,-9.5745,1.2121,0.6499,-0.7875,1.9715
7.4800,-3.5311,1.0034,3.6278,1.9094,-9.5465,1.1754,0.4285,-0.8474,1.7863
7.4900,-3.7802,1.3216,4.0515,2.0598,-9.5171,1.1606,0.2078,-0.7082,1.5361
7.5000,-3.8635,1.3858,4.2914,2.1862,-9.4887,1.1630,-0.0197,-0.3506,1.2428
7.5100,-3.6134,1.4476,4.4731,2.2913,-9.4621,1.1771,-0.2098,0.0971,1.0083
7.5200,-2.8812,1.5701,4.6113,2.3852,-9.4367,1.1945,-0.2901,0.4710,0.9081
7.5300,-2.3768,1.6916,4.2931,2.4771,-9.4116,1.2055,-0.2341,0.6681,0.8852
7.5400,-2.6374,1.8886,3.6112,2.5669,-9.3875,1.2060,-0.1070,0.5308,0.8452
7.5500,-3.7880,2.3800,2.8390,2.6450,-9.3664,1.2018,0.0256,0.0679,0.7208
7.5600,-4.9650,2.9003,2.2517,2.7025,-9.3504,1.1986,0.1451,-0.4044,0.5471
7.5700,-4.7166,2.9534,2.0253,2.7399,-9.3398,1.1964,0.2234,-0.6969,0.3959
7.5800,-3.7374,2.7550,1.8010,2.7611,-9.3337,1.1951,0.2764,-0.9041,0.2628
7.5900,-3.1496,2.4355,1.0227,2.7693,-9.3316,1.1930,0.3384,-0.9785,0.1654
7.6000,-1.9826,1.8716,-0.1673,2.7725,-9.3321,1.1813,0.4424,-0.7437,0.1339
7.6100,-0.3646,1.1989,-1.5987,2.7787,-9.3346,1.1462,0.6149,-0.2406,0.1233
7.6200,0.4004,0.5499,-3.0307,2.7894,-9.3396,1.0769,0.8168,0.3751,0.0906
7.6300,0.3569,0.3115,-3.7088,2.8016,-9.3469,0.9770,0.8977,0.8795,0.0310
7.6400,-0.3950,0.9085,-3.0037,2.8102,-9.3549,0.8696,0.7765,1.0120,-0.0347
7.6500,-1.6623,1.7037,-1.5710,2.8118,-9.3623,0.7812,0.5395,0.8024,-0.0906
7.6600,-2.5294,1.9585,-0.4227,2.8063,-9.3686,0.7237,0.2969,0.4713,-0.1196
7.6700,-2.6457,1.9301,0.3508,2.7975,-9.3734,0.6958,0.1139,0.1395,-0.0982
7.6800,-2.4345,1.9868,0.7834,2.7901,-9.3760,0.6900,0.0144,-0.1526,-0.0492
7.6900,-2.6291,2.1454,0.9901,2.7851,-9.3769,0.6981,-0.0077,-0.4403,-0.0081
7.7000,-2.8724,2.3639,1.3014,2.7815,-9.3767,0.7146,-0.0038,-0.7053,0.0233
7.7100,-2.7386,2.5931,1.6444,2.7793,-9.3755,0.7382,-0.0277,-0.8690,0.0561
7.7200,-2.7327,2.7905,1.7655,2.7792,-9.3731,0.7689,-0.0845,-0.9604,0.0872
7.7300,-2.8020,2.9802,1.7898,2.7803,-9.3694,0.8088,-0.1770,-1.0317,0.1015
7.7400,-2.7305,3.1704,1.8139,2.7806,-9.3647,0.8605,-0.2879,-1.0919,0.0922
7.7500,-2.5842,3.3040,1.6860,2.7782,-9.3594,0.9231,-0.3739,-1.1518,0.0693
7.7600,-2.4666,3.2149,1.4086,2.7715,-9.3541,0.9939,-0.4159,-1.2507,0.0347
7.7700,-2.3635,2.8872,1.0752,2.7580,-9.3498,1.0692,-0.4025,-1.3637,-0.0385
7.7800,-2.2245,2.3862,0.7170,2.7330,-9.3485,1.1425,-0.3275,-1.4258,-0.1675
7.7900,-2.1194,2.0812,0.5161,2.6929,-9.3521,1.2068,-0.1951,-1.4645,-0.3234
7.8000,-2.0867,1.3020,0.2963,2.6363,-9.3615,1.2575,-0.0223,-1.5426,-0.4805
7.8100,-2.0821,0.2631,0.1392,2.5632,-9.3769,1.2929,0.1590,-1.6720,-0.6327
7.8200,-2.0662,0.0159,0.3898,2.4733,-9.3978,1.3158,0.2840,-1.8254,-0.7852
7.8300,-1.9304,0.0411,0.7635,2.3664,-9.4228,1.3330,0.3186,-1.9654,-0.9350
7.8400,-1.5543,0.1060,1.0931,2.2446,-9.4501,1.3504,0.2964,-2.0551,-1.0521
7.8500,-0.8982,0.1873,1.3907,2.1125,-9.4778,1.3693,0.2545,-2.0519,-1.1249
7.8600,0.0312,0.1987,1.5403,1.9761,-9.5045,1.3876,0.2257,-1.9352,-1.1444
7.8700,1.1856,0.0657,1.5256,1.8428,-9.5292,1.4018,0.2140,-1.6962,-1.0983
7.8800,1.8636,-0.0364,1.4844,1.7207,-9.5510,1.4088,0.2114,-1.3240,-0.9934
7.8900,2.5252,-0.1873,1.3248,1.6166,-9.5696,1.4063,0.2228,-0.8294,-0.8501
7.9000,3.6011,-0.4850,0.9277,1.5341,-9.5852,1.3928,0.2437,-0.2686,-0.7027
7.9100,4.2908,-0.6978,0.4356,1.4726,-9.5984,1.3679,0.2784,0.2540,-0.5739
7.9200,4.3616,-0.7997,0.0320,1.4284,-9.6102,1.3318,0.3365,0.6166,-0.4652
7.9300,3.7766,-0.7781,-0.1450,1.3974,-9.6210,1.2862,0.4016,0.7491,-0.3659
7.9400,2.8028,-0.4654,0.0115,1.3760,-9.6307,1.2354,0.4346,0.6670,-0.2653
7.9500,1.7466,0.0668,0.4714,1.3617,-9.6389,1.1860,0.4168,0.4468,-0.1735
7.9600,0.7843,0.4783,1.0178,1.3519,-9.6454,1.1442,0.3514,0.1825,-0.1115
7.9700,-0.0060,0.5463,1.4316,1.3426,-9.6502,1.1142,0.2538,-0.0987,-0.0962
7.9800,-0.7082,0.0764,1.6607,1.3291,-9.6540,1.0977,0.1624,-0.4357,-0.1288
7.9900,-1.3287,-0.7896,1.7163,1.3071,-9.6574,1.0935,0.0994,-0.8222,-0.1805
8.0000,-1.6111,-1.5373,1.5691,1.2768,-9.6609,1.0987,0.0633,-1.1788,-0.2106
8.0100,-1.3856,-1.8664,1.3416,1.2420,-9.6641,1.1101,0.0419,-1.4290,-0.1988
8.0200,-0.7831,-2.0137,1.2669,1.2071,-9.6667,1.1262,-0.0041,-1.5107,-0.1747
8.0300,0.0812,-2.1513,1.4531,1.1736,-9.6682,1.1479,-0.0888,-1.3477,-0.1787
8.0400,1.2437,-2.1888,1.6071,1.1413,-9.6690,1.1740,-0.1666,-0.9334,-0.2094
8.0500,2.2998,-2.0743,1.3544,1.1115,-9.6694,1.1992,-0.1878,-0.3849,-0.2362
8.0600,2.5944,-1.6015,0.6750,1.0876,-9.6698,1.2178,-0.1628,0.1173,-0.2152
8.0700,1.5260,-0.2333,-0.3874,1.0745,-9.6698,1.2293,-0.1429,0.4416,-0.1213
8.0800,0.0428,1.0397,-1.3396,1.0757,-9.6686,1.2375,-0.1439,0.5682,0.0165
8.0900,-0.9920,1.3196,-1.9021,1.0902,-9.6659,1.2461,-0.1564,0.4945,0.1369
8.1000,-1.9160,1.1679,-2.3183,1.1115,-9.6619,1.2578,-0.1659,0.2237,0.1970
8.1100,-2.5393,0.8906,-2.4879,1.1308,-9.6576,1.2734,-0.1602,-0.1741,0.1827
8.1200,-2.7570,0.7730,-2.5011,1.1395,-9.6540,1.2928,-0.1490,-0.5945,0.0926
8.1300,-2.7528,0.5753,-2.2068,1.1313,-9.6519,1.3157,-0.1393,-0.9494,-0.0568
8.1400,-2.6060,0.1253,-1.7969,1.1031,-9.6517,1.3406,-0.1201,-1.1996,-0.2272
8.1500,-2.2952,-0.3748,-1.5606,1.0556,-9.6538,1.3635,-0.0615,-1.3367,-0.3917
8.1600,-1.9011,-0.6717,-1.2048,0.9914,-9.6584,1.3789,0.0309,-1.3437,-0.5495
8.1700,-1.3677,-0.6885,-0.7417,0.9124,-9.6654,1.3842,0.1109,-1.2197,-0.7063
8.1800,-0.6189,-0.6366,-0.3154,0.8209,-9.6741,1.3802,0.1708,-0.9952,-0.8525
8.1900,0.4521,-0.5880,0.0696,0.7209,-9.6839,1.3675,0.2260,-0.6978,-0.9507
8.2000,1.6924,-0.5105,0.4621,0.6203,-9.6938,1.3466,0.2761,-0.3605,-0.9498
8.2100,2.5037,-0.3788,0.8373,0.5299,-9.7029,1.3194,0.3016,-0.0431,-0.8349
8.2200,2.6856,-0.1950,1.1866,0.4589,-9.7105,1.2903,0.2789,0.1985,-0.6315
8.2300,2.4117,0.0116,1.4841,0.4130,-9.7159,1.2650,0.2090,0.3362,-0.3786
8.2400,1.7942,0.2151,1.7046,0.3928,-9.7190,1.2482,0.1014,0.3748,-0.1307
8.2500,0.9925,0.4081,1.8034,0.3943,-9.7195,1.2434,-0.0327,0.3547,0.0589
8.2600,0.5436,0.5037,1.8026,0.4099,-9.7178,1.2515,-0.1577,0.3173,0.1638
8.2700,0.1511,0.5566,1.5864,0.4316,-9.7145,1.2701,-0.2445,0.2825,0.1933
8.2800,-0.5033,0.5777,1.1276,0.4531,-9.7101,1.2954,-0.2933,0.2613,0.1708
8.2900,-0.9572,0.4856,0.6506,0.4705,-9.7055,1.3234,-0.3009,0.2591,0.1127
8.3000,-1.2645,0.3369,0.2566,0.4808,-9.7014,1.3499,-0.2642,0.2655,0.0248
8.3100,-1.5046,0.1880,0.0015,0.4813,-9.6983,1.3714,-0.2008,0.2718,-0.0905
8.3200,-1.6523,0.1335,-0.1262,0.4702,-9.6967,1.3865,-0.1370,0.2814,-0.2162
8.3300,-1.6225,0.2021,-0.1516,0.4474,-9.6964,1.3962,-0.0935,0.2896,-0.3316
8.3400,-1.4458,0.2157,-0.1141,0.4146,-9.6969,1.4030,-0.0768,0.2776,-0.4173
8.3500,-1.1803,0.0568,-0.0104,0.3754,-9.6974,1.4103,-0.1044,0.2458,-0.4556
8.3600,-0.8752,-0.0288,0.0929,0.3410,-9.6972,1.4205,-0.1641,0.2115,-0.4550
8.3700,-0.7218,-0.0058,0.1161,0.3272,-9.6969,1.4261,-0.1946,0.1956,-0.4483
8.3800,-0.3330,-0.0802,0.0571,0.2942,-9.6953,1.4437,-0.2479,0.1397,-0.4149
8.3900,0.1095,-0.3293,-0.1939,0.2575,-9.6925,1.4696,-0.2855,0.0490,-0.3663
8.4000,0.4434,-0.4464,-0.4551,0.2232,-9.6888,1.4990,-0.3228,-0.0600,-0.3358
8.4100,0.6376,-0.3117,-0.5640,0.1892,-9.6841,1.5338,-0.3921,-0.1705,-0.3252
8.4200,0.6982,-0.1699,-0.5825,0.1546,-9.6777,1.5771,-0.4918,-0.2727,-0.3111
8.4300,0.5981,-0.1195,-0.6529,0.1203,-9.6695,1.6299,-0.5801,-0.3954,-0.2812
8.4400,0.3261,-0.1841,-0.7993,0.0872,-9.6596,1.6891,-0.6218,-0.5607,-0.2342
8.4500,0.0237,-0.4589,-0.9000,0.0563,-9.6490,1.7501,-0.6223,-0.7352,-0.1685
8.4600,-0.0688,-0.8035,-0.7377,0.0293,-9.6381,1.8097,-0.5949,-0.8523,-0.0889
8.4700,0.0639,-0.9538,-0.4521,0.0088,-9.6277,1.8649,-0.5370,-0.8716,0.0026
8.4800,0.2244,-0.8078,-0.2767,-0.0027,-9.6182,1.9129,-0.4575,-0.8124,0.0928
8.4900,0.3805,-0.4952,-0.0996,-0.0048,-9.6102,1.9531,-0.3752,-0.6874,0.1659
8.5000,0.4990,-0.1353,0.0592,0.0019,-9.6034,1.9861,-0.3083,-0.4931,0.2133
8.5100,0.4568,0.2153,0.1331,0.0157,-9.5977,2.0135,-0.2571,-0.2590,0.2256
8.5200,0.2929,0.3717,0.2103,0.0338,-9.5929,2.0359,-0.2113,-0.0245,0.2050
8.5300,0.1828,0.3761,0.2609,0.0534,-9.5888,2.0547,-0.1874,0.1893,0.1652
8.5400,0.0497,0.3233,0.3279,0.0730,-9.5848,2.0729,-0.1978,0.3761,0.1196
8.5500,-0.1318,0.3343,0.3348,0.0921,-9.5804,2.0924,-0.2139,0.5082,0.0852
8.5600,-0.2554,0.4499,0.1889,0.1108,-9.5758,2.1123,-0.2077,0.5599,0.0708
8.5700,-0.4340,0.4944,0.1043,0.1291,-9.5716,2.1305,-0.1834,0.5389,0.0634
8.5800,-0.6591,0.4594,0.1271,0.1453,-9.5678,2.1464,-0.1642,0.4513,0.0499
8.5900,-0.8203,0.3208,0.2186,0.1574,-9.5641,2.1620,-0.1776,0.3116,0.0284
8.6000,-0.8489,0.0817,0.3230,0.1638,-9.5596,2.1814,-0.2384,0.1469,0.0013
8.6100,-0.7831,-0.1121,0.2904,0.1639,-9.5533,2.2084,-0.3284,-0.0219,-0.0288
8.6200,-0.6581,-0.1967,0.0696,0.1574,-9.5451,2.2440,-0.4038,-0.1823,-0.0578
8.6300,-0.4741,-0.2573,-0.1633,0.1448,-9.5356,2.2849,-0.4367,-0.3134,-0.0833
8.6400,-0.2631,-0.3695,-0.2296,0.1274,-9.5256,2.3274,-0.4380,-0.3789,-0.1056
8.6500,-0.1461,-0.4431,-0.2282,0.1076,-9.5155,2.3691,-0.4204,-0.3775,-0.1169
8.6600,-0.0139,-0.3876,-0.2867,0.0880,-9.5059,2.4085,-0.3970,-0.3212,-0.1132
8.6700,0.1853,-0.2575,-0.3457,0.0713,-9.4964,2.4459,-0.3836,-0.2175,-0.0939
8.6800,0.2977,-0.1764,-0.3243,0.0599,-9.4870,2.4825,-0.3839,-0.0903,-0.0627
8.6900,0.3347,-0.1603,-0.2439,0.0550,-9.4774,2.5193,-0.3857,0.0352,-0.0246
8.7000,0.2804,-0.1654,-0.2267,0.0568,-9.4677,2.5554,-0.3686,0.1317,0.0169
8.7100,0.1489,-0.1097,-0.3033,0.0645,-9.4588,2.5880,-0.3137,0.1960,0.0550
8.7200,0.0283,0.0139,-0.4423,0.0768,-9.4516,2.6137,-0.2276,0.2405,0.0839
8.7300,-0.0638,0.1118,-0.5255,0.0924,-9.4465,2.6315,-0.1559,0.2809,0.0990
8.7400,-0.1351,0.1372,-0.3785,0.1101,-9.4426,2.6449,-0.1406,0.3297,0.1034
8.7500,-0.1587,0.0650,-0.0377,0.1294,-9.4384,2.6591,-0.1723,0.3998,0.0999
8.7600,-0.1374,-0.0388,0.2732,0.1502,-9.4331,2.6766,-0.2072,0.4991,0.0847
8.7700,-0.0828,-0.0818,0.4281,0.1722,-9.4271,2.6962,-0.2234,0.6177,0.0616
8.7800,-0.0276,-0.1195,0.4775,0.1954,-9.4210,2.7160,-0.2193,0.7405,0.0377
8.7900,0.0282,-0.2188,0.5844,0.2200,-9.4151,2.7347,-0.2112,0.8728,0.0162
8.8000,0.1293,-0.4228,0.8658,0.2466,-9.4090,2.7533,-0.2324,0.9950,0.0010
8.8100,0.1317,-0.4205,1.1040,0.2749,-9.4017,2.7752,-0.2918,1.0605,-0.0078
8.8200,-0.0035,-0.0086,1.0265,0.3042,-9.3925,2.8034,-0.3730,1.0670,-0.0032
8.8300,-0.0792,0.2529,0.8311,0.3344,-9.3807,2.8390,-0.4490,1.0077,0.0221
8.8400,-0.1213,0.1867,0.4635,0.3657,-9.3669,2.8803,-0.4933,0.8824,0.0663
8.8500,-0.2107,0.0742,-0.0107,0.3976,-9.3520,2.9243,-0.5017,0.7095,0.1205
8.8600,-0.2781,0.0173,-0.2048,0.4294,-9.3368,2.9682,-0.4839,0.5060,0.1703
8.8700,-0.2632,-0.0904,-0.4306,0.4593,-9.3219,3.0102,-0.4492,0.3059,0.2082
8.8800,-0.2707,-0.2435,-0.6928,0.4865,-9.3078,3.0492,-0.4060,0.1148,0.2375
8.8900,-0.3485,-0.2590,-0.7923,0.5101,-9.2948,3.0849,-0.3613,-0.0724,0.2541
8.9000,-0.4341,-0.2051,-0.8489,0.5288,-9.2828,3.1176,-0.3199,-0.2423,0.2486
8.9100,-0.5057,-0.2013,-0.7502,0.5407,-9.2720,3.1476,-0.2911,-0.3732,0.2136
8.9200,-0.4631,-0.1408,-0.6267,0.5448,-9.2621,3.1760,-0.2718,-0.4184,0.1449
8.9300,-0.2646,-0.1090,-0.5708,0.5419,-9.2530,3.2028,-0.2569,-0.3555,0.0645
8.9400,-0.1004,-0.1884,-0.4547,0.5350,-9.2447,3.2280,-0.2482,-0.2324,-0.0023
8.9500,-0.1020,-0.1307,-0.5044,0.5268,-9.2369,3.2515,-0.2380,-0.0988,-0.0538
8.9600,-0.2846,0.0259,-0.7608,0.5184,-9.2298,3.2730,-0.2202,-0.0005,-0.0915
8.9700,-0.5952,0.0704,-0.9539,0.5090,-9.2235,3.2923,-0.1953,0.0196,-0.1194
8.9800,-0.8494,0.1128,-1.0593,0.4967,-9.2183,3.3087,-0.1579,-0.0297,-0.1408
8.9900,-0.8480,0.1908,-1.0704,0.4813,-9.2144,3.3216,-0.1170,-0.0981,-0.1408
9.0000,-0.6668,0.2131,-0.9605,0.4653,-9.2117,3.3313,-0.0818,-0.1334,-0.1137
9.0100,-0.5275,0.2189,-0.7818,0.4522,-9.2099,3.3382,-0.0564,-0.1191,-0.0734
9.0200,-0.4344,0.2158,-0.5532,0.4442,-9.2084,3.3434,-0.0497,-0.0592,-0.0315
9.0300,-0.3924,0.2090,-0.4340,0.4427,-9.2067,3.3482,-0.0515,0.0476,0.0072
9.0400,-0.3171,0.1545,-0.3037,0.4491,-9.2050,3.3521,-0.0438,0.2058,0.0410
9.0500,-0.1569,0.0239,-0.0484,0.4642,-9.2037,3.3535,-0.0144,0.3993,0.0651
9.0600,-0.0339,-0.0968,0.1659,0.4873,-9.2038,3.3502,0.0342,0.5884,0.0717
9.0700,-0.0088,-0.0704,0.2937,0.5160,-9.2053,3.3416,0.0733,0.7248,0.0670
9.0800,-0.0669,0.0282,0.4307,0.5471,-9.2073,3.3311,0.0551,0.7556,0.0671
9.0900,-0.2001,0.1117,0.6198,0.5775,-9.2078,3.3245,-0.0050,0.6685,0.0709
9.1000,-0.3482,0.2090,0.6025,0.6035,-9.2065,3.3236,-0.0449,0.5096,0.0643
9.1100,-0.3928,0.2624,0.3730,0.6225,-9.2045,3.3257,-0.0537,0.3249,0.0449
9.1200,-0.3135,0.2498,0.1810,0.6334,-9.2025,3.3292,-0.0545,0.1239,0.0280
9.1300,-0.2151,0.1578,0.0728,0.6364,-9.2003,3.3348,-0.0658,-0.1267,0.0399
9.1400,-0.1468,0.0237,-0.0222,0.6329,-9.1975,3.3431,-0.0743,-0.3893,0.0778
9.1500,-0.0016,-0.0508,-0.1724,0.6256,-9.1943,3.3531,-0.0780,-0.5967,0.1276
9.1600,0.1805,-0.0914,-0.3049,0.6174,-9.1906,3.3649,-0.0867,-0.7212,0.1807
9.1700,0.3201,-0.1686,-0.3691,0.6110,-9.1864,3.3774,-0.0848,-0.7308,0.2183
9.1800,0.4202,-0.2518,-0.3903,0.6084,-9.1825,3.3885,-0.0643,-0.6145,0.2252
9.1900,0.4756,-0.2894,-0.3543,0.6104,-9.1795,3.3962,-0.0348,-0.3961,0.1927
9.2000,0.4530,-0.2764,-0.2717,0.6162,-9.1777,3.4002,-0.0193,-0.1587,0.1364
9.2100,0.1463,-0.2694,-0.1893,0.6238,-9.1764,3.4023,-0.0198,0.0205,0.0782
9.2200,-0.2004,-0.2514,-0.1778,0.6312,-9.1754,3.4037,-0.0208,0.1147,0.0295
9.2300,-0.2832,-0.1967,-0.1843,0.6368,-9.1747,3.4045,-0.0154,0.1385,-0.0028
9.2400,-0.2000,-0.1236,-0.1466,0.6404,-9.1745,3.4043,-0.0006,0.1306,-0.0164
9.2500,-0.0131,-0.0461,-0.0580,0.6433,-9.1749,3.4027,0.0183,0.1262,-0.0120
9.2600,0.1473,0.0209,0.0639,0.6473,-9.1758,3.3993,0.0342,0.1369,0.0032
9.2700,0.2044,0.0725,0.1569,0.6531,-9.1771,3.3949,0.0398,0.1449,0.0199
9.2800,0.1938,0.1008,0.2077,0.6603,-9.1782,3.3905,0.0331,0.1368,0.0321
9.2900,0.1609,0.1244,0.2169,0.6678,-9.1789,3.3871,0.0209,0.1184,0.0360
9.3000,0.1203,0.1375,0.1938,0.6746,-9.1793,3.3848,0.0132,0.1062,0.0282
9.3100,0.0622,0.1452,0.1550,0.6798,-9.1796,3.3829,0.0124,0.1011,0.0108
9.3200,-0.0152,0.1489,0.1081,0.6831,-9.1800,3.3811,0.0100,0.0936,-0.0088
9.3300,-0.0950,0.1244,0.0426,0.6845,-9.1803,3.3798,0.0030,0.0750,-0.0226
9.3400,-0.1683,0.1058,-0.0462,0.6841,-9.1804,3.3798,-0.0100,0.0316,-0.0241
9.3500,-0.2266,0.0851,-0.1466,0.6823,-9.1800,3.3812,-0.0202,-0.0290,-0.0127
9.3600,-0.2486,0.0438,-0.2161,0.6800,-9.1793,3.3836,-0.0215,-0.0849,0.0070
9.3700,-0.2457,0.0221,-0.2336,0.6781,-9.1784,3.3864,-0.0211,-0.1249,0.0312
9.3800,-0.1944,-0.0763,-0.1887,0.6776,-9.1775,3.3890,-0.0151,-0.1381,0.0559
9.3900,-0.1106,-0.2204,-0.0951,0.6792,-9.1767,3.3908,-0.0033,-0.1163,0.0751
9.4000,-0.0552,-0.2745,-0.0243,0.6835,-9.1762,3.3912,0.0054,-0.0676,0.0850
9.4100,-0.0366,-0.2825,-0.0003,0.6899,-9.1760,3.3906,0.0112,-0.0097,0.0814
9.4200,-0.0575,-0.2254,-0.0248,0.6972,-9.1759,3.3892,0.0159,0.0400,0.0630
9.4300,-0.1052,-0.0943,-0.0836,0.7038,-9.1761,3.3873,0.0149,0.0657,0.0402
9.4400,-0.1501,0.0086,-0.1177,0.7089,-9.1763,3.3859,0.0055,0.0589,0.0257
9.4500,-0.1593,-0.0087,-0.1121,0.7126,-9.1761,3.3855,-0.0043,0.0310,0.0233
9.4600,-0.1260,-0.0775,-0.1036,0.7155,-9.1757,3.3859,-0.0063,0.0106,0.0254
9.4700,-0.0491,-0.0819,-0.0776,0.7182,-9.1754,3.3863,-0.0054,0.0116,0.0246
9.4800,0.0189,-0.0243,-0.0233,0.7208,-9.1750,3.3868,-0.0105,0.0226,0.0201
9.4900,0.0267,0.0541,0.0319,0.7232,-9.1743,3.3881,-0.0224,0.0244,0.0145
9.5000,-0.0092,0.0995,0.0363,0.7248,-9.1733,3.3906,-0.0318,0.0020,0.0118
9.5100,-0.0723,0.0936,-0.0271,0.7252,-9.1721,3.3938,-0.0333,-0.0456,0.0133
9.5200,-0.1439,0.0740,-0.1103,0.7240,-9.1709,3.3972,-0.0296,-0.1092,0.0177
9.5300,-0.1773,0.0424,-0.1680,0.7211,-9.1699,3.4004,-0.0183,-0.1606,0.0216
9.5400,-0.1391,-0.0175,-0.1858,0.7173,-9.1695,3.4024,-0.0019,-0.1725,0.0216
9.5500,-0.0472,-0.0718,-0.1490,0.7136,-9.1694,3.4034,0.0043,-0.1475,0.0200
9.5600,0.0353,-0.1054,-0.0933,0.7110,-9.1693,3.4041,-0.0025,-0.1013,0.0181
9.5700,0.0788,-0.1204,-0.0896,0.7100,-9.1689,3.4055,-0.0139,-0.0536,0.0185
9.5800,0.0774,-0.1227,-0.1432,0.7106,-9.1681,3.4074,-0.0220,-0.0196,0.0218
9.5900,0.1627,-0.1191,-0.2354,0.7141,-9.1671,3.4094,-0.0210,0.0404,0.0515
9.6000,0.2903,-0.1281,-0.2685,0.7253,-9.1659,3.4103,-0.0138,0.1622,0.1253
9.6100,0.2210,-0.1089,-0.2591,0.7488,-9.1644,3.4092,-0.0018,0.2988,0.2083
9.6200,0.1075,-0.0756,-0.2685,0.7814,-9.1629,3.4061,0.0148,0.3665,0.2377
9.6300,-0.1253,-0.0486,-0.1728,0.8133,-9.1619,3.4013,0.0254,0.3250,0.1847
9.6400,-0.2726,-0.0635,0.0287,0.8350,-9.1616,3.3967,0.0236,0.2218,0.0821
9.6500,-0.0936,-0.1394,0.2191,0.8434,-9.1620,3.3936,0.0131,0.1180,-0.0228
9.6600,0.0791,-0.1379,0.3201,0.8399,-9.1628,3.3924,0.0002,0.0320,-0.1022
9.6700,0.1901,-0.0560,0.3173,0.8277,-9.1637,3.3930,-0.0142,-0.0373,-0.1572
9.6800,0.3055,-0.0128,0.2572,0.8095,-9.1644,3.3954,-0.0267,-0.0763,-0.1872
9.6900,0.4305,-0.0359,0.1677,0.7896,-9.1649,3.3987,-0.0314,-0.0725,-0.1813
