seconds_elapsed,acc_z,acc_y,acc_x,grav_z,grav_y,grav_x,gyro_z,gyro_y,gyro_x
0.0400,-0.1553,-0.0109,0.0300,1.4936,-9.5355,1.7363,-0.0123,0.0250,0.0316
0.0500,-0.1023,-0.0303,0.0906,1.4972,-9.5348,1.7368,-0.0083,0.0382,0.0336
0.0600,-0.0807,-0.0261,0.1307,1.5007,-9.5342,1.7369,-0.0060,0.0494,0.0240
0.0700,-0.0578,-0.0217,0.1709,1.5030,-9.5338,1.7370,-0.0078,0.0366,0.0081
0.0800,-0.0892,-0.0100,0.1308,1.5034,-9.5337,1.7376,-0.0102,0.0073,-0.0082
0.0900,-0.1091,0.0060,0.0570,1.5020,-9.5337,1.7389,-0.0128,-0.0189,-0.0165
0.1000,-0.1120,0.0189,-0.0091,1.5000,-9.5336,1.7407,-0.0153,-0.0344,-0.0117
0.1100,-0.1107,0.0302,-0.0870,1.4988,-9.5335,1.7425,-0.0128,-0.0281,0.0029
0.1200,-0.0832,0.0183,-0.1305,1.4994,-9.5332,1.7436,-0.0058,-0.0016,0.0214
0.1300,-0.0720,0.0114,-0.1140,1.5022,-9.5328,1.7435,0.0031,0.0320,0.0347
0.1400,-0.0956,0.0409,-0.0613,1.5064,-9.5323,1.7425,0.0061,0.0561,0.0374
0.1500,-0.1532,0.0713,0.0369,1.5107,-9.5318,1.7415,-0.0009,0.0602,0.0304
0.1600,-0.2183,0.0671,0.1332,1.5138,-9.5313,1.7414,-0.0120,0.0503,0.0173
0.1700,-0.2459,0.0412,0.1853,1.5155,-9.5309,1.7422,-0.0177,0.0412,0.0038
0.1800,-0.2268,0.0390,0.1791,1.5159,-9.5306,1.7434,-0.0190,0.0361,-0.0037
0.1900,-0.2077,0.0514,0.1431,1.5158,-9.5304,1.7448,-0.0221,0.0231,-0.0060
0.2000,-0.2117,0.0479,0.1132,1.5153,-9.5301,1.7469,-0.0266,-0.0004,-0.0066
0.2100,-0.2078,0.0336,0.0871,1.5144,-9.5297,1.7496,-0.0287,-0.0214,-0.0058
0.2200,-0.1796,0.0218,0.0843,1.5132,-9.5294,1.7527,-0.0284,-0.0329,-0.0052
0.2300,-0.1489,0.0341,0.1103,1.5118,-9.5289,1.7561,-0.0306,-0.0396,-0.0062
0.2400,-0.1300,0.0569,0.1392,1.5102,-9.5285,1.7600,-0.0360,-0.0394,-0.0079
0.2500,-0.0940,0.0542,0.1607,1.5083,-9.5280,1.7645,-0.0419,-0.0280,-0.0121
0.2600,-0.0356,0.0162,0.1738,1.5062,-9.5274,1.7692,-0.0430,-0.0127,-0.0197
0.2700,-0.0099,-0.0145,0.1620,1.5035,-9.5271,1.7733,-0.0369,-0.0026,-0.0301
0.2800,-0.0504,-0.0309,0.1776,1.4996,-9.5271,1.7768,-0.0294,-0.0081,-0.0406
0.2900,-0.1252,-0.0335,0.2159,1.4946,-9.5272,1.7799,-0.0277,-0.0368,-0.0485
0.3000,-0.1591,-0.0233,0.2225,1.4885,-9.5275,1.7836,-0.0308,-0.0795,-0.0546
0.3100,-0.1523,0.0250,0.1564,1.4813,-9.5278,1.7881,-0.0301,-0.1229,-0.0585
0.3200,-0.0898,0.0856,0.0874,1.4732,-9.5282,1.7928,-0.0221,-0.1583,-0.0556
0.3300,0.0143,0.1317,0.0903,1.4652,-9.5286,1.7968,-0.0067,-0.1730,-0.0488
0.3400,0.0531,0.2256,0.1344,1.4577,-9.5294,1.7990,0.0135,-0.1616,-0.0474
0.3500,0.0508,0.2866,0.1713,1.4501,-9.5306,1.7988,0.0339,-0.1336,-0.0544
0.3600,0.0543,0.2806,0.1383,1.4420,-9.5323,1.7963,0.0539,-0.0914,-0.0709
0.3700,0.0242,0.2585,0.0839,1.4329,-9.5346,1.7915,0.0698,-0.0443,-0.0922
0.3800,-0.0372,0.2129,0.0516,1.4227,-9.5374,1.7847,0.0777,-0.0060,-0.1121
0.3900,-0.0799,0.1214,0.0322,1.4111,-9.5405,1.7773,0.0751,0.0279,-0.1311
0.4000,-0.0844,0.0618,0.0281,1.3985,-9.5437,1.7697,0.0712,0.0752,-0.1505
0.4100,-0.0539,0.0089,0.0691,1.3859,-9.5472,1.7609,0.0819,0.1606,-0.1580
0.4200,0.0658,-0.1548,0.1504,1.3748,-9.5510,1.7488,0.1071,0.2837,-0.1527
0.4300,0.1567,-0.3238,0.2383,1.3662,-9.5552,1.7328,0.1284,0.3894,-0.1515
0.4400,-0.0848,-0.3621,0.2125,1.3584,-9.5595,1.7148,0.1292,0.4172,-0.1569
0.4500,-0.3166,-0.3387,0.1503,1.3497,-9.5637,1.6982,0.1048,0.3634,-0.1648
0.4600,-0.3403,-0.2139,0.1162,1.3390,-9.5674,1.6860,0.0599,0.2674,-0.1699
0.4700,-0.3167,-0.0041,0.0317,1.3263,-9.5702,1.6801,0.0039,0.1722,-0.1698
0.4800,-0.2059,0.1972,-0.0843,1.3123,-9.5720,1.6805,-0.0496,0.1054,-0.1678
0.4900,-0.0809,0.3916,-0.1964,1.2975,-9.5731,1.6859,-0.0820,0.0745,-0.1711
0.5000,-0.0000,0.5430,-0.2920,1.2818,-9.5739,1.6934,-0.0896,0.0695,-0.1798
0.5100,0.0307,0.5985,-0.4050,1.2653,-9.5748,1.7008,-0.0813,0.0768,-0.1888
0.5200,0.0612,0.4784,-0.4834,1.2481,-9.5760,1.7066,-0.0559,0.0861,-0.1987
0.5300,0.0551,0.2849,-0.5224,1.2298,-9.5779,1.7091,-0.0167,0.0978,-0.2138
0.5400,0.0065,0.1411,-0.5217,1.2099,-9.5807,1.7076,0.0206,0.1105,-0.2368
0.5500,-0.0724,0.1164,-0.4333,1.1879,-9.5844,1.7026,0.0554,0.1171,-0.2613
0.5600,-0.1324,0.1725,-0.3470,1.1636,-9.5889,1.6942,0.0934,0.1094,-0.2799
0.5700,-0.1855,0.3023,-0.3400,1.1377,-9.5941,1.6821,0.1401,0.0651,-0.2844
0.5800,-0.2495,0.4876,-0.4195,1.1113,-9.6000,1.6657,0.1989,-0.0212,-0.2689
0.5900,-0.2594,0.5830,-0.4867,1.0855,-9.6068,1.6432,0.2880,-0.1426,-0.2355
0.6000,-0.2398,0.5325,-0.5003,1.0613,-9.6148,1.6120,0.4045,-0.2742,-0.1961
0.6100,-0.2166,0.4795,-0.5166,1.0387,-9.6241,1.5706,0.5235,-0.3898,-0.1613
0.6200,-0.1900,0.4253,-0.4995,1.0172,-9.6345,1.5200,0.6063,-0.4686,-0.1479
0.6300,-0.1483,0.5013,-0.3107,0.9954,-9.6455,1.4639,0.6501,-0.5168,-0.1541
0.6400,-0.0822,0.3681,-0.1329,0.9726,-9.6568,1.4034,0.7111,-0.5502,-0.1553
0.6500,0.0838,0.3249,-0.0528,0.9494,-9.6684,1.3375,0.7505,-0.4824,-0.1750
0.6600,0.2252,0.5622,0.0576,0.9254,-9.6801,1.2680,0.7520,-0.2595,-0.2163
0.6700,0.3312,-0.0721,0.3001,0.9022,-9.6915,1.1956,0.7444,0.1462,-0.2384
0.6800,0.4829,-0.8334,0.7031,0.8842,-9.7020,1.1216,0.6942,0.6445,-0.2150
0.6900,0.4223,-1.0071,1.0301,0.8752,-9.7107,1.0512,0.5917,1.0123,-0.1544
0.7000,0.1802,-1.0121,1.1371,0.8743,-9.7173,0.9898,0.4724,1.1235,-0.0934
0.7100,0.0186,-0.8016,1.0521,0.8775,-9.7220,0.9393,0.3696,1.0096,-0.0576
0.7200,-0.0626,-0.4696,1.0002,0.8803,-9.7256,0.8989,0.2936,0.8160,-0.0657
0.7300,-0.1643,-0.2117,1.0251,0.8785,-9.7287,0.8670,0.2355,0.5995,-0.1031
0.7400,-0.2288,-0.0579,1.0122,0.8704,-9.7316,0.8421,0.1876,0.3708,-0.1425
0.7500,-0.2272,0.0082,0.9918,0.8573,-9.7344,0.8229,0.1623,0.1690,-0.1658
0.7600,-0.1754,-0.1239,0.8687,0.8422,-9.7371,0.8064,0.1606,0.0164,-0.1528
0.7700,-0.0598,-0.1802,0.7539,0.8287,-9.7395,0.7910,0.1556,-0.0379,-0.1188
0.7800,0.0739,-0.0495,0.7685,0.8182,-9.7415,0.7776,0.1190,0.0275,-0.0944
0.7900,0.1203,0.0023,0.6275,0.8102,-9.7429,0.7682,0.0593,0.1520,-0.0836
0.8000,0.0457,-0.0226,0.3170,0.8040,-9.7438,0.7633,0.0093,0.2445,-0.0707
0.8100,-0.0550,-0.0784,0.0122,0.8002,-9.7442,0.7617,-0.0156,0.2655,-0.0469
0.8200,-0.1459,-0.1292,-0.1894,0.7985,-9.7444,0.7616,-0.0188,0.2294,-0.0291
0.8300,-0.1756,-0.1532,-0.2776,0.7969,-9.7445,0.7614,-0.0074,0.1674,-0.0348
0.8400,-0.1542,-0.1584,-0.2962,0.7935,-9.7449,0.7602,0.0091,0.1246,-0.0589
0.8500,-0.0742,-0.1508,-0.2602,0.7871,-9.7456,0.7577,0.0214,0.1289,-0.0905
0.8600,0.0468,-0.0911,-0.1478,0.7777,-9.7466,0.7542,0.0268,0.1706,-0.1240
0.8700,0.0893,0.0307,-0.0051,0.7656,-9.7479,0.7500,0.0301,0.2166,-0.1496
0.8800,0.0684,0.1383,0.0617,0.7522,-9.7493,0.7450,0.0376,0.2460,-0.1576
0.8900,0.0085,0.1748,0.0648,0.7387,-9.7508,0.7390,0.0446,0.2644,-0.1558
0.9000,-0.0624,0.1736,0.0794,0.7252,-9.7523,0.7327,0.0438,0.2757,-0.1595
0.9100,-0.1148,0.1762,0.0879,0.7111,-9.7538,0.7268,0.0381,0.2750,-0.1686
0.9200,-0.1227,0.1625,0.0789,0.6959,-9.7553,0.7214,0.0325,0.2647,-0.1794
0.9300,-0.0767,0.1184,0.0781,0.6797,-9.7568,0.7166,0.0326,0.2530,-0.1896
0.9400,-0.0109,0.0447,0.0848,0.6627,-9.7584,0.7108,0.0545,0.2373,-0.1922
0.9500,0.0552,-0.0431,0.0916,0.6456,-9.7601,0.7023,0.0882,0.2274,-0.1884
0.9600,0.1440,-0.0615,0.0832,0.6289,-9.7620,0.6912,0.1067,0.2494,-0.1840
0.9700,0.2353,-0.0168,0.1023,0.6128,-9.7639,0.6791,0.1042,0.2893,-0.1828
0.9800,0.2479,0.0357,0.1244,0.5968,-9.7657,0.6678,0.0864,0.3208,-0.1849
0.9900,0.1932,0.0951,0.0911,0.5807,-9.7673,0.6586,0.0645,0.3337,-0.1857
1.0000,0.1375,0.1118,0.0244,0.5646,-9.7687,0.6513,0.0463,0.3308,-0.1863
1.0100,0.0925,0.0845,-0.0334,0.5484,-9.7700,0.6451,0.0460,0.3326,-0.1856
1.0200,0.0740,0.0618,-0.0908,0.5329,-9.7714,0.6376,0.0727,0.3350,-0.1726
1.0300,0.0461,0.2539,-0.1629,0.5189,-9.7728,0.6275,0.0998,0.3296,-0.1555
1.0400,-0.0037,0.3465,-0.1433,0.5063,-9.7742,0.6150,0.1236,0.2953,-0.1420
1.0500,0.0111,0.1595,0.0370,0.4942,-9.7758,0.6006,0.1404,0.2448,-0.1403
1.0600,0.1121,0.0180,0.2303,0.4804,-9.7773,0.5864,0.1181,0.2348,-0.1724
1.0700,0.1811,-0.2119,0.2263,0.4624,-9.7788,0.5757,0.0761,0.2466,-0.2218
1.0800,0.2252,-0.3447,0.0667,0.4406,-9.7802,0.5684,0.0537,0.2253,-0.2423
1.0900,0.2771,-0.2233,-0.0188,0.4184,-9.7815,0.5632,0.0337,0.1686,-0.2290
1.1000,0.2635,-0.0743,-0.0529,0.3978,-9.7825,0.5609,0.0014,0.0998,-0.2025
1.1100,0.2126,0.0232,-0.1282,0.3800,-9.7832,0.5618,-0.0240,0.0226,-0.1660
1.1200,0.1723,0.0893,-0.1588,0.3653,-9.7835,0.5651,-0.0406,-0.0449,-0.1320
1.1300,0.1282,0.1381,-0.1887,0.3528,-9.7837,0.5700,-0.0505,-0.0804,-0.1165
1.1400,0.0564,0.1604,-0.2637,0.3408,-9.7838,0.5755,-0.0539,-0.0994,-0.1198
1.1500,-0.0164,0.1429,-0.3291,0.3278,-9.7839,0.5813,-0.0555,-0.1266,-0.1309
1.1600,-0.0741,0.0797,-0.3805,0.3136,-9.7841,0.5865,-0.0376,-0.1775,-0.1389
1.1700,-0.0870,0.0075,-0.3996,0.2983,-9.7844,0.5893,-0.0063,-0.2316,-0.1479
1.1800,-0.0405,-0.0339,-0.3742,0.2816,-9.7848,0.5898,0.0090,-0.2618,-0.1638
1.1900,0.0276,-0.0424,-0.3801,0.2630,-9.7854,0.5894,0.0145,-0.2722,-0.1816
1.2000,0.0998,-0.0442,-0.4308,0.2430,-9.7860,0.5884,0.0207,-0.2710,-0.1933
1.2100,0.1665,-0.0390,-0.4608,0.2222,-9.7866,0.5866,0.0304,-0.2620,-0.1967
1.2200,0.2055,-0.0314,-0.4605,0.2014,-9.7872,0.5837,0.0405,-0.2471,-0.1946
1.2300,0.2369,-0.0314,-0.4370,0.1812,-9.7878,0.5801,0.0422,-0.2320,-0.1881
1.2400,0.2538,-0.0089,-0.3828,0.1617,-9.7883,0.5767,0.0354,-0.2195,-0.1812
1.2500,0.2395,0.0398,-0.2898,0.1429,-9.7888,0.5738,0.0320,-0.2152,-0.1756
1.2600,0.2085,0.0754,-0.1759,0.1247,-9.7892,0.5708,0.0351,-0.2268,-0.1686
1.2700,0.1661,0.1072,-0.0573,0.1070,-9.7896,0.5676,0.0375,-0.2549,-0.1622
1.2800,0.1048,0.1301,0.0910,0.0896,-9.7900,0.5642,0.0347,-0.2847,-0.1585
1.2900,0.0555,0.1380,0.2667,0.0726,-9.7903,0.5614,0.0252,-0.3019,-0.1544
1.3000,0.0182,0.1373,0.4415,0.0560,-9.7905,0.5598,0.0124,-0.2985,-0.1473
1.3100,-0.0057,0.1293,0.5625,0.0405,-9.7906,0.5590,0.0066,-0.2635,-0.1360
1.3200,0.0190,0.1190,0.6005,0.0265,-9.7907,0.5583,0.0115,-0.1946,-0.1225
1.3300,0.0630,0.1046,0.5805,0.0140,-9.7908,0.5565,0.0238,-0.0965,-0.1137
1.3400,0.1008,0.1058,0.5552,0.0025,-9.7910,0.5534,0.0419,0.0165,-0.1174
1.3500,0.1060,0.1001,0.5429,-0.0095,-9.7913,0.5482,0.0653,0.1321,-0.1375
1.3600,0.1104,0.0912,0.5287,-0.0237,-9.7917,0.5405,0.0939,0.2429,-0.1710
1.3700,0.1408,0.1357,0.5136,-0.0409,-9.7922,0.5300,0.1202,0.3410,-0.2093
1.3800,0.1553,0.2164,0.5334,-0.0608,-9.7928,0.5176,0.1342,0.4050,-0.2345
1.3900,0.1191,0.2498,0.5671,-0.0822,-9.7933,0.5048,0.1299,0.4058,-0.2384
1.4000,0.0126,0.2122,0.5377,-0.1033,-9.7937,0.4934,0.1066,0.3348,-0.2258
1.4100,-0.1282,0.1416,0.4193,-0.1230,-9.7939,0.4849,0.0730,0.2126,-0.2000
1.4200,-0.2284,0.1013,0.2150,-0.1403,-9.7939,0.4796,0.0396,0.0764,-0.1646
1.4300,-0.2752,0.1081,-0.1442,-0.1546,-9.7938,0.4772,0.0114,-0.0431,-0.1284
1.4400,-0.2799,0.0942,-0.4661,-0.1665,-9.7936,0.4772,-0.0121,-0.1287,-0.1066
1.4500,-0.2788,0.0463,-0.6014,-0.1776,-9.7933,0.4792,-0.0318,-0.1755,-0.1043
1.4600,-0.2769,0.0010,-0.6751,-0.1894,-9.7929,0.4827,-0.0441,-0.1865,-0.1194
1.4700,-0.2140,-0.0384,-0.6945,-0.2032,-9.7924,0.4869,-0.0460,-0.1638,-0.1440
1.4800,-0.1389,-0.0601,-0.6853,-0.2164,-9.7920,0.4903,-0.0421,-0.1198,-0.1648
1.4900,-0.1153,-0.0629,-0.6805,-0.2221,-9.7918,0.4916,-0.0396,-0.0956,-0.1728
1.5000,-0.0609,-0.0741,-0.6783,-0.2374,-9.7913,0.4941,-0.0244,-0.0301,-0.1918
1.5100,0.0020,-0.0383,-0.6534,-0.2574,-9.7907,0.4953,0.0013,0.0509,-0.2144
1.5200,0.0593,0.0534,-0.6104,-0.2792,-9.7902,0.4942,0.0257,0.1214,-0.2356
1.5300,0.0772,0.1286,-0.5834,-0.3026,-9.7897,0.4910,0.0481,0.1674,-0.2547
1.5400,0.0672,0.1462,-0.5314,-0.3278,-9.7891,0.4859,0.0681,0.1799,-0.2727
1.5500,0.0487,0.1043,-0.4302,-0.3546,-9.7885,0.4790,0.0823,0.1538,-0.2874
1.5600,0.0364,0.0585,-0.3092,-0.3828,-9.7878,0.4711,0.0860,0.0906,-0.2969
1.5700,0.0479,0.0571,-0.2106,-0.4120,-9.7870,0.4630,0.0825,0.0002,-0.3012
1.5800,0.1063,0.0979,-0.1519,-0.4418,-9.7861,0.4550,0.0762,-0.1037,-0.3002
1.5900,0.2045,0.1542,-0.1268,-0.4719,-9.7850,0.4476,0.0586,-0.2003,-0.2968
1.6000,0.2680,0.1759,-0.1341,-0.5020,-9.7838,0.4420,0.0321,-0.2779,-0.2912
1.6100,0.2954,0.1447,-0.1713,-0.5314,-9.7824,0.4378,0.0203,-0.3408,-0.2762
1.6200,0.3204,0.1193,-0.1945,-0.5590,-9.7811,0.4339,0.0169,-0.3871,-0.2513
1.6300,0.3381,0.0864,-0.1561,-0.5842,-9.7798,0.4306,0.0016,-0.4039,-0.2260
1.6400,0.3372,0.0134,-0.0690,-0.6072,-9.7784,0.4291,-0.0180,-0.3886,-0.2079
1.6500,0.3215,-0.0778,0.0288,-0.6287,-9.7771,0.4292,-0.0290,-0.3488,-0.1999
1.6600,0.3065,-0.1468,0.1080,-0.6499,-9.7756,0.4301,-0.0281,-0.2920,-0.2030
1.6700,0.2855,-0.1626,0.1853,-0.6714,-9.7741,0.4308,-0.0200,-0.2240,-0.2142
1.6800,0.2704,-0.1392,0.2797,-0.6938,-9.7726,0.4310,-0.0105,-0.1488,-0.2250
1.6900,0.2822,-0.1023,0.3610,-0.7167,-9.7709,0.4309,-0.0037,-0.0709,-0.2283
1.7000,0.3194,-0.0639,0.4022,-0.7389,-9.7693,0.4308,0.0006,0.0059,-0.2221
1.7100,0.3489,-0.0203,0.4017,-0.7599,-9.7677,0.4310,0.0003,0.0764,-0.2078
1.7200,0.3209,0.0073,0.3739,-0.7789,-9.7661,0.4321,-0.0061,0.1324,-0.1877
1.7300,0.2632,0.0252,0.3085,-0.7955,-9.7647,0.4344,-0.0154,0.1709,-0.1651
1.7400,0.1885,0.0608,0.2084,-0.8100,-9.7633,0.4379,-0.0234,0.1939,-0.1472
1.7500,0.0847,0.1017,0.0935,-0.8232,-9.7620,0.4420,-0.0266,0.2038,-0.1412
1.7600,-0.0181,0.1273,-0.0427,-0.8364,-9.7607,0.4459,-0.0146,0.1915,-0.1483
1.7700,-0.1265,0.1247,-0.1809,-0.8511,-9.7594,0.4476,0.0150,0.1546,-0.1694
1.7800,-0.2180,0.0880,-0.2934,-0.8688,-9.7579,0.4456,0.0482,0.1166,-0.2041
1.7900,-0.2174,0.0458,-0.3777,-0.8903,-9.7562,0.4404,0.0762,0.0949,-0.2449
1.8000,-0.1379,-0.0325,-0.4629,-0.9157,-9.7542,0.4326,0.0998,0.0902,-0.2785
1.8100,-0.0465,-0.1240,-0.5136,-0.9438,-9.7520,0.4227,0.1210,0.1019,-0.3019
1.8200,0.0419,-0.1340,-0.4877,-0.9737,-9.7495,0.4111,0.1386,0.1321,-0.3162
1.8300,0.1108,-0.0711,-0.3956,-1.0045,-9.7469,0.3986,0.1477,0.1832,-0.3246
1.8400,0.1296,-0.0553,-0.2311,-1.0358,-9.7441,0.3864,0.1486,0.2425,-0.3298
1.8500,0.1195,-0.0984,-0.0151,-1.0671,-9.7412,0.3747,0.1465,0.2963,-0.3293
1.8600,0.1074,-0.0949,0.2303,-1.0979,-9.7382,0.3642,0.1380,0.3459,-0.3234
1.8700,0.0984,-0.0415,0.4478,-1.1276,-9.7351,0.3558,0.1161,0.3925,-0.3084
1.8800,0.0745,0.0375,0.5845,-1.1551,-9.7321,0.3509,0.0796,0.4328,-0.2795
1.8900,-0.0196,0.1258,0.6385,-1.1788,-9.7292,0.3506,0.0330,0.4498,-0.2379
1.9000,-0.1122,0.1796,0.6198,-1.1981,-9.7267,0.3553,-0.0201,0.4399,-0.1894
1.9100,-0.1236,0.1892,0.5376,-1.2128,-9.7245,0.3652,-0.0745,0.4215,-0.1416
1.9200,-0.1016,0.2021,0.3842,-1.2230,-9.7227,0.3801,-0.1251,0.4084,-0.0985
1.9300,-0.0853,0.2151,0.2772,-1.2291,-9.7211,0.3996,-0.1689,0.4081,-0.0603
1.9400,-0.0666,0.2235,-0.0682,-1.2317,-9.7198,0.4229,-0.1985,0.4174,-0.0282
1.9500,-0.0617,0.1852,-0.5687,-1.2312,-9.7187,0.4481,-0.2059,0.4220,-0.0026
1.9600,-0.0896,0.1080,-0.8761,-1.2285,-9.7179,0.4726,-0.1857,0.4124,0.0152
1.9700,-0.1414,0.0573,-1.1345,-1.2246,-9.7173,0.4939,-0.1479,0.3860,0.0223
1.9800,-0.2240,0.0382,-1.3667,-1.2207,-9.7170,0.5108,-0.1056,0.3430,0.0169
1.9900,-0.2755,0.0222,-1.5641,-1.2183,-9.7166,0.5231,-0.0674,0.2933,-0.0020
2.0000,-0.2788,0.0042,-1.6498,-1.2186,-9.7161,0.5315,-0.0383,0.2543,-0.0353
2.0100,-0.2723,0.0025,-1.7267,-1.2232,-9.7152,0.5371,-0.0125,0.2393,-0.0876
2.0200,-0.2734,0.0126,-1.8715,-1.2338,-9.7137,0.5401,0.0133,0.2533,-0.1569
2.0300,-0.2479,0.0049,-1.9588,-1.2512,-9.7114,0.5411,0.0346,0.2853,-0.2294
2.0400,-0.1964,-0.0362,-1.9329,-1.2752,-9.7083,0.5407,0.0516,0.3195,-0.2937
2.0500,-0.1635,-0.0508,-1.8268,-1.3046,-9.7045,0.5392,0.0681,0.3413,-0.3402
2.0600,-0.1384,0.0427,-1.6477,-1.3371,-9.7003,0.5362,0.0874,0.3363,-0.3606
2.0700,-0.0844,0.1832,-1.3914,-1.3710,-9.6958,0.5309,0.1125,0.3166,-0.3717
2.0800,-0.0093,0.2708,-1.1460,-1.4067,-9.6911,0.5229,0.1374,0.2953,-0.3952
2.0900,0.0849,0.3244,-0.8669,-1.4450,-9.6860,0.5132,0.1418,0.2828,-0.4221
2.1000,0.3481,0.3146,-0.4799,-1.4858,-9.6803,0.5047,0.1127,0.2690,-0.4442
2.1100,0.5712,0.2108,-0.1032,-1.5292,-9.6738,0.4994,0.0677,0.1859,-0.4731
2.1200,0.4518,0.0646,0.0753,-1.5766,-9.6663,0.4963,0.0329,0.0296,-0.5145
2.1300,0.3457,-0.0229,0.0611,-1.6287,-9.6578,0.4936,0.0049,-0.1337,-0.5503
2.1400,0.5109,0.0249,0.0847,-1.6841,-9.6484,0.4915,-0.0278,-0.2465,-0.5670
2.1500,0.8199,0.1659,0.1131,-1.7404,-9.6384,0.4917,-0.0704,-0.2802,-0.5633
2.1600,1.1696,0.3293,0.0096,-1.7953,-9.6281,0.4961,-0.1160,-0.2430,-0.5432
2.1700,1.4243,0.4065,-0.1502,-1.8478,-9.6177,0.5053,-0.1480,-0.1523,-0.5208
2.1800,1.5236,0.1984,-0.4601,-1.8981,-9.6072,0.5184,-0.1551,-0.0307,-0.5087
2.1900,1.6761,0.0120,-0.6921,-1.9462,-9.5967,0.5337,-0.1486,0.0934,-0.4887
2.2000,1.9638,0.0780,-0.6773,-1.9900,-9.5868,0.5509,-0.1526,0.1870,-0.4334
2.2100,2.1108,0.1762,-0.7026,-2.0269,-9.5779,0.5706,-0.1649,0.2448,-0.3577
2.2200,1.9843,0.2135,-0.9255,-2.0566,-9.5703,0.5919,-0.1614,0.2820,-0.2952
2.2300,1.7031,0.1382,-1.4172,-2.0816,-9.5636,0.6118,-0.1130,0.3141,-0.2666
2.2400,1.3661,0.1317,-2.0273,-2.1051,-9.5575,0.6262,-0.0385,0.3363,-0.2688
2.2500,0.9297,0.2253,-2.6580,-2.1303,-9.5515,0.6338,0.0304,0.3426,-0.3055
2.2600,0.3659,0.2072,-3.4204,-2.1618,-9.5443,0.6347,0.1100,0.3588,-0.4079
2.2700,-0.1721,0.1582,-4.0320,-2.2064,-9.5345,0.6279,0.2044,0.3921,-0.5787
2.2800,-0.2225,0.0955,-4.0180,-2.2686,-9.5208,0.6135,0.2775,0.4230,-0.7649
2.2900,0.5935,-0.0508,-3.4714,-2.3440,-9.5036,0.5964,0.2829,0.4688,-0.8495
2.3000,1.4792,-0.2414,-2.9343,-2.4201,-9.4853,0.5837,0.2335,0.5251,-0.7937
2.3100,1.7717,-0.4988,-2.5790,-2.4883,-9.4681,0.5767,0.2026,0.5906,-0.7066
2.3200,1.6674,-0.7742,-2.0087,-2.5491,-9.4521,0.5733,0.1879,0.6175,-0.6494
2.3300,1.4675,-0.8742,-1.1612,-2.6061,-9.4366,0.5730,0.1370,0.5627,-0.6291
2.3400,1.3770,-0.7371,-0.2476,-2.6642,-9.4200,0.5782,0.0395,0.4774,-0.6689
2.3500,1.4741,-0.6853,0.3868,-2.7284,-9.4008,0.5916,-0.0701,0.4008,-0.7457
2.3600,1.5833,-0.8276,0.6832,-2.7998,-9.3784,0.6126,-0.1587,0.3311,-0.8112
2.3700,1.5989,-0.9252,0.7964,-2.8765,-9.3534,0.6395,-0.2463,0.2268,-0.8483
2.3800,1.5158,-1.0910,1.0173,-2.9547,-9.3267,0.6717,-0.3529,0.0547,-0.8289
2.3900,1.5016,-1.4291,1.3194,-3.0293,-9.3000,0.7090,-0.4789,-0.1445,-0.7543
2.4000,1.6638,-1.7301,1.2623,-3.0989,-9.2735,0.7537,-0.6177,-0.2550,-0.7122
2.4100,1.5153,-1.8204,0.8665,-3.1687,-9.2452,0.8086,-0.7411,-0.2795,-0.7490
2.4200,1.1967,-1.7250,0.1875,-3.2436,-9.2133,0.8727,-0.8284,-0.2680,-0.8147
2.4300,1.3775,-1.6190,-0.5631,-3.3230,-9.1778,0.9446,-0.8858,-0.1658,-0.8554
2.4400,2.2462,-1.6837,-1.1850,-3.4025,-9.1398,1.0267,-0.9319,0.0745,-0.8568
2.4500,3.2583,-2.1006,-1.8399,-3.4773,-9.1003,1.1219,-0.9583,0.4039,-0.8294
2.4600,3.9349,-2.8078,-2.7681,-3.5445,-9.0605,1.2286,-0.9341,0.7144,-0.7903
2.4700,4.2885,-3.4262,-3.7195,-3.6034,-9.0214,1.3400,-0.8729,0.8904,-0.7380
2.4800,4.5887,-3.6544,-4.1680,-3.6541,-8.9841,1.4491,-0.8192,0.8848,-0.6599
2.4900,5.0208,-3.6050,-4.0781,-3.6958,-8.9499,1.5515,-0.7742,0.7695,-0.5371
2.5000,5.7499,-3.5064,-3.8752,-3.7241,-8.9214,1.6456,-0.7094,0.7008,-0.3452
2.5100,6.8260,-3.3051,-3.7733,-3.7316,-8.9019,1.7320,-0.6227,0.7285,-0.0896
2.5200,7.7806,-2.9025,-3.8037,-3.7133,-8.8936,1.8119,-0.5435,0.7613,0.2004
2.5300,8.4192,-2.1870,-4.0246,-3.6676,-8.8971,1.8866,-0.4900,0.7886,0.4984
2.5400,8.8731,-1.1731,-4.4433,-3.5937,-8.9117,1.9581,-0.4397,0.8481,0.7956
2.5500,8.9225,-0.1960,-5.0773,-3.4908,-8.9375,2.0251,-0.3410,0.9325,1.0966
2.5600,7.9061,0.2652,-6.2333,-3.3580,-8.9752,2.0816,-0.1517,1.0362,1.3945
2.5700,6.1360,0.0105,-7.4732,-3.1961,-9.0256,2.1178,0.1412,1.1062,1.6707
2.5800,4.2546,-0.4123,-7.9942,-3.0093,-9.0883,2.1229,0.4877,1.0413,1.9129
2.5900,2.3386,-0.4131,-7.6739,-2.8045,-9.1609,2.0906,0.7892,0.7667,2.1190
2.6000,0.7287,-0.0464,-6.6836,-2.5884,-9.2390,2.0238,0.9682,0.2939,2.2983
2.6100,-0.4050,0.1387,-5.9203,-2.3664,-9.3184,1.9292,1.0508,-0.3575,2.4600
2.6200,-0.4622,0.0729,-5.3934,-2.1405,-9.3960,1.8123,1.0979,-1.0304,2.6130
2.6300,0.5553,-0.3937,-4.5654,-1.9069,-9.4702,1.6820,1.1061,-1.4417,2.7745
2.6400,1.4113,-1.9577,-3.4688,-1.6577,-9.5392,1.5508,1.0513,-1.6295,2.9624
2.6500,1.5344,-4.0731,-1.7467,-1.3880,-9.6007,1.4308,0.8834,-1.7723,3.1672
2.6600,1.2950,-5.6759,0.4781,-1.0978,-9.6517,1.3364,0.5845,-1.8243,3.3327
2.6700,1.1811,-6.6220,2.5986,-0.7921,-9.6889,1.2819,0.1803,-1.6146,3.4084
2.6800,1.6356,-7.2922,4.2161,-0.4765,-9.7102,1.2766,-0.2598,-0.9696,3.3942
2.6900,2.5326,-7.9157,5.0028,-0.1530,-9.7151,1.3179,-0.6250,0.1018,3.3360
2.7000,3.2302,-8.5497,5.0856,0.1795,-9.7048,1.3876,-0.8071,1.4528,3.2370
2.7100,2.9712,-9.4147,4.9321,0.5184,-9.6829,1.4535,-0.7265,2.8216,3.0223
2.7200,1.6561,-10.0639,4.8687,0.8465,-9.6551,1.4860,-0.4486,3.7828,2.6465
2.7300,-0.0029,-9.8873,4.8319,1.1401,-9.6274,1.4711,-0.0669,4.1025,2.1662
2.7400,-1.3904,-8.9536,4.7832,1.3852,-9.6050,1.4074,0.3245,3.8623,1.7042
2.7500,-2.0352,-8.3251,4.8483,1.5791,-9.5895,1.3068,0.6459,3.2685,1.3111
2.7600,-2.5642,-8.1515,4.5757,1.7271,-9.5802,1.1828,0.9231,2.5926,1.0077
2.7700,-2.7281,-8.3606,3.0495,1.8403,-9.5758,1.0385,1.2964,1.7394,0.8334
2.7800,-2.8850,-9.8081,-0.6601,1.9283,-9.5764,0.8561,2.0304,0.9102,0.7255
2.7900,-2.2886,-12.3542,-6.3219,2.0022,-9.5800,0.6012,2.8925,0.8152,0.6967
2.8000,0.4527,-12.7734,-8.0921,2.0761,-9.5785,0.2912,3.0035,1.1034,0.7617
2.8100,1.2292,-8.2876,-1.9889,2.1576,-9.5655,0.0122,2.3006,0.7452,0.9099
2.8200,-1.0333,-3.0897,3.1486,2.2575,-9.5413,-0.1749,1.5657,-0.5031,1.1626
2.8300,-2.8868,-1.0228,2.0367,2.3835,-9.5083,-0.2744,1.1505,-1.8868,1.3852
2.8400,-3.0200,-0.4928,-0.3906,2.5299,-9.4693,-0.3103,0.8631,-2.9509,1.5208
2.8500,-2.7934,0.5974,-0.8966,2.6888,-9.4261,-0.2846,0.4396,-3.7395,1.6042
2.8600,-3.0260,2.3499,-0.1724,2.8509,-9.3806,-0.1923,-0.0121,-4.2472,1.6023
2.8700,-3.1829,3.5740,-0.4125,3.0022,-9.3350,-0.0472,-0.3164,-4.4416,1.4808
2.8800,-3.1708,4.1532,-1.1698,3.1271,-9.2933,0.1232,-0.4621,-4.1411,1.1951
2.8900,-2.9327,4.7079,-0.9083,3.2126,-9.2605,0.2915,-0.5243,-3.5027,0.7957
2.9000,-3.0592,5.6036,0.2480,3.2573,-9.2388,0.4463,-0.5475,-2.9638,0.4263
2.9100,-3.8491,6.4535,1.2962,3.2691,-9.2268,0.5874,-0.4958,-2.6819,0.1555
2.9200,-4.5064,6.9258,1.6707,3.2583,-9.2218,0.7135,-0.3981,-2.4479,-0.0196
2.9300,-4.2942,7.5608,1.6325,3.2336,-9.2218,0.8188,-0.3015,-2.0019,-0.1425
2.9400,-3.1217,9.1270,1.3732,3.2014,-9.2256,0.8991,-0.2451,-1.4244,-0.2345
2.9500,-1.9847,10.6118,1.0719,3.1662,-9.2317,0.9589,-0.2498,-0.8904,-0.2976
2.9600,-1.3080,11.1544,0.8425,3.1293,-9.2398,1.0017,-0.2439,-0.3417,-0.3762
2.9700,-0.5877,11.4417,0.8459,3.0903,-9.2507,1.0218,-0.1859,0.2938,-0.4867
2.9800,-0.2879,11.4659,0.8857,3.0477,-9.2655,1.0156,-0.0926,0.8821,-0.5855
2.9900,-0.4714,11.2473,0.6518,3.0014,-9.2839,0.9853,0.0434,1.2281,-0.6350
3.0000,-0.4405,10.7676,0.3527,2.9566,-9.3034,0.9351,0.2150,1.2904,-0.5730
3.0100,0.0310,10.0374,-0.0736,2.9237,-9.3202,0.8684,0.4348,1.1768,-0.3565
3.0200,0.5048,9.0801,-0.7680,2.9124,-9.3315,0.7799,0.7431,1.1455,-0.0950
3.0300,0.4804,8.5453,-1.0199,2.9196,-9.3386,0.6569,1.0826,1.4121,0.0253
3.0400,-1.0339,9.3014,-0.3677,2.9263,-9.3462,0.4976,1.2660,1.8205,-0.1156
3.0500,-4.0171,10.6808,0.1312,2.9053,-9.3604,0.3222,1.2142,2.0627,-0.5243
3.0600,-6.2591,11.5239,0.1034,2.8364,-9.3858,0.1550,1.0405,2.0993,-1.0345
3.0700,-5.0110,11.5834,0.3234,2.7234,-9.4204,0.0067,0.8682,2.0784,-1.3517
3.0800,-0.3904,10.9739,0.2353,2.5917,-9.4567,-0.1269,0.8023,2.0128,-1.3748
3.0900,-0.9170,9.4217,-0.8343,2.4516,-9.4913,-0.2557,0.9075,1.7327,-1.5456
3.1000,-3.0897,3.8493,-1.2741,2.2750,-9.5302,-0.3910,1.1497,1.5517,-2.0101
3.1100,-7.9432,-5.9925,3.0937,2.0325,-9.5773,-0.5382,1.2802,0.9430,-2.9222
3.1200,-11.9124,-15.6534,15.8451,1.6852,-9.6373,-0.6386,0.2874,1.1008,-4.0883
3.1300,-6.3098,-23.6345,22.8675,1.2542,-9.7046,-0.6038,-1.5631,3.4260,-4.3151
3.1400,-2.5540,-27.3037,21.1222,0.8532,-9.7572,-0.4453,-2.3990,5.2023,-3.3505
3.1500,-2.7782,-25.1827,15.7071,0.5726,-9.7854,-0.2661,-1.8923,5.0946,-1.9644
3.1600,-2.2697,-17.5611,8.4981,0.4299,-9.7960,-0.1432,-1.1153,4.0447,-0.8001
3.1700,-2.1717,-7.0002,6.1673,0.3786,-9.7991,-0.0607,-0.9300,2.4374,-0.2393
3.1800,-3.7275,0.6172,6.4984,0.3596,-9.7997,0.0445,-1.3768,0.8948,-0.1547
3.1900,-3.4737,3.8603,7.6968,0.3454,-9.7978,0.2099,-2.0085,-0.0758,-0.1286
3.2000,-1.5083,4.4246,8.1187,0.3363,-9.7904,0.4349,-2.5088,-0.5233,-0.0194
3.2100,-0.0682,3.8392,8.0222,0.3331,-9.7784,0.6516,-2.7282,-0.7968,0.0070
3.2200,0.4041,3.3555,7.9336,0.3320,-9.7720,0.7430,-2.7547,-0.9696,-0.0437
3.2300,0.4522,1.6940,7.8506,0.3042,-9.7528,0.9706,-2.7246,-1.3390,-0.4250
3.2400,0.0317,-1.3813,8.1168,0.2080,-9.7258,1.2311,-2.4856,-1.4779,-1.2501
3.2500,-1.1617,-5.6499,7.1883,0.0165,-9.6974,1.4516,-1.9413,-1.8021,-2.2290
3.2600,-4.9798,-10.6533,3.5913,-0.2765,-9.6691,1.6032,-1.2354,-2.2745,-3.1157
3.2700,-7.1999,-15.2746,0.1771,-0.6456,-9.6361,1.6906,-0.8308,-1.9877,-3.6985
3.2800,-5.8110,-18.6486,-2.2703,-1.0418,-9.5886,1.7614,-0.9140,-0.9039,-3.9408
3.2900,-4.3702,-20.4376,-6.2970,-1.4216,-9.5192,1.8694,-1.3894,0.6137,-3.8842
3.3000,-2.9485,-20.7054,-9.6755,-1.7507,-9.4255,2.0562,-2.0351,2.0792,-3.5898
3.3100,-1.6465,-19.9448,-13.1488,-2.0206,-9.3126,2.3078,-2.1104,3.4256,-3.4720
3.3200,3.9902,-16.8412,-17.8975,-2.2372,-9.1887,2.5883,-1.9010,5.4306,-3.5378
3.3300,11.1719,-12.2085,-18.7827,-2.3718,-9.0525,2.9248,-2.0836,7.8332,-3.4587
3.3400,13.5183,-8.9306,-17.4647,-2.4190,-8.9000,3.3253,-2.3102,8.4155,-3.3949
3.3500,16.9646,-6.6825,-16.9754,-2.4336,-8.7434,3.7101,-2.1927,6.1918,-2.7435
3.3600,19.1355,-4.3719,-15.6227,-2.4407,-8.6189,3.9893,-1.6697,2.6156,-1.1933
3.3700,16.6189,-1.7580,-13.8518,-2.4394,-8.5565,4.1238,-0.9027,-0.6387,0.3303
3.3800,12.8965,1.0439,-11.2199,-2.4364,-8.5552,4.1282,-0.1617,-2.4170,1.2343
3.3900,8.8215,3.4660,-8.0425,-2.4193,-8.5927,4.0597,0.2978,-2.3694,1.4724
3.4000,6.7266,4.5407,-6.6847,-2.3714,-8.6447,3.9766,0.5445,-1.3636,1.3854
3.4100,3.5759,5.1790,-5.8912,-2.2900,-8.7012,3.9001,0.7121,-0.4977,1.3156
3.4200,0.5203,6.1624,-5.0533,-2.1827,-8.7619,3.8248,0.8466,-0.1341,1.3983
3.4300,1.0925,7.0225,-4.9223,-2.0538,-8.8286,3.7416,0.9681,-0.1176,1.6131
3.4400,1.9392,8.0618,-4.6117,-1.9034,-8.9023,3.6450,1.0690,-0.2776,1.8897
3.4500,2.3619,8.9886,-4.0100,-1.7333,-8.9794,3.5388,1.1011,-0.4643,2.1559
3.4600,2.3508,9.4008,-3.6175,-1.5465,-9.0553,3.4303,1.0899,-0.6257,2.3697
3.4700,1.8695,9.7614,-3.3236,-1.3460,-9.1277,3.3211,1.0729,-0.7696,2.5227
3.4800,1.4782,10.1112,-2.8963,-1.1350,-9.1947,3.2133,1.0376,-0.8739,2.6369
3.4900,1.6698,10.2019,-2.4847,-0.9131,-9.2547,3.1099,0.9857,-0.9271,2.7656
3.5000,1.7503,10.3594,-1.9889,-0.6762,-9.3067,3.0135,0.9130,-0.9626,2.9344
3.5100,1.0748,10.4137,-1.6553,-0.4220,-9.3495,2.9258,0.8425,-1.0674,3.1221
3.5200,-0.1807,9.6745,-1.8972,-0.1545,-9.3834,2.8423,0.8822,-1.3221,3.2741
3.5300,-1.0119,8.9874,-2.1498,0.1145,-9.4114,2.7499,1.0941,-1.5753,3.2454
3.5400,-1.2549,7.6441,-2.4401,0.3631,-9.4377,2.6364,1.3826,-1.6631,2.8982
3.5500,-1.2066,5.5876,-3.0779,0.5858,-9.4648,2.4953,1.7497,-1.4306,2.6525
3.5600,0.1434,3.7976,-4.0759,0.8105,-9.4945,2.3115,2.2907,-0.8303,2.6541
3.5700,1.5555,1.3962,-5.5127,1.0512,-9.5273,2.0643,2.9566,-0.1829,2.6155
3.5800,1.5712,-3.1791,-6.5298,1.3091,-9.5577,1.7486,3.5817,0.1540,2.7750
3.5900,0.5563,-11.1569,-5.7142,1.5791,-9.5763,1.3843,3.6411,1.4759,2.5528
3.6000,-2.0165,-21.8222,-1.4194,1.8176,-9.5793,1.0331,2.5603,3.6046,1.7808
3.6100,-3.2787,-33.3240,6.6367,1.9969,-9.5689,0.7767,1.0270,5.1108,1.1777
3.6200,-2.1167,-39.7569,11.2359,2.1312,-9.5536,0.5867,0.9261,5.1230,0.9203
3.6300,0.1418,-37.2329,3.8542,2.2454,-9.5388,0.3323,2.4498,3.7963,1.0281
3.6400,4.1928,-29.2570,-5.8544,2.3538,-9.5171,-0.0506,3.8608,2.8511,1.0963
3.6500,3.9994,-21.0568,-5.2985,2.4490,-9.4806,-0.4908,3.9981,1.7903,1.0162
3.6600,-1.7596,-13.7206,1.3617,2.5463,-9.4304,-0.8540,3.0927,-0.0654,1.1540
3.6700,-5.0927,-7.7501,5.1787,2.6796,-9.3715,-1.0732,2.1044,-1.7215,1.4282
3.6800,-3.9010,-4.3143,4.0191,2.8431,-9.3106,-1.1795,1.4846,-2.5133,1.4871
3.6900,-2.3464,-2.1236,2.1502,3.0095,-9.2533,-1.2174,1.0950,-3.0446,1.3386
3.7000,-3.1019,-0.4578,1.7028,3.1627,-9.2047,-1.1978,0.7062,-3.6184,1.0772
3.7100,-4.0275,1.7428,2.5726,3.2932,-9.1689,-1.1182,0.2691,-4.0698,0.7795
3.7200,-4.1453,3.7662,3.5253,3.3998,-9.1455,-0.9813,-0.0985,-4.4555,0.5627
3.7300,-3.9880,4.6676,3.6981,3.4855,-9.1305,-0.8028,-0.3238,-4.6457,0.4227
3.7400,-3.6045,5.5701,3.7158,3.5522,-9.1201,-0.6048,-0.4129,-4.5766,0.3247
3.7500,-3.3113,6.8192,3.9215,3.6009,-9.1120,-0.4056,-0.4612,-4.2407,0.2383
3.7600,-3.1645,7.5970,4.1445,3.6304,-9.1069,-0.2159,-0.5867,-3.5348,0.1201
3.7700,-3.4066,8.4428,4.5204,3.6376,-9.1066,-0.0413,-0.7718,-2.6264,-0.0602
3.7800,-3.4940,9.5651,4.9979,3.6242,-9.1113,0.1195,-0.9926,-1.7969,-0.2119
3.7900,-3.6860,9.7792,4.0872,3.5988,-9.1180,0.2726,-1.1720,-1.1778,-0.2834
3.8000,-3.9368,9.7622,2.6664,3.5647,-9.1261,0.4156,-1.2195,-0.6061,-0.4158
3.8100,-3.6950,9.6468,2.0748,3.5135,-9.1399,0.5331,-1.1295,0.1081,-0.7036
3.8200,-3.1062,9.6101,2.0446,3.4358,-9.1645,0.6121,-0.9611,0.8323,-1.0629
3.8300,-2.3373,9.7497,1.9867,3.3307,-9.2004,0.6529,-0.7741,1.4306,-1.3808
3.8400,-1.8474,9.8940,1.6981,3.2015,-9.2457,0.6579,-0.5185,1.9113,-1.6420
3.8500,-1.5860,10.2660,1.7260,3.0542,-9.2974,0.6272,-0.2189,2.1806,-1.7894
3.8600,-1.2639,10.8237,2.3436,2.8999,-9.3502,0.5711,0.0116,2.1326,-1.7638
3.8700,-0.9705,11.2312,2.7271,2.7495,-9.3994,0.5051,0.1496,1.9258,-1.6602
3.8800,-1.1343,11.1870,1.9973,2.6049,-9.4439,0.4372,0.2629,1.6730,-1.5857
3.8900,-1.7029,10.5957,0.4478,2.4604,-9.4856,0.3649,0.4280,1.4366,-1.5929
3.9000,-1.9675,9.7971,-0.5642,2.3106,-9.5259,0.2832,0.5897,1.2800,-1.6304
3.9100,-1.8306,9.4689,-0.6767,2.1589,-9.5636,0.1962,0.6241,1.1950,-1.5740
3.9200,-1.4514,9.3468,-0.5319,2.0174,-9.5959,0.1165,0.5121,1.0852,-1.3840
3.9300,-1.3317,9.0528,-0.3424,1.8962,-9.6212,0.0558,0.3373,0.9097,-1.1441
3.9400,-1.3707,8.4921,-0.4118,1.7932,-9.6411,0.0080,0.3300,1.0036,-1.0205
3.9500,-0.6734,6.6417,-2.0445,1.6832,-9.6606,-0.0641,0.8018,1.4696,-1.2905
3.9600,-1.2804,2.0398,-6.1330,1.5329,-9.6829,-0.2107,1.6480,1.7461,-1.7640
3.9700,-4.5000,-4.1592,-7.3383,1.3367,-9.7053,-0.4115,1.8051,1.3341,-2.1819
3.9800,-8.1826,-6.5593,1.0115,1.0930,-9.7295,-0.5413,0.2944,1.6263,-2.6649
3.9900,-8.9809,-11.0664,15.5048,0.8086,-9.7605,-0.4646,-2.2750,3.2309,-2.7978
4.0000,-7.3637,-21.4598,23.4132,0.5505,-9.7872,-0.1784,-3.8110,4.0757,-2.1228
4.0100,-4.9728,-24.0837,17.2696,0.3810,-9.7961,0.1724,-3.4709,2.6753,-1.3364
4.0200,-4.1020,-16.4589,7.9682,0.2700,-9.7915,0.4553,-2.3588,-0.0563,-1.0329
4.0300,-4.9675,-8.0850,4.7785,0.1680,-9.7835,0.6455,-1.5601,-2.1820,-0.8642
4.0400,-3.0529,-2.2403,5.5775,0.0790,-9.7733,0.7994,-1.6127,-2.8175,-0.5300
4.0500,1.4268,1.7719,8.0413,0.0272,-9.7561,0.9876,-2.2226,-2.1221,-0.0697
4.0600,4.3593,3.4069,8.8663,0.0255,-9.7278,1.2333,-2.7422,-1.1697,0.3843
4.0700,2.9765,2.3126,7.0258,0.0682,-9.6882,1.5111,-2.8894,-0.9378,0.7196
4.0800,-0.6550,-0.0385,4.7159,0.1045,-9.6417,1.7829,-2.6358,-1.2998,0.3216
4.0900,-2.9137,-2.6415,3.3470,0.0566,-9.5964,2.0157,-2.1344,-1.9121,-0.7082
4.1000,-7.2733,-8.5248,1.2203,-0.1166,-9.5551,2.1989,-1.7226,-2.8829,-1.8532
4.1100,-11.9179,-15.2279,-2.0922,-0.4379,-9.5098,2.3447,-1.5592,-4.0316,-3.2044
4.1200,-10.3106,-19.5901,-5.3888,-0.9108,-9.4433,2.4670,-1.6386,-4.2046,-4.5352
4.1300,-2.7165,-22.9918,-11.6172,-1.4656,-9.3389,2.5921,-1.7392,-2.0755,-5.3791
4.1400,9.2398,-22.8441,-18.1340,-1.9698,-9.1988,2.7583,-1.6405,2.3189,-5.3730
4.1500,18.5209,-17.8568,-17.9502,-2.2807,-9.0458,3.0169,-1.6159,7.4274,-4.4925
4.1600,19.3601,-11.9949,-14.8217,-2.3360,-8.8988,3.3874,-1.8151,10.5954,-3.4250
4.1700,15.4594,-8.4957,-15.0192,-2.2456,-8.7590,3.7897,-1.9193,9.0782,-2.7861
4.1800,13.8297,-5.9029,-16.4331,-2.1933,-8.6353,4.0957,-1.5922,4.0280,-1.9235
4.1900,14.8731,-2.3381,-14.7416,-2.2420,-8.5524,4.2422,-0.9988,-0.6042,-0.7001
4.2000,14.6733,0.7312,-10.6679,-2.3417,-8.5146,4.2644,-0.5769,-2.8018,0.1920
4.2100,12.5088,2.3078,-7.7464,-2.4240,-8.5068,4.2341,-0.3311,-2.6905,0.7049
4.2200,10.9735,2.9719,-6.9724,-2.4382,-8.5188,4.2018,-0.1181,-1.4855,1.0540
4.2300,8.8294,3.2630,-6.6883,-2.3693,-8.5488,4.1798,0.0989,-0.4569,1.4812
4.2400,3.5442,3.8265,-6.2928,-2.2303,-8.5976,4.1556,0.3087,-0.1341,1.9760
4.2500,-0.1838,4.9106,-5.9985,-2.0491,-8.6608,4.1171,0.4593,-0.2790,2.3396
4.2600,-1.1547,6.4148,-5.9044,-1.8518,-8.7310,4.0618,0.5454,-0.6585,2.5361
4.2700,-2.1676,7.8096,-6.2931,-1.6634,-8.8011,3.9917,0.6320,-1.2341,2.5359
4.2800,-2.2248,8.9277,-6.5142,-1.5056,-8.8681,3.9054,0.7558,-1.8584,2.3846
4.2900,-0.7806,9.6249,-6.0203,-1.3791,-8.9332,3.8024,0.8696,-2.2366,2.2308
4.3000,0.0528,9.9272,-5.5608,-1.2690,-8.9964,3.6902,0.9452,-2.2506,2.1076
4.3100,0.6203,10.1645,-5.3368,-1.1571,-9.0572,3.5764,0.9973,-1.8371,2.0478
4.3200,2.4140,10.5694,-5.1376,-1.0158,-9.1165,3.4665,1.0555,-0.9964,2.1970
4.3300,4.6391,10.8310,-5.1543,-0.8145,-9.1762,3.3595,1.1656,0.0053,2.5702
4.3400,5.5891,10.5991,-5.2508,-0.5455,-9.2376,3.2422,1.4385,0.7775,2.9067
4.3500,4.5565,8.6958,-5.7074,-0.2595,-9.3011,3.0928,1.8305,0.2046,2.7569
4.3600,0.2725,5.6445,-6.4265,-0.0317,-9.3660,2.9029,2.2238,-1.3777,2.4690
4.3700,-2.6296,3.6263,-6.5863,0.1560,-9.4331,2.6714,2.7271,-2.3319,2.6906
4.3800,-1.4468,1.7411,-7.0199,0.3722,-9.5023,2.3871,3.3858,-2.3643,3.1198
4.3900,-0.4637,-2.1798,-7.8534,0.6452,-9.5675,2.0387,4.0885,-1.6997,3.5712
4.4000,0.5551,-9.0738,-7.1750,0.9880,-9.6158,1.6262,4.5001,0.0638,3.8219
4.4100,-0.3683,-17.6912,-2.8975,1.3491,-9.6363,1.1903,3.8912,2.7817,3.1871
4.4200,-3.5635,-27.7427,6.6932,1.6440,-9.6293,0.8436,1.8662,4.9080,2.1481
4.4300,-3.5745,-38.1208,18.9575,1.8476,-9.6076,0.6646,-0.0325,5.9786,1.2738
4.4400,-0.8536,-42.8675,22.2527,1.9875,-9.5870,0.5483,0.4049,5.4570,0.9266
4.4500,3.5404,-38.5755,10.5189,2.0939,-9.5740,0.2977,2.8021,4.1475,0.7859
4.4600,4.7162,-30.6850,-2.0011,2.1485,-9.5636,-0.1478,4.4547,3.8712,0.2442
4.4700,3.3574,-21.3047,1.4556,2.1391,-9.5453,-0.6510,4.1705,3.1789,-0.0907
4.4800,-0.1352,-7.9807,10.1230,2.1316,-9.5147,-1.0371,2.9106,0.7508,0.3019
4.4900,-2.4777,1.3362,9.0159,2.2014,-9.4752,-1.2402,1.6160,-1.5462,0.9960
4.5000,-1.1265,3.5207,2.4051,2.3381,-9.4327,-1.3121,0.9930,-2.5113,1.2700
4.5100,-2.1890,4.7523,-1.7403,2.5005,-9.3888,-1.3272,0.8140,-3.2310,1.3467
4.5200,-2.9596,6.5565,-1.8188,2.6738,-9.3451,-1.2965,0.4664,-3.8792,1.3168
4.5300,-3.4469,8.1228,-0.5876,2.8385,-9.3088,-1.2043,-0.0802,-4.0809,1.0991
4.5400,-4.3258,8.7511,0.7103,2.9754,-9.2841,-1.0542,-0.5966,-3.9023,0.8409
4.5500,-5.4547,8.4268,0.6223,3.0775,-9.2697,-0.8728,-0.8259,-3.5312,0.5700
4.5600,-6.0370,8.4900,0.8372,3.1472,-9.2618,-0.6898,-0.8473,-3.1692,0.3748
4.5700,-6.1071,9.4763,2.3033,3.1982,-9.2560,-0.5093,-0.9499,-2.9858,0.3359
4.5800,-5.5712,10.2628,3.6748,3.2439,-9.2486,-0.3154,-1.1944,-2.8296,0.3838
4.5900,-4.9774,10.3609,4.2023,3.2852,-9.2388,-0.1086,-1.4446,-2.2288,0.3626
4.6000,-5.2770,10.4773,3.9113,3.3128,-9.2292,0.0927,-1.6223,-1.2730,0.1898
4.6100,-5.4834,10.9517,3.3031,3.3163,-9.2245,0.2717,-1.6870,-0.2621,-0.1091
4.6200,-5.3142,11.2875,2.1942,3.2942,-9.2270,0.4208,-1.6176,0.4829,-0.3836
4.6300,-4.7334,11.4101,0.5217,3.2546,-9.2351,0.5368,-1.3518,0.8651,-0.5473
4.6400,-3.0436,11.7086,-0.4493,3.2062,-9.2478,0.6068,-0.8782,1.2610,-0.6219
4.6500,-0.4938,11.8802,0.2001,3.1587,-9.2637,0.6131,-0.3393,1.8943,-0.5939
4.6600,1.6635,11.7722,1.4947,3.1227,-9.2797,0.5521,0.1339,2.5177,-0.4453
4.6700,2.4878,11.6991,2.1268,3.1052,-9.2916,0.4362,0.5489,2.7600,-0.2132
4.6800,2.6475,11.2964,1.8852,3.0958,-9.3006,0.2801,1.0307,2.4520,-0.2577
4.6900,0.1630,9.1998,-0.0329,3.0498,-9.3193,0.0967,1.4348,1.8327,-0.8828
4.7000,-4.8481,6.4205,-1.5647,2.9298,-9.3576,-0.0887,1.4725,1.2610,-1.6495
4.7100,-7.0864,5.5172,-0.4013,2.7520,-9.4085,-0.2486,1.2659,0.8503,-2.0271
4.7200,-5.6658,6.2670,1.4150,2.5537,-9.4600,-0.3788,1.0719,0.6598,-2.0820
4.7300,-2.5581,7.2669,2.0267,2.3553,-9.5060,-0.4955,1.0349,0.8431,-1.9921
4.7400,3.9395,7.0452,0.3797,2.1624,-9.5444,-0.6210,1.1484,0.9036,-1.9433
4.7500,7.4445,4.5640,-0.8190,1.9695,-9.5771,-0.7463,1.0953,0.4544,-1.9888
4.7600,-0.0073,3.3402,2.0183,1.7761,-9.6069,-0.8438,0.7759,0.3154,-1.9526
4.7700,-4.0212,3.6762,5.2641,1.5791,-9.6359,-0.9029,0.0782,1.6992,-1.9688
4.7800,-2.1796,-0.2354,10.0797,1.3524,-9.6723,-0.8771,-1.5096,3.5239,-2.2381
4.7900,-8.2335,-8.8632,18.8723,1.0983,-9.7197,-0.6687,-3.7307,4.1642,-2.2708
4.8000,-12.3525,-16.3829,23.8959,0.8812,-9.7600,-0.2640,-5.1083,3.5584,-1.7040
4.8100,-8.1326,-17.5776,19.2383,0.7462,-9.7732,0.2066,-4.7254,1.6045,-0.9853
4.8200,-5.9104,-14.0525,10.2574,0.6759,-9.7636,0.5986,-3.2845,-0.7272,-0.4462
4.8300,-5.7889,-10.0502,5.5329,0.6350,-9.7463,0.8741,-2.2260,-2.2725,-0.1404
4.8400,-3.3835,-5.2047,5.6726,0.6110,-9.7248,1.1009,-2.2005,-2.4854,0.1694
4.8500,1.5753,-0.3453,7.4559,0.6256,-9.6923,1.3493,-2.6214,-1.7437,0.6590
4.8600,2.6097,-1.3848,7.5829,0.6757,-9.6463,1.6251,-2.8020,-1.1067,0.6577
4.8700,-3.3233,-8.6203,5.2320,0.6769,-9.5974,1.8935,-2.5489,-1.0862,-0.3862
4.8800,-9.3159,-16.0311,1.9569,0.5399,-9.5561,2.1297,-2.2323,-1.6778,-1.8844
4.8900,-12.6285,-20.8815,-0.9479,0.2472,-9.5148,2.3517,-2.2883,-2.9219,-3.0847
4.9000,-12.1510,-24.3886,-4.4423,-0.1776,-9.4541,2.5855,-2.6130,-4.1027,-3.9256
4.9100,-7.6378,-26.2661,-9.5700,-0.6931,-9.3587,2.8305,-2.9318,-4.0093,-4.5400
4.9200,-1.0281,-26.0377,-16.5753,-1.2287,-9.2249,3.0779,-2.8782,-1.6799,-5.0341
4.9300,7.0986,-23.2233,-20.4546,-1.6169,-9.0909,3.2949,-2.5880,2.0630,-5.2065
4.9400,11.5247,-20.8066,-20.1340,-1.7436,-9.0331,3.3879,-2.4923,3.9218,-5.1364
4.9500,19.6236,-14.6883,-17.4361,-1.9113,-8.8871,3.6728,-2.4317,8.5005,-4.4586
4.9600,20.9488,-8.8110,-14.9269,-1.8609,-8.7136,4.0885,-2.5392,11.3879,-3.6137
4.9700,17.5665,-6.0051,-16.9108,-1.7156,-8.5463,4.4886,-2.4082,8.1152,-2.8553
4.9800,16.6360,-4.0324,-17.8879,-1.6809,-8.4123,4.7506,-1.6988,1.8427,-1.4124
4.9900,15.5570,-0.4789,-14.0753,-1.7546,-8.3422,4.8473,-0.7940,-2.2490,0.0958
5.0000,13.0664,2.5358,-9.6311,-1.8528,-8.3309,4.8303,-0.1492,-3.4370,0.9842
5.0100,9.4548,3.6468,-7.0674,-1.8986,-8.3567,4.7676,0.2194,-2.5592,1.4275
5.0200,4.1265,3.8557,-6.1836,-1.8532,-8.4022,4.7048,0.4515,-1.0061,1.6627
5.0300,-0.1749,4.0055,-6.3110,-1.7238,-8.4613,4.6473,0.6945,-0.0320,1.9149
5.0400,-1.4797,4.9767,-6.3936,-1.5430,-8.5332,4.5784,0.9333,0.0968,2.2278
5.0500,-1.4703,6.4652,-6.3183,-1.3426,-8.6141,4.4889,1.1026,-0.2969,2.4777
5.0600,-1.5265,7.2727,-6.3194,-1.1481,-8.6978,4.3802,1.2235,-0.8912,2.5657
5.0700,-1.4743,8.0143,-6.5128,-0.9728,-8.7807,4.2557,1.3156,-1.3309,2.5147
5.0800,-0.7622,9.1720,-6.5342,-0.8108,-8.8601,4.1231,1.3555,-1.4269,2.4549
5.0900,0.3923,9.8692,-5.8917,-0.6444,-8.9336,3.9916,1.3533,-1.1065,2.4468
5.1000,1.7626,10.3721,-5.3208,-0.4512,-9.0008,3.8648,1.3500,-0.3795,2.5259
5.1100,3.2312,10.7541,-5.1363,-0.2101,-9.0615,3.7406,1.3756,0.5501,2.7323
5.1200,3.9406,10.8361,-5.1042,0.0884,-9.1153,3.6114,1.4559,1.3665,3.0145
5.1300,3.0870,10.4709,-5.2338,0.4337,-9.1620,3.4642,1.6700,1.7155,3.2661
5.1400,0.7088,8.9698,-5.7669,0.7931,-9.2043,3.2833,2.0657,1.2594,3.2852
5.1500,-2.1354,6.2093,-6.6007,1.0918,-9.2497,3.0645,2.5726,-0.2736,2.6704
5.1600,-5.3759,3.4379,-7.7198,1.2698,-9.3071,2.8133,3.1240,-1.8159,1.8765
5.1700,-5.4690,1.7752,-7.9684,1.3804,-9.3755,2.5167,3.7697,-2.0762,1.7227
5.1800,-1.7959,-0.2127,-7.5305,1.5147,-9.4444,2.1520,4.4674,-1.4034,2.0353
5.1900,0.0796,-4.2699,-6.9886,1.6992,-9.5018,1.7119,4.8059,0.8205,1.9717
5.2000,-2.3143,-10.4612,-3.5333,1.8876,-9.5415,1.2240,4.3217,4.1702,1.2431
5.2100,-6.7419,-17.9134,3.0502,2.0178,-9.5641,0.7606,3.0953,6.1066,0.5004
5.2200,-7.5521,-26.6632,9.7674,2.0796,-9.5741,0.3993,1.8041,5.8221,0.0518
5.2300,-5.7148,-37.2862,14.1076,2.0867,-9.5804,0.1402,1.5750,4.0221,-0.2257
5.2400,-1.9793,-41.6329,9.9425,2.0551,-9.5864,-0.1395,2.9763,2.4699,-0.4435
5.2500,2.8453,-27.9401,4.2017,1.9925,-9.5834,-0.5471,4.3635,1.9850,-0.6945
5.2600,3.4211,-11.5213,7.8084,1.9056,-9.5649,-1.0016,4.1365,1.4282,-0.7957
5.2700,1.5873,-5.4103,10.6028,1.8289,-9.5367,-1.3617,2.9764,0.2405,-0.5811
5.2800,0.6432,-2.1147,7.3699,1.7996,-9.5087,-1.5844,1.9108,-1.3078,-0.1913
5.2900,0.2512,0.4037,3.2683,1.8405,-9.4821,-1.6940,1.2589,-3.0014,0.2845
5.3000,0.4083,3.2510,0.9993,1.9552,-9.4543,-1.7197,0.7928,-4.4689,0.7360
5.3100,0.7127,5.8230,0.5756,2.1182,-9.4285,-1.6665,0.1547,-5.0908,0.9137
5.3200,0.2367,7.0283,-0.0055,2.2797,-9.4127,-1.5372,-0.5664,-4.7950,0.7548
5.3300,-1.3180,7.8219,-0.0061,2.4044,-9.4107,-1.3468,-1.2099,-4.2091,0.4974
5.3400,-3.1793,8.4198,0.7964,2.4909,-9.4189,-1.1105,-1.6879,-3.7647,0.2927
5.3500,-4.2769,8.6085,1.7348,2.5438,-9.4322,-0.8454,-1.9820,-3.3465,0.0733
5.3600,-5.0335,8.7857,2.3261,2.5630,-9.4478,-0.5653,-2.1783,-3.0792,-0.1387
5.3700,-5.0687,8.7648,2.1230,2.5583,-9.4619,-0.2755,-2.2570,-3.0350,-0.2065
5.3800,-4.3436,8.8540,1.7992,2.5454,-9.4695,0.0127,-2.2043,-2.8209,-0.1332
5.3900,-3.8690,8.9077,1.7307,2.5354,-9.4682,0.2812,-2.0469,-2.2879,-0.0076
5.4000,-3.4699,9.1007,1.9847,2.5307,-9.4600,0.5127,-1.8224,-1.4014,0.0327
5.4100,-2.9400,9.4862,1.9240,2.5246,-9.4505,0.6924,-1.5136,-0.3232,-0.0975
5.4200,-2.2776,9.8360,1.5706,2.5073,-9.4459,0.8107,-1.0842,0.6347,-0.3213
5.4300,-1.8814,10.0558,1.4677,2.4750,-9.4498,0.8638,-0.5677,1.3774,-0.5390
5.4400,-1.3676,10.4060,1.7801,2.4314,-9.4622,0.8511,-0.0195,1.8451,-0.6576
5.4500,-0.2645,10.8995,2.6242,2.3859,-9.4796,0.7831,0.4454,1.9608,-0.6116
5.4600,0.6326,10.9775,3.9656,2.3466,-9.4972,0.6801,0.7410,1.8155,-0.5182
5.4700,0.3226,10.5888,5.1337,2.3054,-9.5151,0.5601,0.9545,1.4979,-0.5950
5.4800,-1.3405,9.5719,4.6506,2.2412,-9.5372,0.4264,1.2323,1.0479,-0.9018
5.4900,-2.9009,8.0798,2.5515,2.1379,-9.5663,0.2755,1.5147,0.6216,-1.3145
5.5000,-2.9041,7.2766,1.0344,1.9935,-9.6005,0.1136,1.6014,0.3546,-1.6968
5.5100,-1.8657,7.7905,1.0211,1.8155,-9.6363,-0.0416,1.4739,0.2344,-1.9607
5.5200,0.2750,8.4913,1.3433,1.6234,-9.6689,-0.1829,1.3354,0.4440,-1.9714
5.5300,3.5789,7.9255,0.6309,1.4304,-9.6958,-0.3178,1.3115,0.3772,-1.9684
5.5400,0.4049,5.6345,-0.3974,1.2393,-9.7172,-0.4458,1.2433,-0.0731,-1.9280
5.5500,-5.0842,3.6423,0.8534,1.0493,-9.7342,-0.5500,0.7320,0.9638,-1.9699
5.5600,-3.9026,0.5642,6.6950,0.8257,-9.7538,-0.5783,-0.6857,3.2614,-2.3651
5.5700,-6.4210,-7.8906,16.0701,0.5624,-9.7793,-0.4267,-3.0464,4.4847,-2.5067
5.5800,-12.1601,-17.9099,24.0945,0.3208,-9.7976,-0.0438,-4.9431,3.7903,-2.1278
5.5900,-10.3696,-21.6419,22.2936,0.1400,-9.7925,0.4412,-4.7637,1.7712,-1.6193
5.6000,-5.5248,-18.4712,11.5095,0.0019,-9.7709,0.8217,-2.9192,-0.3536,-1.2535
5.6100,-3.8603,-12.2491,4.0794,-0.1208,-9.7522,1.0214,-1.3092,-1.4845,-1.0467
5.6200,-1.7512,-4.6269,3.9475,-0.2237,-9.7385,1.1300,-1.1225,-1.0093,-0.7311
5.6300,3.9597,1.2509,7.6476,-0.2705,-9.7198,1.2705,-1.7975,0.4225,-0.1403
5.6400,4.2320,0.9197,8.6247,-0.2401,-9.6907,1.4790,-2.3750,1.1968,0.4849
5.6500,-2.3226,-3.7132,6.6075,-0.1651,-9.6520,1.7220,-2.5262,0.4597,0.6733
5.6600,-7.0707,-8.8924,5.8150,-0.1257,-9.6065,1.9637,-2.4712,-1.2829,0.2293
5.6700,-9.3716,-14.7636,5.1241,-0.1950,-9.5523,2.2055,-2.6729,-2.7734,-0.7964
5.6800,-10.1906,-20.9642,2.6736,-0.4147,-9.4769,2.4780,-3.2510,-3.4853,-2.2636
5.6900,-10.3468,-25.8452,-3.0715,-0.7871,-9.3628,2.7942,-3.8560,-3.8756,-3.4810
5.7000,-10.3246,-29.3145,-12.5875,-1.2700,-9.2052,3.1177,-3.8479,-3.8898,-4.2893
5.7100,-3.8572,-29.5610,-20.6887,-1.7944,-9.0178,3.3966,-3.1151,-1.6673,-5.0393
5.7200,12.0021,-22.8489,-21.0074,-2.2236,-8.8128,3.6738,-2.5970,3.6519,-5.1811
5.7300,23.9999,-13.3247,-16.6368,-2.3752,-8.5984,4.0654,-2.7612,9.5774,-4.2879
5.7400,21.6674,-7.2919,-16.4903,-2.2376,-8.3854,4.5562,-2.8824,10.6873,-3.3409
5.7500,16.4547,-4.5248,-20.2454,-2.0627,-8.1999,4.9643,-2.2502,6.0639,-2.2883
5.7600,16.0930,-3.6959,-21.9125,-2.0162,-8.0805,5.1775,-1.2136,1.0931,-0.7547
5.7700,16.3795,0.0580,-16.7973,-2.0347,-8.0409,5.2321,-0.2980,-1.3298,0.6272
5.7800,13.0049,4.1445,-9.9653,-2.0226,-8.0688,5.1934,0.3914,-1.7296,1.7199
5.7900,4.8101,4.6683,-7.5354,-1.9302,-8.1413,5.1142,0.7944,-1.1317,2.3366
5.8000,-1.9895,5.3421,-6.6878,-1.7693,-8.2333,5.0239,1.0499,-0.2930,2.3926
5.8100,-4.1838,6.5790,-6.4610,-1.5781,-8.3296,4.9278,1.2279,0.2194,2.2003
5.8200,-4.2104,7.4183,-6.2562,-1.3877,-8.4238,4.8239,1.3088,0.1934,2.0515
5.8300,-3.5208,7.9696,-6.1099,-1.2133,-8.5138,4.7118,1.3213,-0.1681,2.0214
5.8400,-1.9649,8.7761,-5.8948,-1.0541,-8.5993,4.5934,1.2866,-0.6085,2.0843
5.8500,-0.6910,9.3204,-5.6537,-0.9044,-8.6790,4.4741,1.2422,-0.9650,2.1712
5.8600,0.0608,9.7564,-5.4179,-0.7583,-8.7519,4.3578,1.2011,-1.1314,2.2272
5.8700,0.5434,10.0929,-5.1343,-0.6073,-8.8183,4.2461,1.1514,-0.9944,2.2546
5.8800,1.6147,10.4225,-4.9354,-0.4353,-8.8779,4.1415,1.0996,-0.4649,2.3391
5.8900,3.2613,10.7105,-4.9452,-0.2214,-8.9306,4.0433,1.0788,0.2974,2.5311
5.9000,3.8329,10.6128,-5.1229,0.0421,-8.9775,3.9433,1.1586,0.9733,2.7322
5.9100,2.7771,9.7811,-5.6533,0.3285,-9.0220,3.8263,1.3952,1.0650,2.5873
5.9200,0.7125,7.8635,-6.7163,0.5527,-9.0711,3.6833,1.7201,-0.2276,1.8599
5.9300,-3.5029,5.0979,-8.1306,0.6556,-9.1317,3.5131,2.1630,-1.6509,1.2112
5.9400,-4.3183,2.7370,-9.0459,0.7008,-9.2085,3.2962,2.8420,-1.9348,1.2228
5.9500,-0.6740,0.2860,-9.1660,0.7749,-9.2993,3.0103,3.6039,-1.9638,1.7485
5.9600,0.9716,-4.2410,-9.1799,0.9282,-9.3932,2.6505,4.4109,-1.9914,2.7749
5.9700,2.0946,-10.3012,-9.1310,1.1993,-9.4730,2.2156,4.9628,-0.5200,3.5623
5.9800,1.0688,-17.9366,-5.6661,1.5380,-9.5225,1.7445,4.3872,2.3170,3.0795
5.9900,-5.1097,-27.2764,4.1691,1.8297,-9.5383,1.3423,2.6974,4.0808,1.9484
6.0000,-9.5432,-35.1896,14.6388,2.0097,-9.5365,1.0840,1.1155,4.0562,0.7405
6.0100,-4.4057,-33.3508,13.7240,2.0612,-9.5428,0.9226,0.9316,2.9891,-0.3620
6.0200,4.9831,-23.3506,6.8150,2.0243,-9.5667,0.7308,2.0464,2.1943,-0.7792
6.0300,6.3728,-15.1028,5.6858,1.9548,-9.5984,0.4312,3.1715,2.2553,-0.9385
6.0400,1.1973,-9.4307,7.1750,1.8572,-9.6269,0.0632,3.4623,1.9346,-1.1924
6.0500,-1.6378,-4.1120,7.6938,1.7433,-9.6455,-0.2690,2.8329,0.4117,-1.1082
6.0600,-0.4819,0.3020,5.4911,1.6604,-9.6525,-0.4872,1.8450,-1.4391,-0.6332
6.0700,1.3805,2.7845,1.4493,1.6371,-9.6508,-0.5922,1.0687,-2.6519,-0.1164
6.0800,1.6274,4.5997,-0.8308,1.6629,-9.6448,-0.6191,0.4861,-3.1398,0.2568
6.0900,1.4120,5.5043,-1.2091,1.7172,-9.6373,-0.5855,-0.0881,-3.0911,0.4518
6.1000,-0.5870,6.1064,0.6739,1.7823,-9.6303,-0.4960,-0.6496,-3.0122,0.5444
6.1100,-3.0536,7.0622,2.9864,1.8521,-9.6232,-0.3547,-1.0927,-3.1490,0.6274
6.1200,-4.0801,7.5786,3.2783,1.9225,-9.6142,-0.1740,-1.3596,-3.2494,0.6412
6.1300,-4.8354,8.1911,3.2320,1.9808,-9.6039,0.0282,-1.4918,-3.1959,0.5084
6.1400,-4.8081,8.8612,3.3161,2.0175,-9.5933,0.2375,-1.5485,-3.0062,0.3468
6.1500,-4.0802,9.4810,3.4599,2.0411,-9.5808,0.4476,-1.5781,-2.8053,0.3625
6.1600,-3.1537,10.1251,3.7190,2.0673,-9.5633,0.6553,-1.6136,-2.4169,0.4728
6.1700,-2.5749,10.4623,3.7765,2.0999,-9.5406,0.8535,-1.6085,-1.6948,0.5111
6.1800,-2.3618,10.7534,3.2110,2.1347,-9.5156,1.0295,-1.4934,-0.8215,0.4357
6.1900,-1.7520,11.2646,2.1158,2.1659,-9.4927,1.1680,-1.2021,-0.0448,0.3014
6.2000,-1.2442,11.5665,1.4737,2.1936,-9.4751,1.2566,-0.7580,0.4985,0.2260
6.2100,-0.2116,12.1004,1.0698,2.2244,-9.4640,1.2863,-0.1826,0.9116,0.2352
6.2200,1.7221,12.7982,0.2314,2.2613,-9.4605,1.2466,0.4695,1.4111,0.2244
6.2300,2.6467,12.7804,-0.1436,2.2977,-9.4654,1.1369,0.9959,1.9308,0.1009
6.2400,1.6560,12.1004,0.3634,2.3165,-9.4783,0.9794,1.2612,2.1764,-0.1930
6.2500,-1.0113,11.1960,0.7834,2.2956,-9.4996,0.8068,1.2807,2.0763,-0.6682
6.2600,-3.4780,10.4154,0.6352,2.2191,-9.5299,0.6471,1.1303,1.7216,-1.2282
6.2700,-4.4118,9.6994,0.2600,2.0835,-9.5683,0.5162,0.9190,1.2587,-1.7635
6.2800,-3.6960,9.2125,0.1804,1.9016,-9.6111,0.4090,0.8376,1.1907,-2.0908
6.2900,0.0288,8.1432,-0.2910,1.6903,-9.6544,0.3002,1.0654,0.7513,-2.3358
6.3000,-0.1581,4.5569,-2.1954,1.4606,-9.6947,0.1738,1.4139,-0.2933,-2.3772
6.3100,-5.8908,-0.3364,-1.4842,1.2359,-9.7275,0.0322,1.5219,-0.1672,-2.2133
6.3200,-5.4938,-2.8397,3.2254,1.0138,-9.7526,-0.1049,1.0067,1.7617,-2.3262
6.3300,-4.5159,-7.0318,10.8928,0.7775,-9.7737,-0.1594,-0.5293,3.7603,-2.3649
6.3400,-9.0182,-15.2457,21.0116,0.5522,-9.7898,-0.0331,-2.5537,4.3936,-2.1207
6.3500,-9.3238,-20.5933,25.7638,0.3568,-9.7952,0.2500,-3.3306,3.5043,-1.9270
6.3600,-5.4741,-19.7908,18.3953,0.1812,-9.7897,0.5284,-2.3556,1.2331,-1.7813
6.3700,-4.5382,-14.8902,8.4493,0.0161,-9.7807,0.7058,-1.3861,-0.9801,-1.5443
6.3800,-4.2964,-7.8268,6.5050,-0.1293,-9.7694,0.8385,-1.4610,-2.1632,-1.1006
6.3900,2.9303,-0.5249,8.7719,-0.2180,-9.7514,1.0110,-2.1648,-2.0168,-0.2533
6.4000,8.2528,1.9781,8.5962,-0.2064,-9.7225,1.2569,-2.8886,-1.0555,0.8338
6.4100,4.2412,-0.6204,5.5938,-0.0991,-9.6809,1.5529,-3.1296,-0.7103,1.4934
6.4200,-1.0433,-4.6063,3.4582,0.0245,-9.6299,1.8470,-2.8989,-1.1963,1.2875
6.4300,-4.1402,-8.8894,3.1739,0.0780,-9.5732,2.1211,-2.8029,-1.7294,0.3955
6.4400,-6.3735,-14.0538,2.2063,0.0156,-9.5053,2.4066,-3.1658,-2.0740,-0.8115
6.4500,-9.8313,-20.5220,-2.0543,-0.1814,-9.4143,2.7309,-3.6738,-2.8648,-1.9770
6.4600,-13.1107,-26.2916,-9.5469,-0.5180,-9.2959,3.0685,-3.6743,-3.8223,-3.0580
6.4700,-10.2611,-28.5101,-16.7406,-0.9752,-9.1593,3.3530,-2.9291,-2.8607,-4.3746
6.4800,2.5218,-23.6743,-18.4650,-1.4590,-9.0074,3.5828,-2.2893,1.1282,-5.3881
6.4900,17.2321,-14.2788,-15.5184,-1.7905,-8.8342,3.8568,-2.3521,6.4646,-5.0898
6.5000,21.2257,-7.0999,-13.6915,-1.8510,-8.6481,4.2308,-2.6299,9.5166,-4.0232
6.5100,17.0493,-3.9849,-15.4769,-1.7681,-8.4708,4.6100,-2.3920,7.3625,-2.9503
6.5200,16.2803,-1.6046,-15.6842,-1.7267,-8.3337,4.8711,-1.6323,2.7900,-1.5862
6.5300,17.7302,1.8847,-12.3573,-1.7443,-8.2593,4.9911,-0.8027,-0.3933,-0.1109
6.5400,15.4137,4.1504,-9.2727,-1.7638,-8.2454,5.0072,-0.1352,-1.8020,1.0602
6.5500,8.8818,4.7633,-7.2793,-1.7346,-8.2752,4.9679,0.2945,-1.5823,1.7134
6.5600,1.5834,5.0311,-6.3116,-1.6384,-8.3270,4.9134,0.5394,-0.5896,1.8590
6.5700,-1.7462,5.6935,-6.2666,-1.4916,-8.3872,4.8572,0.7062,0.0838,1.8919
6.5800,-2.1400,6.2122,-6.3961,-1.3217,-8.4523,4.7929,0.8522,0.1149,1.9552
6.5900,-2.4981,6.9866,-6.6022,-1.1592,-8.5207,4.7134,0.9960,-0.2776,1.9070
6.6000,-2.9317,8.4324,-7.1475,-1.0240,-8.5910,4.6161,1.1297,-0.7170,1.7752
6.6100,-2.4242,9.4853,-7.5906,-0.9126,-8.6626,4.5044,1.2482,-0.8770,1.6472
6.6200,-1.1171,10.0670,-7.5609,-0.8091,-8.7346,4.3835,1.3396,-0.6857,1.5434
6.6300,0.3969,10.5399,-7.0738,-0.6925,-8.8055,4.2597,1.3818,-0.0726,1.5199
6.6400,2.4930,11.0197,-6.4022,-0.5367,-8.8736,4.1386,1.3806,0.8719,1.6408
6.6500,4.0048,11.2841,-5.9241,-0.3646,-8.9274,4.0401,1.3756,1.6501,1.8470
6.6600,4.2975,11.3077,-5.7990,-0.2835,-8.9479,4.0009,1.3766,1.9147,1.9518
6.6700,4.1705,11.1167,-5.6089,-0.0562,-8.9972,3.8975,1.4490,2.3177,2.2015
6.6800,2.6360,10.1258,-5.8157,0.2414,-9.0548,3.7541,1.6875,2.0352,2.3908
6.6900,0.1125,7.8903,-6.4955,0.4975,-9.1154,3.5792,2.0629,0.5516,1.9857
6.7000,-2.9083,4.5791,-7.8415,0.6245,-9.1865,3.3725,2.5149,-1.3827,1.0893
6.7100,-5.4721,2.0071,-8.8759,0.6379,-9.2721,3.1260,3.0940,-2.5198,0.7286
6.7200,-4.0264,0.4195,-8.4070,0.6431,-9.3683,2.8214,3.7746,-2.8021,1.1788
6.7300,-0.4071,-2.5519,-7.8961,0.7265,-9.4657,2.4483,4.4928,-2.6192,2.1703
6.7400,2.1845,-6.7185,-7.6474,0.9387,-9.5490,2.0070,4.9988,-1.1781,3.1511
6.7500,2.3718,-11.6515,-4.8872,1.2416,-9.6024,1.5296,4.6233,1.9571,2.9365
6.7600,-3.1837,-19.1831,2.6277,1.5154,-9.6237,1.0992,3.1735,4.4593,1.8799
6.7700,-7.6876,-28.7518,11.9386,1.6914,-9.6255,0.8028,1.3113,5.1154,0.8036
6.7800,-4.5215,-35.4055,14.8239,1.7461,-9.6282,0.6460,0.4099,4.3105,-0.3908
6.7900,2.3098,-33.0925,5.9991,1.6836,-9.6475,0.4989,1.5529,2.8639,-1.2865
6.8000,5.2479,-24.0953,-0.9591,1.5349,-9.6811,0.2045,3.5611,2.5948,-1.9798
6.8100,3.9388,-14.4487,3.9176,1.3090,-9.7122,-0.2327,4.3649,2.9705,-2.5786
6.8200,2.5201,-5.8214,9.0898,1.0480,-9.7252,-0.6631,3.6334,2.0868,-2.4130
6.8300,2.2135,0.6112,7.4354,0.8504,-9.7206,-0.9693,2.3847,0.0135,-1.4400
6.8400,2.6417,4.2382,2.6433,0.7721,-9.7088,-1.1443,1.3885,-1.7987,-0.4292
6.8500,2.4920,5.7609,-0.4700,0.7938,-9.6973,-1.2252,0.6630,-2.8968,0.2468
6.8600,2.1901,6.5674,-0.4467,0.8817,-9.6892,-1.2285,-0.0542,-3.4395,0.7211
6.8700,1.3590,7.1833,1.1660,1.0044,-9.6860,-1.1554,-0.7711,-3.3270,0.9148
6.8800,-0.5072,7.6738,2.2200,1.1236,-9.6882,-1.0186,-1.3288,-2.9774,0.7995
6.8900,-2.1940,8.1248,2.5966,1.2213,-9.6938,-0.8342,-1.7220,-2.9679,0.6423
6.9000,-2.9544,8.3040,2.7792,1.3011,-9.6997,-0.6149,-1.9706,-3.0972,0.5403
6.9100,-3.2176,8.1563,2.6456,1.3668,-9.7029,-0.3750,-2.0775,-3.1244,0.5046
6.9200,-3.1331,8.0783,2.0132,1.4297,-9.7002,-0.1291,-2.0475,-3.1313,0.6470
6.9300,-2.9365,8.5933,1.3205,1.5029,-9.6894,0.1081,-1.8826,-2.9306,0.8498
6.9400,-2.7985,9.3671,1.4408,1.5858,-9.6716,0.3214,-1.6735,-2.2780,0.9381
6.9500,-3.1375,10.2271,2.0347,1.6647,-9.6508,0.5034,-1.5025,-1.1885,0.7980
6.9600,-3.6971,10.8810,1.6100,1.7251,-9.6317,0.6482,-1.2529,-0.1282,0.5028
6.9700,-3.7298,11.2228,0.5918,1.7625,-9.6180,0.7460,-0.8319,0.4268,0.2436
6.9800,-3.6021,11.4413,0.2267,1.7792,-9.6112,0.7928,-0.3535,0.6974,0.0161
6.9900,-2.7290,11.9717,0.5815,1.7796,-9.6114,0.7902,0.0902,0.9739,-0.1256
7.0000,-0.5174,12.6296,1.2914,1.7765,-9.6158,0.7417,0.5021,1.1739,-0.0956
7.0100,1.3281,12.6708,1.9619,1.7772,-9.6220,0.6534,0.8547,1.2799,-0.0881
7.0200,1.0836,12.3521,2.5428,1.7673,-9.6310,0.5348,1.1178,1.2155,-0.3012
7.0300,-1.0801,11.6185,2.3667,1.7257,-9.6451,0.3990,1.2797,0.9142,-0.6720
7.0400,-2.9867,10.6781,1.4774,1.6436,-9.6641,0.2596,1.3136,0.5681,-1.0750
7.0500,-3.0420,9.8741,0.9725,1.5181,-9.6871,0.1279,1.2356,0.3546,-1.5357
7.0600,-0.8026,8.9700,0.8824,1.3463,-9.7131,0.0018,1.2596,0.5589,-1.9773
7.0700,5.6197,6.4552,-0.9677,1.1231,-9.7399,-0.1434,1.6499,0.2195,-2.5458
7.0800,2.5774,0.4643,-2.8659,0.8564,-9.7621,-0.3273,2.0760,-0.3075,-2.8676
7.0900,-6.9787,-2.6652,-0.4846,0.5811,-9.7735,-0.5314,1.9674,0.9404,-2.7165
7.1000,-4.4594,-3.1363,5.8354,0.3017,-9.7768,-0.6859,0.8402,3.4442,-2.6747
7.1100,-3.5059,-10.5915,16.0280,0.0181,-9.7826,-0.6686,-1.4006,5.0078,-2.4203
7.1200,-8.6921,-20.3549,25.4932,-0.2177,-9.7929,-0.4301,-3.1616,4.4086,-1.7615
7.1300,-6.6824,-22.5514,22.9637,-0.3636,-9.7980,-0.1040,-3.0254,2.4642,-0.9832
7.1400,-0.7273,-16.4292,11.7761,-0.4315,-9.7956,0.1466,-1.9594,0.2082,-0.4028
7.1500,-1.3346,-8.1990,6.4579,-0.4577,-9.7908,0.3093,-1.5620,-1.6930,-0.0692
7.1600,-3.1747,-1.6729,7.9659,-0.4539,-9.7841,0.4753,-2.1117,-2.9837,0.3669
7.1700,0.6345,1.1806,9.1738,-0.4068,-9.7713,0.7113,-2.9809,-3.4337,1.0267
7.1800,4.8457,0.1304,8.1972,-0.2960,-9.7463,1.0271,-3.6444,-2.8870,1.7785
7.1900,4.3966,-3.1278,6.0893,-0.1365,-9.7052,1.3857,-3.7111,-2.0923,1.9540
7.2000,-0.1148,-8.2293,4.0858,-0.0049,-9.6518,1.7275,-3.3181,-1.6889,1.2238
7.2100,-3.9489,-13.0878,2.7589,0.0266,-9.5914,2.0374,-3.1424,-1.6248,0.0548
7.2200,-7.2268,-17.4819,0.2723,-0.0622,-9.5193,2.3486,-3.3449,-2.0104,-1.0626
7.2300,-11.7938,-21.7883,-4.8172,-0.2761,-9.4298,2.6694,-3.4241,-3.0190,-2.0997
7.2400,-13.0774,-24.5810,-10.2615,-0.6223,-9.3231,2.9662,-3.1546,-3.7884,-3.1524
7.2500,-8.9098,-24.3822,-15.0925,-1.0769,-9.2010,3.2056,-2.5338,-2.3065,-4.4626
7.2600,2.8031,-19.0747,-15.8380,-1.5499,-9.0555,3.4200,-2.1764,1.9610,-5.5425
7.2700,17.6581,-11.5312,-13.0996,-1.8804,-8.8762,3.7140,-2.5246,7.1077,-5.3508
7.2800,22.2157,-6.6880,-12.9629,-1.9761,-8.6735,4.1201,-2.8501,9.1338,-4.4088
7.2900,19.8789,-4.7785,-15.1139,-1.9561,-8.4828,4.5111,-2.4400,6.2136,-3.0165
7.3000,19.5850,-2.3009,-14.4705,-1.9494,-8.3509,4.7565,-1.4601,1.9691,-1.1529
7.3100,18.8116,1.6194,-10.8281,-1.9506,-8.2976,4.8491,-0.5333,-0.6963,0.4959
7.3200,14.3867,3.8069,-8.2616,-1.9211,-8.3104,4.8390,0.1416,-1.7122,1.6640
7.3300,6.8794,4.3859,-6.5288,-1.8320,-8.3650,4.7785,0.5225,-1.3892,2.2511
7.3400,0.1414,4.8662,-5.4418,-1.6794,-8.4347,4.7111,0.6570,-0.4099,2.3475
7.3500,-2.4080,5.7197,-5.4367,-1.4822,-8.5045,4.6512,0.7101,0.1777,2.3652
7.3600,-2.6330,6.2826,-5.6483,-1.2688,-8.5721,4.5898,0.7715,0.0297,2.4488
7.3700,-2.9753,7.0253,-6.1131,-1.0659,-8.6388,4.5160,0.8972,-0.4047,2.4084
7.3800,-3.2288,8.2008,-7.0775,-0.8892,-8.7056,4.4251,1.0583,-0.7482,2.2285
7.3900,-2.8633,9.0303,-7.4568,-0.7379,-8.7733,4.3181,1.2038,-0.8467,2.0174
7.4000,-1.7101,9.7927,-7.2856,-0.5969,-8.8411,4.2000,1.3271,-0.4605,1.8322
7.4100,0.5476,10.6365,-6.9567,-0.4380,-8.9073,4.0776,1.3894,0.5073,1.7654
7.4200,3.4245,11.2960,-6.3040,-0.2277,-8.9700,3.9544,1.4134,1.8511,1.9001
7.4300,5.4825,11.4416,-5.7419,0.0562,-9.0280,3.8251,1.4809,3.1078,2.2345
7.4400,5.4853,10.8421,-5.7696,0.4084,-9.0813,3.6729,1.6959,3.6379,2.6592
7.4500,2.9000,9.1651,-6.2206,0.7931,-9.1307,3.4817,2.0503,3.1251,2.9961
7.4600,-0.6779,7.1040,-6.3161,1.1534,-9.1770,3.2526,2.4442,1.6102,2.9439
7.4700,-3.3358,4.9907,-6.3970,1.4150,-9.2259,3.0042,2.8421,-0.7427,2.3321
7.4800,-5.5702,2.7987,-6.9419,1.5549,-9.2841,2.7454,3.3183,-2.6224,1.8069
7.4900,-4.6389,0.9515,-7.0480,1.6512,-9.3493,2.4505,3.9996,-3.0389,1.9323
7.5000,-0.6784,-1.7568,-6.9951,1.7868,-9.4119,2.0844,4.6498,-1.7749,2.1231
7.5100,-0.3103,-6.4465,-5.6970,1.9516,-9.4668,1.6351,4.6824,1.9823,1.3334
7.5200,-5.6047,-13.3451,-0.5620,2.0595,-9.5174,1.1318,4.0860,5.6887,-0.0757
7.5300,-10.6414,-21.1477,4.6948,2.0642,-9.5624,0.6458,3.2790,6.6570,-0.8501
7.5400,-6.3763,-35.2857,9.0218,2.0025,-9.5953,0.2347,2.6495,5.6919,-1.0266
7.5500,-0.0998,-41.4862,6.2046,1.8929,-9.6196,-0.1223,2.8927,3.9453,-1.3836
7.5600,2.9176,-29.2784,0.8117,1.7239,-9.6381,-0.5024,3.7129,2.5896,-1.9006
7.5700,5.4837,-15.5110,4.5930,1.5112,-9.6437,-0.9116,3.8400,1.8791,-2.1492
7.5800,5.0287,-6.7352,8.0369,1.2880,-9.6359,-1.2739,3.1249,1.0876,-2.0801
7.5900,3.7664,-2.2661,6.4088,1.1030,-9.6213,-1.5387,2.2277,-0.3979,-1.5799
7.6000,3.6637,0.8438,4.0867,1.0177,-9.6042,-1.7003,1.4169,-2.4062,-0.6585
7.6100,3.4932,4.0650,2.4848,1.0572,-9.5883,-1.7650,0.6522,-4.1717,0.2214
7.6200,2.4095,6.3744,0.7819,1.1870,-9.5777,-1.7380,-0.0777,-5.1986,0.6835
7.6300,1.0850,7.9789,-0.1363,1.3475,-9.5759,-1.6260,-0.8260,-5.3558,0.7417
7.6400,-0.7937,8.9053,0.1391,1.4935,-9.5842,-1.4376,-1.5384,-4.9271,0.6192
7.6500,-2.5247,9.1649,0.6151,1.6067,-9.5994,-1.1919,-2.0435,-4.2878,0.4463
7.6600,-3.3062,9.3379,0.9252,1.6863,-9.6163,-0.9114,-2.3787,-3.7483,0.3256
7.6700,-3.5149,9.2448,0.9953,1.7436,-9.6299,-0.6077,-2.6132,-3.4324,0.3026
7.6800,-3.3672,8.8348,0.9676,1.7896,-9.6363,-0.2884,-2.7221,-3.3487,0.3339
7.6900,-2.6339,8.5102,0.8664,1.8318,-9.6326,0.0356,-2.6970,-3.3238,0.4586
7.7000,-1.6675,8.3631,0.6651,1.8781,-9.6176,0.3486,-2.5398,-2.9690,0.6215
7.7100,-1.3240,8.1731,0.3805,1.9305,-9.5932,0.6298,-2.2421,-2.1272,0.6914
7.7200,-1.5932,8.1843,0.1370,1.9819,-9.5659,0.8522,-1.7734,-0.7404,0.5530
7.7300,-2.2333,8.1404,0.5350,2.0219,-9.5443,0.9926,-1.1761,0.8723,0.2286
7.7400,-2.6485,8.0510,0.9947,2.0415,-9.5351,1.0409,-0.4886,2.1564,-0.1552
7.7500,-2.9330,8.3713,1.5586,2.0374,-9.5402,1.0015,0.2383,2.7266,-0.4449
7.7600,-3.1043,9.1993,2.8496,2.0128,-9.5559,0.8938,0.8405,2.5599,-0.5888
7.7700,-2.9786,10.0582,4.3866,1.9707,-9.5773,0.7448,1.2948,1.8533,-0.6840
7.7800,-3.1958,10.5462,5.1977,1.9061,-9.6018,0.5768,1.6202,0.8310,-0.8698
7.7900,-3.5916,10.6937,5.2976,1.8092,-9.6292,0.4051,1.7791,-0.1699,-1.1901
7.8000,-3.1577,10.5687,5.4301,1.6745,-9.6590,0.2406,1.7893,-0.8945,-1.5555
7.8100,-1.2820,10.2946,5.3369,1.5077,-9.6890,0.0863,1.7447,-1.2356,-1.8127
7.8200,3.8863,9.7196,4.8103,1.3242,-9.7158,-0.0685,1.7241,-0.6730,-1.9348
7.8300,8.2161,8.4920,3.9928,1.1346,-9.7372,-0.2306,1.6776,-0.0782,-1.9437
7.8400,0.4988,6.6351,2.8989,0.9494,-9.7522,-0.3881,1.5419,-0.1539,-1.8429
7.8500,-5.3449,4.8397,2.5553,0.7702,-9.7613,-0.5302,1.2681,0.9335,-1.8135
7.8600,0.5677,2.5105,4.7188,0.5729,-9.7687,-0.6336,0.5133,2.8886,-1.9827
7.8700,-1.8110,-1.5079,9.6577,0.3438,-9.7798,-0.6252,-1.1194,4.3106,-2.1751
7.8800,-8.7990,-7.9000,16.5541,0.1071,-9.7952,-0.4169,-3.3291,4.8676,-2.0896
7.8900,-9.0594,-14.3487,21.5430,-0.0967,-9.8027,-0.0099,-4.7563,3.8349,-1.7742
7.9000,-7.5629,-18.3093,18.8147,-0.2425,-9.7903,0.4571,-4.4244,1.3198,-1.1910
7.9100,-7.0009,-19.1364,10.4213,-0.3249,-9.7646,0.8322,-3.2311,-1.6075,-0.4004
7.9200,-5.7747,-11.6467,5.0706,-0.3645,-9.7372,1.1006,-2.5619,-3.8984,0.1553
7.9300,1.2051,-3.4881,5.2458,-0.3854,-9.7071,1.3343,-2.6287,-4.6347,0.5628
7.9400,9.6531,-2.7249,6.9168,-0.3724,-9.6687,1.5898,-2.9667,-3.5215,0.9330
7.9500,8.1639,-6.2013,5.9954,-0.3318,-9.6167,1.8849,-3.3010,-1.8658,0.7158
7.9600,-0.2348,-11.9299,1.9119,-0.3297,-9.5474,2.2090,-3.4976,-1.0006,-0.1656
7.9700,-6.9913,-17.0336,-2.6090,-0.4164,-9.4606,2.5415,-3.5108,-1.3320,-1.0837
7.9800,-11.3831,-20.6937,-5.8879,-0.6156,-9.3575,2.8610,-3.4411,-2.5741,-2.0020
7.9900,-13.1894,-23.8654,-10.4059,-0.9435,-9.2355,3.1502,-3.1652,-3.3291,-3.1072
8.0000,-13.6220,-24.9588,-14.6205,-1.3851,-9.0960,3.3823,-2.5451,-2.3576,-4.4103
8.0100,-6.2870,-20.0411,-13.5511,-1.8745,-8.9303,3.5816,-2.2096,0.5593,-5.5461
8.0200,14.2466,-13.3429,-12.0288,-2.2696,-8.7227,3.8561,-2.5533,5.3250,-5.6479
8.0300,27.1386,-10.9800,-12.8348,-2.4066,-8.4848,4.2790,-2.9717,9.2726,-4.7432
8.0400,25.1596,-8.6402,-16.7209,-2.3449,-8.2625,4.7277,-2.5827,7.3464,-3.0262
8.0500,21.0851,-3.2687,-17.2405,-2.2917,-8.1160,5.0040,-1.5382,1.6817,-0.8510
8.0600,17.2607,1.8273,-11.6787,-2.3105,-8.0619,5.0830,-0.6534,-2.0108,0.7408
8.0700,12.9442,4.1388,-7.4969,-2.3503,-8.0706,5.0508,-0.0985,-2.8757,1.4501
8.0800,6.7131,4.2136,-4.9620,-2.3464,-8.1098,4.9894,0.1947,-1.7169,1.5464
8.0900,3.0248,4.1904,-4.1459,-2.2683,-8.1597,4.9437,0.3933,-0.1872,1.5003
8.1000,0.9099,4.6926,-5.4697,-2.1306,-8.2205,4.9038,0.6876,0.4787,1.6102
8.1100,-1.0854,5.9335,-6.8803,-1.9664,-8.2970,4.8428,1.0303,0.5147,1.7124
8.1200,-1.1051,6.7457,-6.8976,-1.8007,-8.3863,4.7524,1.2977,0.3096,1.7467
8.1300,-0.7934,7.4703,-6.7482,-1.6437,-8.4824,4.6374,1.4494,-0.0689,1.8099
8.1400,-0.1160,8.6710,-6.4536,-1.4966,-8.5800,4.5057,1.5011,-0.4790,1.9025
8.1500,0.4870,9.4956,-6.0868,-1.3534,-8.6751,4.3668,1.4932,-0.6543,1.9956
8.1600,1.7470,10.1865,-5.7850,-1.1962,-8.7650,4.2310,1.4435,-0.2922,2.1055
8.1700,4.2701,11.0121,-5.4767,-0.9939,-8.8484,4.1072,1.3826,0.7289,2.3113
8.1800,7.1107,11.6836,-5.3554,-0.7168,-8.9257,3.9948,1.3864,1.9801,2.6620
8.1900,7.8122,11.5955,-5.8143,-0.3691,-8.9991,3.8741,1.5869,2.5400,2.9836
8.2000,4.9527,9.5684,-7.1075,-0.0144,-9.0724,3.7181,1.9703,1.6278,2.8840
8.2100,0.3599,5.6666,-8.5760,0.2444,-9.1484,3.5207,2.3587,-0.6050,2.2761
8.2200,-4.1557,2.3334,-9.3220,0.3784,-9.2286,3.2929,2.7069,-2.5010,1.8794
8.2300,-4.5577,0.4011,-8.6809,0.4699,-9.3125,3.0336,3.1502,-3.4763,2.2107
8.2400,-2.5070,-2.2076,-8.2978,0.6077,-9.3972,2.7308,3.7146,-3.8472,3.0332
8.2500,-1.5104,-6.5885,-8.7673,0.8485,-9.4734,2.3758,4.2517,-2.8546,3.8824
8.2600,-1.1476,-12.3087,-7.2632,1.1904,-9.5277,1.9739,4.2863,0.2708,3.8208
8.2700,-3.9856,-19.5769,-1.4433,1.5366,-9.5541,1.5705,3.3216,3.4988,2.6709
8.2800,-7.1772,-28.3058,8.3096,1.7921,-9.5578,1.2586,1.7266,4.2428,1.5427
8.2900,-6.0453,-35.8213,16.1888,1.9506,-9.5496,1.0784,0.6819,3.3548,0.8449
8.3000,0.0564,-34.1195,13.8086,2.0346,-9.5461,0.9469,1.0044,2.6340,0.2657
8.3100,4.4028,-25.4462,6.4176,2.0535,-9.5600,0.7345,2.3317,2.7327,-0.3267
8.3200,2.8493,-17.1235,6.0502,2.0080,-9.5886,0.3962,3.3439,2.9334,-0.9446
8.3300,0.3727,-8.4044,10.6250,1.9027,-9.6184,0.0250,3.0600,2.4754,-1.3064
8.3400,-0.9775,-1.0275,10.5473,1.7826,-9.6390,-0.2589,2.0762,1.0888,-1.0818
8.3500,-1.3572,3.3355,4.5637,1.7046,-9.6477,-0.4282,1.3899,-0.6145,-0.5226
8.3600,-1.2253,5.6235,-0.3563,1.6887,-9.6459,-0.5241,1.0621,-1.9929,0.0544
8.3700,-0.6958,7.3802,-1.0841,1.7333,-9.6357,-0.5647,0.6186,-2.8428,0.5637
8.3800,-0.2293,8.5435,0.0187,1.8007,-9.6240,-0.5521,0.0845,-2.8011,0.7625
8.3900,-0.3437,8.7882,0.5068,1.8309,-9.6192,-0.5347,-0.1354,-2.5416,0.7497
8.4000,-1.8016,9.3331,1.7123,1.8973,-9.6098,-0.4676,-0.6173,-2.0768,0.6681
8.4100,-3.6119,9.6109,2.9239,1.9664,-9.6009,-0.3459,-1.0897,-1.9463,0.6081
8.4200,-4.5678,9.2401,3.0028,2.0310,-9.5918,-0.1842,-1.3781,-2.1794,0.6094
8.4300,-5.2252,8.8830,2.2318,2.0881,-9.5813,-0.0008,-1.4110,-2.4074,0.5260
8.4400,-5.3191,9.2329,1.8103,2.1290,-9.5706,0.1818,-1.2724,-2.5302,0.3698
8.4500,-4.5178,9.9830,2.2262,2.1523,-9.5608,0.3502,-1.1011,-2.4606,0.2658
8.4600,-3.5719,10.7095,2.9976,2.1690,-9.5504,0.5010,-0.9975,-2.1603,0.2998
8.4700,-3.4385,11.6543,3.0678,2.1905,-9.5374,0.6367,-0.9548,-1.6661,0.3683
8.4800,-3.5307,12.5243,2.3295,2.2156,-9.5232,0.7530,-0.8717,-0.9114,0.3278
8.4900,-3.5987,13.0373,1.2449,2.2373,-9.5111,0.8380,-0.6650,-0.0830,0.1947
8.5000,-3.2340,13.3495,0.2725,2.2493,-9.5046,0.8794,-0.2947,0.5510,0.0141
8.5100,-2.8076,13.4107,-0.1122,2.2519,-9.5052,0.8659,0.2088,1.0852,-0.0816
8.5200,-0.8392,13.7777,0.1709,2.2581,-9.5104,0.7882,0.7534,1.7216,-0.0167
8.5300,2.3689,14.2583,0.6526,2.2728,-9.5173,0.6466,1.2667,2.1453,0.0058
8.5400,2.6909,13.7786,0.3829,2.2733,-9.5280,0.4560,1.6551,2.1021,-0.2989
8.5500,-0.2533,12.2047,-0.7571,2.2226,-9.5475,0.2501,1.6804,1.5976,-0.9296
8.5600,-3.8367,10.4654,-0.9875,2.1037,-9.5774,0.0825,1.2341,0.6944,-1.5778
8.5700,-5.2210,9.0461,0.2883,1.9283,-9.6145,-0.0259,0.9086,0.2800,-2.0271
8.5800,-1.0621,6.1575,-0.4686,1.7132,-9.6539,-0.1378,1.3497,0.5333,-2.3886
8.5900,2.2298,1.0564,-4.8018,1.4678,-9.6898,-0.3103,2.0054,0.0878,-2.6362
8.6000,-2.2628,-2.9024,-3.7039,1.2104,-9.7168,-0.5125,2.0708,-0.2761,-2.6212
8.6100,-3.4952,-1.9865,2.9610,0.9561,-9.7343,-0.6904,1.4498,1.1643,-2.5046
8.6200,-1.5924,-0.7486,9.2588,0.6941,-9.7494,-0.7867,0.0629,3.3819,-2.4865
8.6300,-6.0025,-5.6522,17.4591,0.4200,-9.7701,-0.7152,-2.0164,4.6981,-2.4413
8.6400,-9.5388,-13.9825,25.6389,0.1633,-9.7930,-0.4388,-3.6986,4.4424,-2.1503
8.6500,-7.6341,-20.2548,26.3816,-0.0295,-9.8044,-0.0752,-3.4928,2.5486,-1.4689
8.6600,-5.5724,-20.3050,17.4894,-0.1339,-9.8031,0.2031,-2.1462,0.0082,-0.6258
8.6700,-4.6791,-12.7898,9.4734,-0.1622,-9.7977,0.3781,-1.5977,-1.6639,0.1252
8.6800,-0.6650,-3.2104,8.5851,-0.1196,-9.7898,0.5520,-2.0680,-2.2348,0.9509
8.6900,2.8697,0.2920,8.6820,-0.0046,-9.7736,0.7894,-2.7672,-2.4473,1.6480
8.7000,1.5134,-3.2214,7.6446,0.1248,-9.7444,1.0835,-3.1366,-2.6577,1.3232
8.7100,-2.8005,-10.5179,6.2803,0.1603,-9.7030,1.4033,-3.3092,-2.6414,-0.0180
8.7200,-7.9132,-17.8547,2.7029,0.0503,-9.6489,1.7400,-3.5714,-2.7371,-1.3391
8.7300,-11.5263,-23.9496,-1.9827,-0.1906,-9.5744,2.0992,-3.9023,-3.5487,-2.3563
8.7400,-12.4974,-28.6879,-6.9359,-0.5558,-9.4705,2.4674,-4.0860,-4.4247,-3.3221
8.7500,-7.3039,-30.2043,-12.3279,-1.0197,-9.3295,2.8269,-4.1157,-3.6705,-4.1476
8.7600,1.2192,-27.5764,-19.5977,-1.5018,-9.1539,3.1672,-3.5830,-0.0522,-4.9605
8.7700,12.7627,-19.3681,-20.7216,-1.8737,-8.9594,3.5110,-2.8220,5.7665,-5.2591
8.7800,23.1988,-9.7227,-15.0420,-1.9847,-8.7618,3.9240,-2.7184,10.8225,-4.3980
8.7900,22.0758,-4.2207,-15.8915,-1.8700,-8.5747,4.3689,-2.5856,9.9921,-3.1379
8.8000,18.2600,-2.7514,-19.0870,-1.7538,-8.4290,4.6935,-1.7966,4.2544,-1.5968
8.8100,17.2271,0.6399,-15.6649,-1.7370,-8.3536,4.8341,-0.8455,-0.5530,0.0988
8.8200,14.1156,4.4024,-10.0743,-1.7608,-8.3432,4.8435,-0.1526,-2.5982,1.2992
8.8300,7.9166,5.0546,-6.6990,-1.7487,-8.3746,4.7933,0.2682,-2.1200,1.7563
8.8400,0.8936,5.6126,-4.9652,-1.6665,-8.4212,4.7404,0.4404,-0.3599,1.5816
8.8500,-2.3060,5.9257,-5.1586,-1.5258,-8.4696,4.7011,0.5942,0.8521,1.4090
8.8600,-2.1037,6.5907,-5.9668,-1.3576,-8.5235,4.6549,0.8170,0.9540,1.4869
8.8700,-1.1976,7.8765,-6.1322,-1.1892,-8.5861,4.5854,1.0095,0.4483,1.6430
8.8800,-0.3620,9.1832,-6.0083,-1.0350,-8.6538,4.4948,1.1006,-0.1977,1.7692
8.8900,-0.0285,9.8092,-5.8680,-0.8971,-8.7206,4.3942,1.0956,-0.6364,1.8177
8.9000,0.1839,10.2063,-5.7586,-0.7687,-8.7828,4.2935,1.0455,-0.7875,1.8162
8.9100,1.0818,10.8907,-5.6517,-0.6377,-8.8391,4.1984,0.9735,-0.6042,1.8398
8.9200,2.7947,11.5992,-5.4681,-0.4836,-8.8886,4.1133,0.8812,-0.0399,1.9552
8.9300,4.8508,12.3073,-5.2029,-0.2857,-8.9306,4.0396,0.7840,0.6770,2.1829
8.9400,5.6125,12.4132,-5.1298,-0.0368,-8.9654,3.9713,0.7803,1.1609,2.5121
8.9500,4.1728,10.5980,-5.4816,0.2554,-8.9963,3.8917,0.9810,1.2229,2.8825
8.9600,1.3913,7.3966,-6.3745,0.5685,-9.0287,3.7815,1.3755,0.8263,3.0697
8.9700,-1.9332,4.8687,-7.6161,0.8451,-9.0686,3.6325,1.8652,-0.1538,2.5671
8.9800,-5.6608,2.1688,-9.4397,1.0016,-9.1258,3.4460,2.4022,-1.3853,1.4703
8.9900,-7.2074,-1.2357,-10.9572,1.0510,-9.2046,3.2128,3.0532,-1.8393,0.9708
9.0000,-2.9283,-3.3404,-10.5114,1.1067,-9.2972,2.9110,3.8535,-1.6904,1.4886
9.0100,1.7005,-5.9628,-9.8468,1.2465,-9.3898,2.5281,4.7005,-1.6692,2.4883
9.0200,2.5823,-9.8939,-9.3554,1.4969,-9.4633,2.0717,5.2811,-1.2096,3.4696
9.0300,1.6220,-13.2668,-6.3270,1.8188,-9.5013,1.5805,4.9204,0.8022,3.2805
9.0400,-5.1546,-19.0015,0.8882,2.0949,-9.5100,1.1360,3.4520,2.7066,1.9845
9.0500,-11.7122,-27.7518,9.7663,2.2594,-9.5058,0.8306,1.6264,2.8281,0.9451
9.0600,-9.2068,-35.3377,16.3059,2.3379,-9.4994,0.6803,0.5053,1.8790,0.3734
9.0700,-3.8802,-36.7440,17.9049,2.3629,-9.4988,0.5991,0.6979,0.7291,-0.0232
9.0800,0.2421,-25.2492,12.3415,2.3384,-9.5115,0.4743,1.6561,0.6570,-0.6076
9.0900,1.6876,-11.5313,7.0575,2.2429,-9.5422,0.2518,2.4763,1.2465,-1.4488
9.1000,0.3036,-4.7870,6.0563,2.0750,-9.5830,-0.0285,2.7147,1.0158,-1.9929
9.1100,0.1087,0.5692,5.0481,1.8864,-9.6182,-0.2847,2.3640,-0.3604,-1.8389
9.1200,1.2342,4.8231,3.5126,1.7414,-9.6394,-0.4616,1.6827,-1.8916,-1.2420
9.1300,1.7935,7.7475,2.0321,1.6621,-9.6493,-0.5452,0.8508,-2.7484,-0.6602
9.1400,1.3813,9.2534,1.4609,1.6376,-9.6543,-0.5308,-0.1569,-3.0841,-0.2000
9.1500,0.5021,9.3992,1.3267,1.6470,-9.6580,-0.4173,-1.1279,-2.8994,0.0610
9.1600,-1.1498,8.6470,1.3145,1.6657,-9.6608,-0.2313,-1.7475,-2.4030,0.1196
9.1700,-2.8622,8.3240,1.7275,1.6804,-9.6609,-0.0054,-2.1051,-2.1076,0.1237
9.1800,-3.6126,8.4561,2.0819,1.6914,-9.6556,0.2482,-2.3694,-2.1207,0.1686
9.1900,-3.4893,8.3430,1.7533,1.7039,-9.6423,0.5221,-2.4536,-2.3629,0.2803
9.2000,-2.6297,8.2777,1.1582,1.7221,-9.6205,0.7954,-2.2554,-2.6337,0.4437
9.2100,-1.2584,8.5807,0.7965,1.7502,-9.5922,1.0406,-1.8321,-2.6982,0.6568
9.2200,-0.0872,9.2835,0.6488,1.7944,-9.5608,1.2384,-1.3076,-2.4683,0.8766
9.2300,0.3284,10.0517,0.7395,1.8546,-9.5304,1.3775,-0.7798,-1.7330,0.9290
9.2400,0.0661,10.8747,1.0098,1.9181,-9.5075,1.4483,-0.2791,-0.4136,0.6877
9.2500,-0.2624,11.9017,1.1678,1.9694,-9.4972,1.4470,0.1865,0.8848,0.3113
9.2600,-0.3743,12.5502,1.3990,2.0030,-9.4997,1.3830,0.5984,1.6583,0.0219
9.2700,-0.4216,12.6671,1.6876,2.0211,-9.5111,1.2728,0.9019,2.0195,-0.1491
9.2800,-0.8545,12.2484,1.9466,2.0252,-9.5278,1.1335,1.1110,2.1346,-0.2976
9.2900,-2.1164,11.0436,1.7857,2.0099,-9.5483,0.9760,1.3114,1.8994,-0.4788
9.3000,-3.5862,9.5585,0.6592,1.9684,-9.5727,0.8065,1.5185,1.3711,-0.7024
9.3100,-4.1438,8.5838,-0.6272,1.8962,-9.6002,0.6344,1.5659,0.8638,-0.9739
9.3200,-3.5437,8.8100,-0.6491,1.7927,-9.6291,0.4783,1.3627,0.6044,-1.2460
9.3300,-2.1665,9.6945,0.5663,1.6616,-9.6582,0.3469,1.1277,0.7517,-1.5081
9.3400,0.4678,9.8534,0.9726,1.5012,-9.6878,0.2275,1.1126,0.6796,-1.8414
9.3500,-0.9212,8.7304,-0.6306,1.3047,-9.7181,0.1032,1.3756,-0.2167,-2.1627
9.3600,-6.2828,5.5335,-1.8585,1.0830,-9.7456,-0.0378,1.5948,-0.5874,-2.3460
9.3700,-5.7717,0.6564,1.4656,0.8437,-9.7677,-0.1748,1.0552,0.9032,-2.5285
9.3800,-5.2184,-7.7065,11.0600,0.5903,-9.7857,-0.2119,-0.6725,3.3530,-2.4771
9.3900,-8.3282,-20.0866,23.2553,0.3577,-9.7986,-0.0744,-2.3361,4.7986,-2.1323
9.4000,-7.3537,-28.5103,26.0997,0.1609,-9.8030,0.1540,-2.3370,3.9828,-1.9360
9.4100,-4.6094,-26.4576,16.2828,-0.0172,-9.8001,0.3390,-1.4962,1.6698,-1.7620
9.4200,-3.9808,-16.7556,8.3913,-0.1662,-9.7935,0.4712,-1.3214,-0.6023,-1.2248
9.4300,-3.7977,-7.5104,7.5946,-0.2571,-9.7830,0.6228,-1.8885,-2.3208,-0.4298
9.4400,-2.1550,-2.7919,7.5119,-0.2763,-9.7659,0.8399,-2.6625,-2.9060,0.4514
9.4500,2.8465,-1.2187,7.3135,-0.2170,-9.7383,1.1231,-3.1888,-2.3040,1.2454
9.4600,3.8988,-3.8489,5.4962,-0.1074,-9.6984,1.4388,-3.2640,-1.5936,1.3871
9.4700,-1.7834,-8.4667,2.2590,-0.0253,-9.6478,1.7509,-3.1432,-1.3155,0.6890
9.4800,-4.7595,-10.2021,0.8704,-0.0372,-9.5876,2.0547,-3.1589,-1.8345,-0.3381
9.4900,-8.3370,-14.0431,-1.9844,-0.1768,-9.5154,2.3583,-3.2219,-3.2990,-1.3793
9.5000,-10.9621,-18.5629,-6.0672,-0.4611,-9.4275,2.6506,-3.1838,-4.7647,-2.4155
9.5100,-6.6972,-18.9050,-8.8047,-0.8768,-9.3201,2.9093,-2.9983,-4.7443,-3.4460
9.5200,1.7871,-17.9782,-13.1511,-1.3465,-9.1906,3.1337,-2.5469,-1.7927,-4.3785
9.5300,10.4787,-14.6690,-16.1814,-1.7457,-9.0443,3.3580,-2.0080,3.0858,-4.7411
9.5400,16.8396,-8.9065,-14.6958,-1.9611,-8.8962,3.6265,-1.6424,7.6001,-4.2190
9.5500,19.4043,-3.1744,-13.0723,-1.9509,-8.7644,3.9391,-1.3972,9.8023,-3.2611
9.5600,16.2721,0.4348,-13.9833,-1.8344,-8.6616,4.2148,-0.9736,7.5438,-2.3259
9.5700,14.2156,2.7976,-13.1479,-1.7639,-8.6006,4.3688,-0.3596,2.9754,-1.1517
9.5800,14.1240,5.0854,-9.2039,-1.7545,-8.5865,4.4005,0.0614,-0.4886,0.1877
9.5900,11.2844,5.9408,-6.3269,-1.7578,-8.6062,4.3604,0.2168,-2.3610,1.2398
9.6000,6.8413,5.8911,-5.0627,-1.7341,-8.6442,4.2940,0.2138,-2.8481,1.9446
9.6100,2.4141,5.8382,-4.7732,-1.6614,-8.6885,4.2328,0.1613,-2.2769,2.2455
9.6200,-0.0456,6.3411,-5.3507,-1.5392,-8.7319,4.1891,0.1944,-1.1695,2.1933
9.6300,-0.3046,7.3772,-5.8586,-1.3808,-8.7738,4.1565,0.3155,-0.2383,2.0593
9.6400,0.0715,8.4008,-6.0840,-1.2002,-8.8164,4.1221,0.4699,0.3287,1.9666
9.6500,0.3440,9.1445,-6.1923,-1.0064,-8.8604,4.0793,0.6088,0.6590,1.9260
9.6600,0.3713,9.4597,-6.1759,-0.8043,-8.9049,4.0268,0.7122,0.8092,1.9187
9.6700,0.1717,9.7389,-6.1032,-0.6003,-8.9487,3.9648,0.7937,0.8235,1.8827
9.6800,-0.0541,10.3034,-6.0249,-0.4019,-8.9906,3.8945,0.8506,0.7906,1.8058
9.6900,0.0752,10.8737,-5.9102,-0.2104,-9.0297,3.8183,0.8784,0.8047,1.7532
9.7000,0.9696,11.3626,-5.8363,-0.0175,-9.0656,3.7380,0.9134,0.8800,1.7989
9.7100,1.7994,11.2993,-6.2250,0.1854,-9.1007,3.6468,1.0901,0.7938,1.9533
9.7200,1.1534,9.4860,-7.0692,0.3879,-9.1407,3.5289,1.4751,0.1947,1.9916
9.7300,-0.6349,6.4339,-8.0284,0.5365,-9.1922,3.3726,1.9822,-1.2174,1.4955
9.7400,-2.7717,3.1428,-9.2979,0.5855,-9.2588,3.1763,2.4873,-2.6461,1.0178
9.7500,-2.2082,1.1215,-8.9937,0.6049,-9.3353,2.9389,2.9518,-2.9450,1.3985
9.7600,1.9049,0.0596,-7.4834,0.6991,-9.4130,2.6546,3.4609,-2.4499,2.2378
9.7700,3.7317,-3.3233,-7.5395,0.8994,-9.4846,2.3135,4.0601,-1.7831,3.1111
9.7800,2.9089,-8.4966,-7.3848,1.2026,-9.5375,1.9196,4.2798,-0.1335,3.6097
9.7900,-0.1042,-15.7407,-3.2182,1.5466,-9.5597,1.5255,3.3449,2.5187,3.0738
9.8000,-6.2079,-26.9367,6.4531,1.8407,-9.5516,1.2338,1.4124,4.1094,2.1073
9.8100,-9.1490,-38.8275,16.7131,2.0434,-9.5279,1.0986,-0.1149,3.9247,1.1016
9.8200,-8.8504,-43.8933,20.1678,2.1364,-9.5143,1.0409,0.0986,2.5498,0.1348
9.8300,-4.3478,-37.9455,14.1550,2.1427,-9.5249,0.9201,1.6241,1.3088,-0.3290
9.8400,2.4579,-21.4143,8.6813,2.1065,-9.5525,0.6770,2.7708,1.2112,-0.6279
9.8500,2.8927,-7.5499,8.5285,2.0340,-9.5848,0.3730,2.8469,1.4409,-0.9868
9.8600,-0.1089,-2.4792,6.7352,1.9357,-9.6123,0.0942,2.3896,0.9099,-1.0593
9.8700,-1.2998,1.3284,3.7655,1.8500,-9.6294,-0.1171,1.8659,-0.3863,-0.7123
9.8800,-0.9676,3.9924,1.6180,1.7986,-9.6367,-0.2561,1.3402,-1.3316,-0.4263
9.8900,-1.2111,5.5959,-0.0191,1.7645,-9.6408,-0.3331,0.8192,-1.7271,-0.3916
9.9000,-1.8332,7.3462,-0.2438,1.7338,-9.6457,-0.3517,0.2216,-2.0122,-0.3733
9.9100,-2.1381,8.7375,1.0624,1.7065,-9.6522,-0.3018,-0.5150,-2.1880,-0.3261
9.9200,-2.3324,8.5892,2.4468,1.6817,-9.6594,-0.1798,-1.1998,-2.2305,-0.2963
9.9300,-2.5222,7.6564,3.1858,1.6554,-9.6654,-0.0025,-1.6468,-2.1714,-0.2909
9.9400,-2.7951,7.1771,3.1375,1.6269,-9.6680,0.2029,-1.8076,-2.1936,-0.2402
9.9500,-2.6575,7.3406,2.7996,1.6035,-9.6652,0.4135,-1.7513,-2.3387,-0.0759
9.9600,-2.1650,7.7813,2.5094,1.5968,-9.6558,0.6144,-1.5657,-2.4963,0.2059
9.9700,-1.6124,8.4258,2.2285,1.6140,-9.6399,0.7946,-1.3070,-2.4866,0.5089
9.9800,-1.3915,9.1707,2.1416,1.6532,-9.6196,0.9466,-1.0407,-2.1509,0.7064
9.9900,-1.7735,9.9955,2.2629,1.7059,-9.5977,1.0679,-0.8356,-1.5114,0.7485
10.0000,-2.2930,11.0439,2.2952,1.7625,-9.5766,1.1618,-0.7118,-0.7593,0.6777
10.0100,-2.2987,12.1839,2.0435,1.8170,-9.5575,1.2334,-0.6008,-0.1800,0.5702
10.0200,-1.0999,13.0537,1.7117,1.8658,-9.5418,1.2814,-0.3867,0.2048,0.4450
10.0300,-0.1335,13.3668,1.5569,1.9117,-9.5310,1.2942,-0.0312,0.6382,0.4129
10.0400,1.6205,13.6174,1.6968,1.9660,-9.5246,1.2593,0.4200,1.0575,0.5025
10.0500,3.3445,13.6522,1.2967,2.0320,-9.5218,1.1715,0.9182,1.2888,0.5610
10.0600,2.5448,12.5592,-0.4267,2.0947,-9.5243,1.0306,1.4157,1.4846,0.3858
10.0700,0.4928,10.3679,-2.7556,2.1240,-9.5360,0.8443,1.7494,1.6322,-0.1165
10.0800,-2.0757,8.2673,-4.1861,2.0952,-9.5583,0.6391,1.7505,1.6146,-0.7238
10.0900,-3.6642,7.3134,-3.7122,2.0120,-9.5869,0.4513,1.4298,1.5937,-1.1513
10.1000,-3.5350,7.5251,-2.0165,1.9176,-9.6115,0.3246,1.0499,1.6126,-1.3222
10.1100,-3.0800,7.9081,-1.0840,1.8758,-9.6210,0.2832,0.9010,1.6046,-1.3500
10.1200,-2.1207,8.9591,0.0050,1.7668,-9.6438,0.1966,0.6520,1.6604,-1.4341
10.1300,-0.3327,9.6641,-0.4832,1.6156,-9.6716,0.1085,0.6627,1.2856,-1.8023
10.1400,-0.4998,8.8522,-2.6565,1.4039,-9.7047,0.0173,1.0235,-0.0514,-2.5593
10.1500,-6.1081,5.4154,-4.3223,1.1288,-9.7396,-0.0982,1.4961,-0.9982,-2.9903
10.1600,-7.7486,0.0333,-1.9836,0.8409,-9.7663,-0.2397,1.4044,-0.2680,-2.8701
10.1700,-5.9933,-10.0586,7.9692,0.5852,-9.7834,-0.3161,-0.0910,2.2803,-2.1978
10.1800,-5.0966,-26.3915,23.6908,0.4109,-9.7946,-0.2375,-1.6765,5.1887,-1.1149
10.1900,-3.4782,-35.5936,27.9552,0.3160,-9.8008,-0.0907,-1.4864,5.3949,-0.6646
10.2000,-3.8817,-27.8102,16.2635,0.2473,-9.8035,-0.0023,-0.6114,3.0479,-0.6637
10.2100,-4.3217,-12.4361,7.6400,0.1936,-9.8046,0.0470,-0.5948,0.1029,-0.4122
10.2200,-5.6623,-2.2776,7.6768,0.1669,-9.8040,0.1394,-1.2742,-2.4282,-0.0896
10.2300,-3.1300,1.5486,7.9473,0.1647,-9.7999,0.3077,-2.0075,-3.5947,0.2132
10.2400,2.2355,2.2486,6.8946,0.1902,-9.7892,0.5373,-2.4860,-3.2930,0.6198
10.2500,2.7661,0.2555,6.0859,0.2523,-9.7697,0.7993,-2.6751,-2.3483,0.9809
10.2600,-0.2115,-3.3073,5.5319,0.3259,-9.7420,1.0674,-2.6560,-1.6523,0.8001
10.2700,-3.5393,-7.4287,5.2026,0.3531,-9.7081,1.3340,-2.7130,-1.2939,0.0719
10.2800,-6.3596,-12.3468,3.6254,0.3010,-9.6671,1.6134,-2.9126,-1.3634,-0.7139
10.2900,-8.6624,-17.1198,0.5925,0.1654,-9.6163,1.9077,-3.0267,-1.9685,-1.4536
10.3000,-10.4378,-20.0271,-3.3809,-0.0621,-9.5545,2.1993,-2.9831,-2.9812,-2.1995
10.3100,-8.1264,-20.3933,-6.8804,-0.3918,-9.4791,2.4715,-2.8735,-3.4112,-3.0870
10.3200,1.3625,-18.8649,-9.5051,-0.7964,-9.3816,2.7307,-2.8654,-1.4949,-4.0142
10.3300,9.3476,-16.4821,-13.7181,-1.1884,-9.2580,2.9986,-2.6592,2.2649,-4.5387
10.3400,13.3892,-11.5930,-14.8118,-1.4711,-9.1193,3.2873,-2.3182,5.8670,-4.3894
10.3500,15.8718,-6.1606,-13.0639,-1.6082,-8.9804,3.5927,-2.0251,7.2730,-3.7887
10.3600,15.5116,-3.6078,-12.6635,-1.6642,-8.8599,3.8584,-1.4959,5.3055,-2.7705
10.3700,15.0721,-2.0486,-10.8412,-1.7016,-8.7790,4.0249,-0.8673,2.0914,-1.2708
10.3800,14.0044,0.0433,-8.2883,-1.7125,-8.7453,4.0935,-0.3684,-0.1732,0.1799
10.3900,10.8757,2.2564,-6.5715,-1.6823,-8.7482,4.0999,-0.1060,-1.2073,1.1580
10.4000,6.6726,4.1367,-5.4510,-1.6078,-8.7678,4.0876,-0.0717,-0.9867,1.5509
10.4100,2.7093,5.5320,-5.1087,-1.4925,-8.7884,4.0869,-0.1082,-0.0615,1.5310
10.4200,0.1595,6.6245,-5.6819,-1.3479,-8.8061,4.0987,-0.0440,0.6900,1.4197
10.4300,-0.8318,7.6759,-6.1424,-1.1894,-8.8254,4.1063,0.1076,0.8499,1.4159
10.4400,-1.0991,8.2136,-6.1523,-1.0306,-8.8488,4.0989,0.2431,0.5879,1.4767
10.4500,-1.3200,8.6621,-6.1506,-0.8812,-8.8756,4.0758,0.3655,0.1963,1.5032
10.4600,-1.3198,9.4581,-6.3085,-0.7470,-8.9053,4.0377,0.4992,-0.1027,1.4512
10.4700,-0.9418,10.0772,-6.5203,-0.6297,-8.9378,3.9855,0.6359,-0.2234,1.3155
10.4800,-0.6628,10.5090,-6.5726,-0.5279,-8.9732,3.9204,0.7803,-0.2272,1.1588
10.4900,-0.6013,10.7224,-6.7079,-0.4341,-9.0119,3.8423,0.9246,-0.1539,1.1035
10.5000,-0.1027,10.8880,-6.8669,-0.3321,-9.0540,3.7523,1.0461,0.0709,1.2082
10.5100,1.0496,11.1521,-6.8507,-0.2023,-9.0983,3.6527,1.1493,0.5651,1.3982
10.5200,2.4996,11.4107,-6.8958,-0.0351,-9.1434,3.5434,1.2524,1.2312,1.5230
10.5300,3.5748,11.1912,-7.4399,0.1612,-9.1884,3.4208,1.3864,1.6957,1.6154
10.5400,3.3995,9.3692,-7.9560,0.3766,-9.2339,3.2780,1.6138,1.5720,1.8228
10.5500,1.5644,6.9622,-7.9931,0.5884,-9.2819,3.1068,1.9820,0.4350,1.9307
10.5600,-1.4898,5.0459,-8.4208,0.7412,-9.3365,2.9043,2.4568,-1.7352,1.6745
10.5700,-4.6930,2.7544,-8.9634,0.8229,-9.3987,2.6724,2.9063,-3.3003,1.6613
10.5800,-3.6076,1.8101,-7.4528,0.9203,-9.4612,2.4048,3.3545,-3.1700,2.2463
10.5900,0.2850,1.5100,-5.8779,1.1007,-9.5164,2.0864,3.8965,-2.3327,2.8157
10.6000,0.4810,-0.4136,-5.7260,1.3497,-9.5575,1.7164,4.2779,-1.6990,3.1949
10.6100,-2.3335,-10.5391,-2.2796,1.6497,-9.5730,1.3187,4.2972,-0.7228,3.3734
10.6200,-5.6219,-28.2251,7.9624,1.9450,-9.5641,0.9284,3.4367,1.7872,2.6010
10.6300,-4.3014,-41.6790,19.2242,2.1613,-9.5446,0.6136,1.7336,3.9956,1.5224
10.6400,-1.2495,-44.7081,23.5902,2.2988,-9.5237,0.4219,0.4878,3.9470,0.9472
10.6500,-0.2355,-36.0948,20.1029,2.3757,-9.5095,0.3058,0.5199,2.4647,0.3988
10.6600,2.7763,-21.8467,13.7267,2.3960,-9.5075,0.1741,1.4092,1.0770,-0.0394
10.6700,5.2607,-10.4078,10.3174,2.3813,-9.5125,-0.0156,2.0767,0.6041,-0.2581
10.6800,3.3311,-3.8207,7.6052,2.3483,-9.5178,-0.2340,2.1666,0.4325,-0.4396
10.6900,-1.1346,-0.1876,3.1968,2.2911,-9.5247,-0.4374,1.9716,-0.0976,-0.7462
10.7000,-2.6604,1.1630,-0.2029,2.2129,-9.5343,-0.6030,1.7223,-0.9740,-0.9049
10.7100,-0.9154,2.0803,-0.4222,2.1398,-9.5430,-0.7212,1.2930,-1.5238,-0.7934
10.7200,-0.1619,2.9982,0.8028,2.0760,-9.5522,-0.7836,0.6389,-1.3584,-0.7986
10.7300,-1.1516,3.3015,1.7948,1.9996,-9.5681,-0.7878,-0.0290,-1.1173,-0.9959
10.7400,-1.8035,3.6675,2.8830,1.9072,-9.5917,-0.7266,-0.7334,-1.4293,-1.0908
10.7500,-1.6926,3.6086,2.6082,1.8160,-9.6182,-0.5944,-1.3118,-1.9973,-1.0122
10.7600,-1.2312,3.5082,1.3745,1.7385,-9.6420,-0.4112,-1.6234,-2.3722,-0.7867
10.7700,-0.7151,3.8700,0.6170,1.6904,-9.6571,-0.2049,-1.7294,-2.5470,-0.3323
10.7800,-0.8135,4.3218,0.3376,1.6902,-9.6593,0.0057,-1.6713,-2.7204,0.2876
10.7900,-1.3124,4.6161,0.6101,1.7444,-9.6475,0.2073,-1.4777,-2.8134,0.8749
10.8000,-1.9808,4.7592,1.2244,1.8409,-9.6240,0.3862,-1.1921,-2.6287,1.2528
10.8100,-2.7752,4.8871,1.8953,1.9570,-9.5941,0.5344,-0.9221,-2.2411,1.3516
10.8200,-3.2181,4.9427,2.2047,2.0700,-9.5630,0.6541,-0.7333,-1.7692,1.2150
10.8300,-3.1440,4.9993,2.4220,2.1629,-9.5355,0.7500,-0.6074,-1.2061,0.9191
10.8400,-2.7287,5.3728,2.7913,2.2254,-9.5152,0.8230,-0.5140,-0.5452,0.5199
10.8500,-2.1607,6.1626,2.8419,2.2517,-9.5046,0.8727,-0.4320,0.1493,0.0603
10.8600,-1.7934,7.2042,2.6915,2.2392,-9.5050,0.9005,-0.3548,0.7102,-0.3950
10.8700,-1.8463,8.2832,2.3286,2.1914,-9.5151,0.9107,-0.2582,0.9848,-0.7446
10.8800,-1.9363,9.2158,1.8353,2.1185,-9.5317,0.9093,-0.1551,0.9819,-0.9302
10.8900,-1.7432,10.0732,1.3160,2.0351,-9.5508,0.8997,-0.0166,0.7747,-0.9425
10.9000,-1.3674,10.4068,0.5029,1.9553,-9.5697,0.8758,0.2442,0.5638,-0.8288
10.9100,-0.6044,10.0073,-0.5263,1.8864,-9.5879,0.8256,0.5783,0.5674,-0.6997
10.9200,0.3297,9.5227,-1.6568,1.8294,-9.6058,0.7408,0.9207,0.8111,-0.5946
10.9300,1.1704,8.8783,-3.0681,1.7824,-9.6232,0.6174,1.2376,1.2914,-0.5250
10.9400,2.0004,8.2937,-4.2075,1.7418,-9.6394,0.4598,1.4047,1.9211,-0.4830
10.9500,2.6395,8.5631,-4.0868,1.7061,-9.6524,0.2887,1.2963,2.4612,-0.4138
10.9600,2.7458,9.7672,-2.6235,1.6766,-9.6611,0.1353,0.9369,2.6451,-0.3051
10.9700,2.0879,11.1910,-1.1984,1.6478,-9.6671,0.0214,0.5947,2.1898,-0.3676
10.9800,0.5057,11.6194,-1.8421,1.5883,-9.6768,-0.0642,0.7358,0.8271,-0.9295
10.9900,-0.2123,-0.5821,-6.1391,1.4624,-9.6946,-0.1827,1.6767,-0.2315,-1.6138
11.0000,-4.0267,-14.2249,-3.7653,1.3119,-9.7094,-0.3933,2.7661,-1.0050,-1.4219
11.0100,-3.1978,-20.1599,10.2744,1.2113,-9.7078,-0.6642,2.6849,0.3866,-0.6961
11.0200,-2.2566,-30.0614,23.8877,1.1449,-9.7003,-0.8703,0.8771,3.8633,-0.3420
11.0300,-5.9908,-32.1824,22.9532,1.0686,-9.7063,-0.9017,-1.1406,5.1022,-0.3450
11.0400,-4.5125,-21.6012,10.7612,1.0015,-9.7215,-0.8099,-1.4044,3.2717,-0.2066
11.0500,-3.8630,-9.4653,4.3393,0.9879,-9.7292,-0.7322,-0.4915,0.1240,0.2454
11.0600,-4.1621,-1.3411,4.5589,1.0453,-9.7254,-0.7022,0.0503,-2.4359,0.7556
11.0700,-3.2946,3.0659,4.8111,1.1670,-9.7138,-0.6662,-0.0606,-4.1926,1.2576
11.0800,-2.0391,4.6884,4.2037,1.3390,-9.6967,-0.5820,-0.4401,-5.1019,1.6609
11.0900,-1.8598,4.6903,3.4023,1.5393,-9.6740,-0.4436,-0.8184,-5.1561,1.9097
11.1000,-2.8334,3.8645,2.7673,1.7409,-9.6463,-0.2647,-1.1543,-4.6509,1.8533
11.1100,-3.3591,2.7519,3.1977,1.9029,-9.6192,-0.0577,-1.5312,-3.7312,1.2965
11.1200,-3.7518,0.4208,3.8262,1.9883,-9.6006,0.1749,-1.9656,-2.7581,0.5054
11.1300,-4.9157,-2.5441,3.0724,2.0028,-9.5892,0.4331,-2.3217,-2.2876,0.0057
11.1400,-5.9589,-4.2194,1.4387,1.9808,-9.5771,0.7106,-2.4559,-2.2452,-0.1537
11.1500,-6.6010,-4.9949,-0.3066,1.9413,-9.5609,0.9863,-2.2872,-2.2788,-0.2516
11.1600,-7.1922,-5.4545,-1.4699,1.8802,-9.5446,1.2333,-1.8878,-2.2966,-0.4520
11.1700,-7.2031,-5.5058,-1.4153,1.7885,-9.5338,1.4376,-1.4895,-2.1381,-0.8123
11.1800,-6.2655,-5.0817,-1.2028,1.6550,-9.5320,1.6001,-1.2135,-1.6036,-1.3801
11.1900,-5.4520,-4.7447,-1.3459,1.4676,-9.5406,1.7261,-1.0302,-0.6234,-2.1419
11.2000,-3.8633,-4.3519,-1.6929,1.2216,-9.5581,1.8165,-0.8117,0.6532,-2.9952
11.2100,-1.7154,-3.8721,-3.1102,0.9200,-9.5811,1.8705,-0.5532,1.7309,-3.7164
11.2200,-0.1995,-3.4341,-4.2401,0.5805,-9.6017,1.8999,-0.3699,2.1946,-4.0344
11.2300,2.4715,-2.9385,-3.8484,0.2410,-9.6122,1.9209,-0.2583,2.2759,-3.8060
11.2400,6.5737,-2.5781,-2.5175,-0.0488,-9.6113,1.9431,-0.2555,2.3260,-3.0578
11.2500,10.6165,-1.7737,-0.1044,-0.2537,-9.6019,1.9755,-0.3506,2.1637,-2.0873
11.2600,11.8310,-0.5858,1.8933,-0.3728,-9.5890,2.0199,-0.4363,1.7063,-1.2105
11.2700,10.0607,0.7949,2.2115,-0.4287,-9.5760,2.0704,-0.4841,1.2384,-0.6102
11.2800,6.8933,2.3044,1.6564,-0.4512,-9.5631,2.1245,-0.5384,1.0337,-0.3836
11.2900,3.4164,3.6178,1.0380,-0.4666,-9.5484,2.1861,-0.6374,1.3301,-0.4862
11.3000,0.8362,4.5959,0.6351,-0.4899,-9.5295,2.2620,-0.7859,1.9310,-0.7663
11.3100,-1.0896,5.3738,0.3035,-0.5250,-9.5044,2.3573,-0.9683,2.3749,-0.9969
11.3200,-2.0064,5.7880,-0.1412,-0.5639,-9.4732,2.4711,-1.1209,2.3852,-1.0005
11.3300,-1.7618,5.6290,-0.9702,-0.5968,-9.4378,2.5958,-1.2062,1.9111,-0.8123
11.3400,-1.6139,5.5495,-2.0293,-0.6233,-9.3995,2.7252,-1.2975,1.2240,-0.6071
11.3500,-1.7851,5.5733,-2.6885,-0.6490,-9.3578,2.8594,-1.4144,0.6218,-0.4811
11.3600,-1.7095,5.4962,-3.4133,-0.6808,-9.3114,2.9999,-1.5106,0.2038,-0.4499
11.3700,-1.2065,4.9667,-4.6328,-0.7202,-9.2613,3.1422,-1.5007,-0.0102,-0.4399
11.3800,1.6167,2.6931,-7.1342,-0.7573,-9.2130,3.2731,-1.2867,0.0605,-0.3420
11.3900,4.9448,0.8495,-9.0369,-0.7715,-9.1742,3.3773,-0.9183,0.3920,-0.0994
11.4000,5.9040,1.0624,-8.4992,-0.7444,-9.1495,3.4499,-0.5656,0.8852,0.2170
11.4100,4.7227,1.5184,-7.3384,-0.6736,-9.1362,3.4992,-0.3508,1.3569,0.4412
11.4200,2.0471,1.8351,-6.4457,-0.5771,-9.1288,3.5356,-0.2493,1.5426,0.5110
11.4300,-0.1127,2.5195,-5.6502,-0.4758,-9.1234,3.5643,-0.2135,1.3941,0.5418
11.4400,-1.3185,3.5516,-4.7697,-0.3801,-9.1177,3.5904,-0.2449,0.9967,0.6019
11.4500,-2.3067,4.4938,-4.1885,-0.2964,-9.1101,3.6177,-0.2858,0.4992,0.6258
11.4600,-3.7313,4.3772,-4.5205,-0.2332,-9.1023,3.6419,-0.2068,-0.1781,0.6095
11.4700,-4.8769,1.9036,-5.6101,-0.2023,-9.1008,3.6475,0.0829,-1.1195,0.5774
11.4800,-2.7732,-2.6334,-5.6869,-0.2051,-9.1130,3.6168,0.5419,-1.6937,0.5322
11.4900,1.4767,-7.6961,-3.6510,-0.2103,-9.1429,3.5399,1.0588,-1.4270,0.6486
11.5000,1.7612,-11.8581,-0.6557,-0.1808,-9.1897,3.4177,1.5236,-1.0306,0.9211
11.5100,-0.6128,-13.1644,2.7350,-0.1181,-9.2479,3.2592,1.8413,-0.7872,1.0701
11.5200,-1.3656,-11.6318,5.8779,-0.0335,-9.3097,3.0802,1.9581,-0.3283,1.1395
11.5300,-1.8949,-9.7968,7.2227,0.0771,-9.3683,2.8960,1.9569,0.0811,1.3017
11.5400,-2.6237,-8.4885,7.5266,0.2135,-9.4211,2.7115,1.9389,0.1836,1.4940
11.5500,-2.5086,-7.5952,8.3083,0.3654,-9.4667,2.5305,1.8632,0.1059,1.6178
11.5600,-1.6384,-7.5024,9.2433,0.5220,-9.5040,2.3578,1.7730,-0.0045,1.6539
11.5700,-1.1704,-7.6759,9.6812,0.6775,-9.5350,2.1868,1.8540,-0.2163,1.6629
11.5800,-0.8489,-7.9659,9.1257,0.8311,-9.5643,1.9967,2.2056,-0.6654,1.7262
11.5900,-0.1852,-7.9818,7.4266,0.9833,-9.5939,1.7720,2.6280,-1.1783,1.7905
11.6000,0.3419,-6.4938,5.9922,1.1334,-9.6201,1.5221,2.7924,-1.4513,1.7593
11.6100,0.7869,-4.4032,5.9377,1.2779,-9.6377,1.2784,2.5506,-1.4222,1.6389
11.6200,0.9719,-3.2333,6.9160,1.4140,-9.6438,1.0748,1.9809,-1.2009,1.4966
11.6300,0.8988,-2.7695,7.9227,1.5430,-9.6392,0.9317,1.2834,-0.8728,1.3908
11.6400,0.5345,-2.6081,8.2229,1.6682,-9.6261,0.8485,0.6806,-0.4824,1.3282
11.6500,-0.3027,-2.7177,7.8049,1.7924,-9.6075,0.8063,0.3282,-0.0877,1.2956
11.6600,-1.3330,-2.7930,6.9187,1.9169,-9.5856,0.7792,0.2209,0.2583,1.2667
11.6700,-2.3268,-2.4968,6.0317,2.0375,-9.5631,0.7498,0.2380,0.4911,1.1619
11.6800,-3.4979,-1.4800,5.5443,2.1425,-9.5430,0.7135,0.2756,0.5927,0.9251
11.6900,-4.4283,0.1042,5.3572,2.2208,-9.5281,0.6724,0.3033,0.6012,0.6251
11.7000,-4.3572,1.6861,5.1866,2.2727,-9.5188,0.6297,0.3178,0.5273,0.3964
11.7100,-3.5149,2.9118,4.9993,2.3077,-9.5130,0.5896,0.2946,0.3718,0.2904
11.7200,-2.9123,3.8826,4.9566,2.3353,-9.5080,0.5606,0.1792,0.1056,0.2685
11.7300,-3.0716,4.8073,4.9536,2.3612,-9.5019,0.5551,-0.0165,-0.3359,0.2910
11.7400,-3.7828,5.4360,4.6424,2.3872,-9.4938,0.5813,-0.2185,-0.8891,0.3283
11.7500,-4.3156,5.5401,4.0759,2.4148,-9.4833,0.6364,-0.3655,-1.2964,0.4011
11.7600,-3.8196,5.1917,3.3886,2.4484,-9.4694,0.7099,-0.4491,-1.4847,0.5044
11.7700,-3.5030,4.8578,2.5233,2.4874,-9.4526,0.7935,-0.5055,-1.5592,0.5525
11.7800,-3.9006,4.8418,1.8781,2.5243,-9.4348,0.8834,-0.5524,-1.5438,0.4939
11.7900,-4.0446,4.8776,1.6631,2.5501,-9.4187,0.9767,-0.5919,-1.4935,0.3435
11.8000,-3.9023,4.5125,1.4495,2.5564,-9.4064,1.0733,-0.6064,-1.4435,0.1480
11.8100,-3.5568,3.9634,1.1772,2.5423,-9.3989,1.1687,-0.5786,-1.3960,-0.0473
11.8200,-3.1423,3.6518,0.9838,2.5121,-9.3956,1.2568,-0.5269,-1.3411,-0.2124
11.8300,-2.9355,3.4361,0.7650,2.4765,-9.3958,1.3249,-0.4872,-1.3124,-0.3191
11.8400,-2.9492,3.3406,0.6337,2.4598,-9.3964,1.3510,-0.4744,-1.3163,-0.3534
11.8500,-2.9326,3.2471,0.4643,2.4129,-9.3991,1.4151,-0.4612,-1.3564,-0.4354
11.8600,-2.5351,2.6288,-0.2771,2.3474,-9.4038,1.4919,-0.4621,-1.3845,-0.5134
11.8700,-1.7101,1.6347,-1.4502,2.2758,-9.4093,1.5664,-0.4344,-1.3066,-0.5424
11.8800,-0.8305,0.8877,-2.3107,2.2063,-9.4149,1.6312,-0.3398,-1.1289,-0.4949
11.8900,-0.1534,0.2776,-2.9119,2.1478,-9.4200,1.6791,-0.1886,-0.9102,-0.3697
11.9000,0.2106,-0.1141,-3.1139,2.1064,-9.4245,1.7064,-0.0245,-0.6838,-0.2107
11.9100,0.2978,-0.4059,-3.0186,2.0831,-9.4283,1.7141,0.1166,-0.4620,-0.0746
11.9200,0.0713,-0.7038,-2.9040,2.0732,-9.4322,1.7049,0.2430,-0.2990,-0.0037
11.9300,-0.4066,-1.0886,-2.8884,2.0679,-9.4376,1.6810,0.3863,-0.2587,-0.0151
11.9400,-0.9555,-1.3875,-2.8120,2.0575,-9.4466,1.6426,0.5603,-0.3613,-0.1002
11.9500,-1.4458,-1.1760,-2.4548,2.0343,-9.4605,1.5903,0.7417,-0.5769,-0.2274
11.9600,-1.6368,-0.8790,-2.1511,1.9956,-9.4794,1.5256,0.9180,-0.8537,-0.3490
11.9700,-1.7397,-0.4178,-1.5716,1.9426,-9.5023,1.4495,1.0791,-1.1005,-0.4509
11.9800,-1.8982,0.3117,-0.3320,1.8779,-9.5279,1.3639,1.1638,-1.1958,-0.5540
11.9900,-1.9414,0.5368,1.1179,1.8037,-9.5545,1.2745,1.1299,-1.0985,-0.6635
12.0000,-2.0069,0.1653,2.5548,1.7222,-9.5803,1.1910,0.9519,-0.8634,-0.7654
12.0100,-2.0943,-0.5988,3.8141,1.6356,-9.6034,1.1253,0.6690,-0.6368,-0.8395
12.0200,-2.1564,-1.4731,4.5841,1.5457,-9.6232,1.0833,0.4095,-0.5940,-0.8700
12.0300,-2.0090,-2.1203,4.7738,1.4549,-9.6395,1.0638,0.2155,-0.8157,-0.8339
12.0400,-1.2929,-2.4764,5.1310,1.3687,-9.6519,1.0657,0.0471,-1.2502,-0.6984
12.0500,0.1691,-2.6628,5.8701,1.2954,-9.6595,1.0883,-0.0990,-1.6932,-0.4615
12.0600,1.9364,-2.7066,6.1909,1.2437,-9.6621,1.1258,-0.1831,-1.8779,-0.1800
12.0700,3.3017,-2.3150,5.4074,1.2175,-9.6606,1.1664,-0.1908,-1.6158,0.0692
12.0800,3.8687,-1.2193,3.9046,1.2160,-9.6565,1.2015,-0.1992,-0.9668,0.2303
12.0900,3.2632,-0.0382,2.8358,1.2330,-9.6506,1.2312,-0.2481,-0.2230,0.2860
12.1000,1.4893,0.6679,2.3557,1.2599,-9.6437,1.2576,-0.2868,0.2836,0.2833
12.1100,-0.5876,0.9538,1.9589,1.2898,-9.6364,1.2828,-0.3123,0.4207,0.2655
12.1200,-2.1078,1.2986,1.7884,1.3171,-9.6290,1.3109,-0.3596,0.3279,0.2204
12.1300,-2.9369,1.8779,1.8587,1.3371,-9.6212,1.3468,-0.4447,0.1920,0.1367
12.1400,-3.4118,2.0601,2.0356,1.3455,-9.6134,1.3937,-0.5524,0.0990,0.0088
12.1500,-3.6813,1.6786,2.0434,1.3378,-9.6059,1.4514,-0.6447,0.0218,-0.1754
12.1600,-3.7035,1.2549,1.7479,1.3088,-9.5997,1.5171,-0.7011,-0.0980,-0.4113
12.1700,-3.4858,0.9737,1.4389,1.2533,-9.5953,1.5895,-0.7442,-0.2775,-0.6709
12.1800,-2.8844,0.6081,1.1014,1.1704,-9.5923,1.6687,-0.7972,-0.4851,-0.9023
12.1900,-1.7962,0.0334,0.6003,1.0649,-9.5892,1.7548,-0.8486,-0.6588,-1.0586
12.2000,-0.0470,-0.7693,-0.1173,0.9471,-9.5844,1.8458,-0.8851,-0.7066,-1.0989
12.2100,2.1509,-1.7241,-1.0814,0.8336,-9.5770,1.9371,-0.8789,-0.5346,-0.9774
12.2200,3.4886,-2.4246,-2.1111,0.7437,-9.5670,2.0217,-0.8039,-0.1809,-0.7219
12.2300,3.3639,-2.4345,-2.8672,0.6879,-9.5558,2.0936,-0.6807,0.1732,-0.4352
12.2400,2.5886,-1.9229,-3.2746,0.6642,-9.5447,2.1510,-0.5491,0.4020,-0.1861
12.2500,1.6667,-1.3648,-3.4237,0.6649,-9.5346,2.1952,-0.4306,0.4908,0.0002
12.2600,0.7239,-0.9799,-3.4376,0.6807,-9.5258,2.2284,-0.3216,0.4565,0.1103
12.2700,-0.1228,-0.7307,-3.3047,0.7014,-9.5188,2.2517,-0.2163,0.3258,0.1406
12.2800,-0.6540,-0.5832,-2.9114,0.7181,-9.5141,2.2662,-0.1195,0.1726,0.0972
12.2900,-0.6855,-0.5641,-2.2747,0.7262,-9.5119,2.2731,-0.0395,0.0999,0.0224
12.3000,-0.5273,-0.5271,-1.5235,0.7272,-9.5117,2.2734,0.0223,0.1265,-0.0381
12.3100,-0.4786,-0.3143,-0.7214,0.7247,-9.5131,2.2684,0.0620,0.1938,-0.0738
12.3200,-0.4554,0.0280,0.0270,0.7212,-9.5154,2.2600,0.0811,0.2673,-0.0952
12.3300,-0.3629,0.3667,0.5828,0.7175,-9.5180,2.2500,0.0904,0.3381,-0.1107
12.3400,-0.2979,0.5165,0.8079,0.7142,-9.5210,2.2387,0.0933,0.3983,-0.1284
12.3500,-0.2764,0.6211,0.9867,0.7096,-9.5239,2.2277,0.0721,0.4323,-0.1586
12.3600,-0.3129,0.6931,1.2572,0.7019,-9.5262,2.2200,0.0319,0.4101,-0.1867
12.3700,-0.4256,0.4250,1.2611,0.6912,-9.5277,2.2170,-0.0237,0.3218,-0.1955
12.3800,-0.5688,0.1589,1.0726,0.6784,-9.5274,2.2222,-0.1133,0.1666,-0.1671
12.3900,-0.5939,-0.1893,0.9532,0.6664,-9.5246,2.2379,-0.2164,0.0178,-0.1078
12.4000,-0.3676,-0.5710,0.8514,0.6578,-9.5193,2.2630,-0.2955,-0.0637,-0.0488
12.4100,-0.1616,-0.3729,0.5885,0.6533,-9.5121,2.2941,-0.3280,-0.0968,0.0063
12.4200,-0.0743,0.0744,0.2639,0.6530,-9.5043,2.3263,-0.3215,-0.0972,0.0433
12.4300,-0.0986,0.3643,0.0268,0.6547,-9.4968,2.3565,-0.2865,-0.0919,0.0490
12.4400,-0.2520,0.5818,-0.1514,0.6558,-9.4902,2.3823,-0.2341,-0.0912,0.0293
12.4500,-0.3496,0.7202,-0.2357,0.6540,-9.4850,2.4035,-0.1937,-0.0922,-0.0115
12.4600,-0.3505,0.6374,-0.1949,0.6477,-9.4808,2.4218,-0.1747,-0.0908,-0.0655
12.4700,-0.2971,0.3751,-0.1317,0.6365,-9.4772,2.4390,-0.1676,-0.0869,-0.1149
12.4800,-0.1764,0.1001,-0.1472,0.6214,-9.4740,2.4549,-0.1447,-0.0850,-0.1454
12.4900,-0.0546,-0.1139,-0.3118,0.6045,-9.4720,2.4669,-0.0839,-0.0912,-0.1522
12.5000,0.0365,-0.3162,-0.5530,0.5878,-9.4717,2.4721,-0.0128,-0.0944,-0.1378
12.5100,0.1119,-0.3110,-0.6922,0.5723,-9.4727,2.4718,0.0316,-0.1025,-0.1259
12.5200,0.0554,-0.0570,-0.8220,0.5588,-9.4745,2.4684,0.0593,-0.1206,-0.0827
12.5300,0.0400,-0.2755,-0.8477,0.5512,-9.4762,2.4634,0.0645,-0.1220,0.0053
12.5400,0.1517,-0.5352,-0.7102,0.5519,-9.4770,2.4599,0.0204,-0.0712,0.0704
12.5500,0.2075,-0.2903,-0.6381,0.5587,-9.4762,2.4618,-0.0524,0.0348,0.0870
12.5600,0.2488,-0.0175,-0.6436,0.5685,-9.4736,2.4694,-0.1110,0.1595,0.0789
12.5700,0.2852,0.1037,-0.6434,0.5811,-9.4700,2.4804,-0.1415,0.2962,0.0799
12.5800,0.2572,0.0694,-0.5331,0.5987,-9.4655,2.4933,-0.1702,0.4492,0.1046
12.5900,0.1056,0.0833,-0.3280,0.6226,-9.4599,2.5087,-0.2202,0.5763,0.1328
12.6000,-0.1509,0.1881,-0.0925,0.6506,-9.4524,2.5296,-0.2992,0.6208,0.1361
12.6100,-0.3009,0.2453,0.0145,0.6763,-9.4423,2.5604,-0.4374,0.5632,0.0840
12.6200,-0.3150,0.1648,0.2718,0.6922,-9.4281,2.6080,-0.6398,0.4312,-0.0159
12.6300,-0.3158,0.0791,0.5085,0.6947,-9.4087,2.6762,-0.8429,0.2605,-0.1127
12.6400,-0.1416,-0.0709,0.1943,0.6849,-9.3849,2.7609,-0.9572,0.0768,-0.1779
12.6500,0.1255,-0.4283,-0.2510,0.6662,-9.3593,2.8509,-0.9160,-0.0973,-0.1904
12.6600,0.3285,-1.0246,-0.4565,0.6447,-9.3371,2.9278,-0.6650,-0.2104,-0.1530
12.6700,0.5380,-1.5949,-0.1986,0.6266,-9.3237,2.9741,-0.2816,-0.2097,-0.0827
12.6800,0.7204,-1.9481,0.4522,0.6173,-9.3208,2.9854,0.0510,-0.1080,0.0080
12.6900,0.8785,-2.3130,1.1197,0.6215,-9.3252,2.9707,0.2591,0.0721,0.1146
12.7000,0.8632,-1.9781,1.4985,0.6418,-9.3327,2.9425,0.3193,0.2821,0.2365
12.7100,0.4340,-0.6933,1.2262,0.6776,-9.3390,2.9144,0.2436,0.4080,0.3537
12.7200,0.0704,0.0528,0.8927,0.7257,-9.3415,2.8947,0.1379,0.4120,0.4344
12.7300,-0.2165,0.4712,0.5409,0.7777,-9.3413,2.8820,0.0951,0.3734,0.4471
12.7400,-0.5945,1.0103,0.0605,0.8256,-9.3407,2.8706,0.1210,0.3479,0.3972
12.7500,-0.7951,1.0372,0.0336,0.8665,-9.3417,2.8550,0.1765,0.3452,0.3064
12.7600,-0.9237,0.8672,0.2144,0.8985,-9.3451,2.8341,0.2211,0.3389,0.2036
12.7700,-0.9845,0.6449,0.3742,0.9221,-9.3496,2.8116,0.2030,0.2796,0.1408
12.7800,-0.9611,0.4145,0.5328,0.9402,-9.3528,2.7948,0.1198,0.1894,0.1295
12.7900,-0.7633,0.0923,0.6451,0.9563,-9.3536,2.7869,0.0353,0.1075,0.1457
12.8000,-0.4794,-0.2414,0.5679,0.9722,-9.3522,2.7859,-0.0126,0.0592,0.1621
12.8100,-0.2563,-0.4021,0.3915,0.9886,-9.3502,2.7869,0.0037,0.0724,0.1694
12.8200,-0.0608,-0.5448,0.3806,1.0057,-9.3497,2.7826,0.0899,0.1242,0.1561
12.8300,-0.0947,-0.1695,0.2381,1.0211,-9.3518,2.7697,0.1651,0.1156,0.1247
12.8400,-0.4470,0.7832,0.0157,1.0320,-9.3550,2.7549,0.1475,-0.0277,0.1096
12.8500,-0.7462,1.5050,-0.0123,1.0377,-9.3565,2.7475,0.0538,-0.2769,0.1259
12.8600,-0.7912,1.7326,-0.1030,1.0391,-9.3550,2.7523,-0.0559,-0.5106,0.1538
12.8700,-0.5059,1.6220,-0.3291,1.0378,-9.3506,2.7676,-0.1299,-0.6281,0.1694
12.8800,-0.0261,1.1234,-0.5456,1.0356,-9.3448,2.7881,-0.1546,-0.6256,0.1655
12.8900,0.3203,0.4235,-0.6479,1.0330,-9.3392,2.8075,-0.1149,-0.5349,0.1299
12.9000,0.4048,0.0239,-0.8181,1.0286,-9.3360,2.8198,-0.0379,-0.4241,0.0710
12.9100,0.2176,-0.2940,-0.7064,1.0219,-9.3351,2.8252,0.0050,-0.3457,0.0328
12.9200,-0.0151,-0.5732,-0.4321,1.0152,-9.3350,2.8279,0.0115,-0.3061,0.0345
12.9300,-0.0940,-0.6168,-0.4097,1.0109,-9.3349,2.8299,0.0115,-0.2849,0.0579
12.9400,-0.1098,-0.4331,-0.5745,1.0095,-9.3346,2.8314,0.0223,-0.2464,0.0821
12.9500,-0.0432,-0.2149,-0.6770,1.0115,-9.3347,2.8304,0.0511,-0.1304,0.0880
12.9600,0.1063,-0.1492,-0.5390,1.0177,-9.3358,2.8243,0.0907,0.0547,0.0774
12.9700,0.1755,-0.1704,-0.3305,1.0282,-9.3380,2.8135,0.1058,0.2258,0.0680
12.9800,0.1696,-0.2298,-0.1959,1.0421,-9.3400,2.8015,0.0850,0.3338,0.0656
12.9900,0.1807,-0.1828,-0.2282,1.0580,-9.3413,2.7913,0.0548,0.3666,0.0676
13.0000,0.2106,-0.1093,-0.2502,1.0743,-9.3416,2.7839,0.0243,0.3424,0.0725
13.0100,0.2280,-0.0481,-0.2577,1.0897,-9.3412,2.7792,0.0082,0.3096,0.0686
13.0200,0.2518,0.0005,-0.2016,1.1037,-9.3410,2.7744,0.0301,0.3076,0.0528
13.0300,0.2792,-0.0924,0.0517,1.1167,-9.3417,2.7670,0.0537,0.3184,0.0503
13.0400,0.2596,-0.2643,0.3019,1.1310,-9.3424,2.7589,0.0425,0.3046,0.0783
13.0500,0.1696,-0.3707,0.3696,1.1478,-9.3421,2.7528,0.0196,0.2669,0.1177
13.0600,0.0309,-0.3497,0.3001,1.1667,-9.3409,2.7491,0.0054,0.2230,0.1450
13.0700,-0.1257,-0.1989,0.1546,1.1859,-9.3391,2.7467,-0.0011,0.1782,0.1534
13.0800,-0.2369,-0.0549,0.0761,1.2040,-9.3372,2.7455,-0.0094,0.1365,0.1469
13.0900,-0.2896,-0.0210,0.1908,1.2200,-9.3350,2.7457,-0.0199,0.1038,0.1278
13.1000,-0.3095,-0.0842,0.4135,1.2326,-9.3330,2.7470,-0.0275,0.0876,0.0927
13.1100,-0.3145,-0.1331,0.5235,1.2413,-9.3313,2.7488,-0.0301,0.0800,0.0504
13.1200,-0.3247,-0.1074,0.5171,1.2461,-9.3301,2.7508,-0.0286,0.0553,0.0186
13.1300,-0.3590,0.0126,0.4333,1.2477,-9.3292,2.7531,-0.0238,0.0103,0.0059
13.1400,-0.4096,0.2481,0.2630,1.2475,-9.3286,2.7552,-0.0129,-0.0363,0.0098
13.1500,-0.4470,0.5340,0.0996,1.2474,-9.3281,2.7569,-0.0060,-0.0557,0.0273
13.1600,-0.4339,0.7406,0.0326,1.2496,-9.3274,2.7585,-0.0129,-0.0301,0.0555
13.1700,-0.4125,0.7523,0.0318,1.2557,-9.3260,2.7604,-0.0244,0.0329,0.0806
13.1800,-0.4445,0.5766,-0.0021,1.2651,-9.3241,2.7625,-0.0337,0.1062,0.0832
13.1900,-0.5076,0.3148,-0.0544,1.2754,-9.3221,2.7644,-0.0412,0.1552,0.0584
13.2000,-0.5522,0.0438,-0.0928,1.2831,-9.3204,2.7667,-0.0476,0.1638,0.0141
13.2100,-0.4758,-0.1882,-0.1193,1.2860,-9.3192,2.7692,-0.0461,0.1452,-0.0379
13.2200,-0.2628,-0.3353,-0.1552,1.2838,-9.3188,2.7715,-0.0340,0.1173,-0.0806
13.2300,0.0168,-0.3451,-0.1927,1.2778,-9.3192,2.7730,-0.0219,0.0892,-0.0985
13.2400,0.2936,-0.2218,-0.2156,1.2708,-9.3199,2.7739,-0.0155,0.0674,-0.0877
13.2500,0.4792,-0.0646,-0.2417,1.2653,-9.3205,2.7746,-0.0132,0.0543,-0.0579
13.2600,0.5245,0.0303,-0.2694,1.2625,-9.3206,2.7755,-0.0162,0.0464,-0.0264
13.2700,0.4218,0.0181,-0.2899,1.2620,-9.3202,2.7770,-0.0247,0.0430,-0.0062
13.2800,0.2333,-0.0432,-0.2947,1.2628,-9.3194,2.7793,-0.0344,0.0490,-0.0008
13.2900,-0.0004,-0.1229,-0.2605,1.2636,-9.3183,2.7825,-0.0435,0.0618,-0.0068
13.3000,-0.1641,-0.1468,-0.2371,1.2639,-9.3173,2.7858,-0.0419,0.0823,-0.0217
13.3100,-0.1769,-0.0668,-0.2310,1.2635,-9.3167,2.7880,-0.0267,0.1053,-0.0370
13.3200,-0.1167,0.0149,-0.1904,1.2626,-9.3167,2.7885,-0.0109,0.1118,-0.0403
13.3300,-0.0179,0.0591,-0.1598,1.2619,-9.3170,2.7879,-0.0009,0.0967,-0.0298
13.3400,0.0794,0.0489,-0.1104,1.2620,-9.3173,2.7868,0.0033,0.0739,-0.0139
13.3500,0.1645,-0.0367,0.0350,1.2630,-9.3174,2.7859,-0.0027,0.0674,0.0027
13.3600,0.1991,-0.1726,0.2089,1.2665,-9.3170,2.7858,-0.0134,0.0967,0.0289
13.3700,0.0693,-0.2416,0.3002,1.2728,-9.3161,2.7857,-0.0099,0.1240,0.0401
13.3800,-0.0921,-0.1762,0.3354,1.2782,-9.3156,2.7848,-0.0022,0.1064,0.0103
13.3900,-0.0468,-0.0572,0.3259,1.2790,-9.3157,2.7844,-0.0094,0.0664,-0.0373
13.4000,0.1345,0.0763,0.2176,1.2751,-9.3159,2.7856,-0.0250,0.0352,-0.0653
13.4100,0.2709,0.1563,0.0811,1.2697,-9.3157,2.7886,-0.0439,0.0166,-0.0534
13.4200,0.3075,0.0827,-0.0471,1.2666,-9.3146,2.7935,-0.0587,0.0198,-0.0117
13.4300,0.3000,0.0023,-0.1204,1.2686,-9.3128,2.7988,-0.0589,0.0467,0.0360
13.4400,0.0690,-0.0900,-0.1289,1.2749,-9.3106,2.8032,-0.0484,0.0754,0.0634
13.4500,-0.2696,-0.1530,-0.0940,1.2826,-9.3086,2.8065,-0.0376,0.0808,0.0554
13.4600,-0.4012,-0.0985,-0.0026,1.2874,-9.3071,2.8090,-0.0322,0.0468,0.0110
13.4700,-0.3348,-0.0379,0.0678,1.2859,-9.3064,2.8120,-0.0365,-0.0085,-0.0483
13.4800,-0.1639,0.0650,0.0318,1.2781,-9.3061,2.8166,-0.0483,-0.0574,-0.0850
13.4900,-0.0760,0.1335,-0.0274,1.2677,-9.3057,2.8226,-0.0586,-0.0801,-0.0853
