seconds_elapsed,acc_z,acc_y,acc_x,grav_z,grav_y,grav_x,gyro_z,gyro_y,gyro_x
22.07,2.735827287038167,-0.11411190032958984,-1.2576678395271301,-3.5315001805623374,-9.140575408935547,0.3231311043103536,0.5137376884619395,0.8583929340044657,-2.2062925497690835
22.08,4.34060517946879,0.1492528915405273,-0.902525782585144,-3.6694304148356123,-9.086309432983398,0.3167444268862406,0.5051855643590292,0.7523060043652853,-2.010815699895223
22.09,5.632107734680176,0.5031582514444987,-0.27218301097551983,-3.897109349568685,-8.99329694112142,0.2881443599859873,0.45265114307403564,0.276238352060318,-1.5418748259544373
22.1,5.3188323974609375,0.5936988194783528,0.00301770369211829,-3.9868580500284834,-8.954550425211588,0.265930970509847,0.4086688458919525,-0.09374237060546875,-1.2684108018875122
22.11,4.640569686889648,0.6671991348266602,0.4966451972723007,-4.117436647415161,-8.897566795349121,0.21682693809270856,0.2880229651927948,-0.48174360394477844,-0.9567677080631256
22.12,3.677257537841797,0.819000244140625,0.7778156995773315,-4.1944050788879395,-8.86262035369873,0.16909107565879822,0.13286319375038144,-0.4344015419483185,-0.9075930416584015
22.13,3.757066488265991,0.8973531723022461,0.810571700334549,-4.26703143119812,-8.828445434570312,0.13753215968608856,0.0,-0.27099509537219996,-0.8987354934215546
22.14,4.568627595901489,0.8098437786102295,0.7737261056900024,-4.3411784172058105,-8.79241132736206,0.1252966560423374,-0.10781771689653395,-0.23739750683307645,-0.8617781698703766
22.15,4.66667103767395,0.9530646800994873,0.6300174593925476,-4.414082765579224,-8.756067276000977,0.1241561025381088,-0.22449297457933426,-0.45120035111904144,-0.797942727804184
22.16,4.818612813949585,1.4468963146209717,0.2415018044412136,-4.483424663543701,-8.720780372619629,0.12361395731568335,-0.3543018400669098,-0.7654905319213867,-0.7530441284179688
22.17,5.138882398605347,2.196558713912964,-0.19282690063118935,-4.549908876419067,-8.686341762542725,0.11980375275015831,-0.47311514616012573,-1.123762995004654,-0.7231117486953735
22.18,5.078344106674194,2.8739638328552246,-0.5497975051403046,-4.613868951797485,-8.652668952941895,0.10926438495516774,-0.5552765130996704,-1.5147167444229126,-0.7005097270011902
22.19,4.6854002475738525,3.417891502380371,-0.8361816704273224,-4.675823211669922,-8.619594097137451,0.0867965333163738,-0.6093380749225616,-1.8473328948020935,-0.6629415154457092
22.2,4.2421287298202515,3.9538674354553223,-1.0458490550518036,-4.734137058258057,-8.587994575500488,0.0522553827613592,-0.6527095139026642,-2.050140142440796,-0.5926920175552368
22.21,3.8674157857894897,4.447549819946289,-1.2460194826126099,-4.785592079162598,-8.559591293334961,0.010611411184072501,-0.6679811477661133,-2.117640733718872,-0.385303258895874
22.22,3.606830358505249,4.812225341796875,-1.5055112838745117,-4.818296432495117,-8.541194438934326,-0.03396042995154855,-0.6542366743087769,-2.097482204437256,-0.08261952176690099
22.23,3.3074413537979126,5.065997123718262,-1.753546714782715,-4.8241682052612305,-8.53758955001831,-0.07921469956636425,-0.6331618130207062,-2.0376173853874207,0.2081523351371288
22.24,2.9188992977142334,5.28853178024292,-1.8723372817039492,-4.804333209991455,-8.548237323760986,-0.12322978675365445,-0.6172793209552765,-1.9273561835289004,0.5102251917123795
22.25,2.3960254192352295,5.47179388999939,-1.9287816882133484,-4.75790548324585,-8.573482036590576,-0.162553496658802,-0.6191119253635406,-1.7679203748703003,0.8040513694286346
22.26,1.8317623138427734,5.642481088638306,-1.9487531185150146,-4.685650825500488,-8.612488269805908,-0.192860372364521,-0.6163630187511444,-1.5535066723823547,1.0893254578113556
22.27,1.3633922338485718,5.603182792663574,-1.8233494758605957,-4.588382005691528,-8.664169788360596,-0.21172201633453364,-0.5806274116039276,-1.3082442879676819,1.3483323454856873
22.28,0.8051490783691406,5.143496513366699,-1.6074175834655762,-4.4682776927948,-8.726419448852539,-0.22055545449256891,-0.5314527750015259,-1.1017718315124512,1.5569428205490112
22.29,-0.8265956242879231,3.9532725016276045,-1.4796710809071858,-4.299489974975586,-8.809611320495605,-0.22021209696928656,-0.4976515571276347,-0.8746317426363627,1.7492635250091553
22.3,-2.108242670694987,3.0828746159871425,-1.4512592951456706,-4.195889949798584,-8.859484672546387,-0.21749923129876453,-0.4864523609479268,-0.7339291175206502,1.8484272956848145
22.31,-5.213436126708984,1.1769690513610842,-1.349642038345337,-4.004539370536804,-8.948846817016602,-0.20539193600416178,-0.47647489607334137,-0.4386775940656662,1.9488128423690794
22.32,-8.849071979522705,-1.430882453918457,-1.309307873249054,-3.8285248279571524,-9.026092529296875,-0.17988559603691096,-0.461814135313034,-0.019624046981334686,1.6476563215255735
22.33,-10.721222877502441,-2.9785308837890625,-1.3665362000465393,-3.6801995038986206,-9.088544845581056,-0.13941665738821024,-0.3622431010007858,0.41867177933454514,1.0175487995147705
22.34,-9.18083143234253,-5.935420989990234,-1.8308255672454832,-3.5889426469802856,-9.125753402709961,-0.0917184986174106,-0.10720685496926308,0.587270587682724,0.43386703729629517
22.35,-6.482219696044922,-9.19758939743042,-1.901064097881317,-3.549784779548645,-9.14139699935913,-0.06098433770239345,0.18387043103575706,0.39270999282598495,-0.09147706627845767
22.36,-4.66121780872345,-8.274420738220215,-0.9070022255182266,-3.5583759546279907,-9.138010025024414,-0.0638465974479913,0.27458392083644867,-0.11308642476797104,-0.6485861539840698
22.37,-3.591849207878113,-5.805473327636719,0.028415217995643616,-3.6173914670944214,-9.1144437789917,-0.0930586643517017,0.1279762689955532,-0.6741661578416824,-1.1085676848888397
22.38,-3.0992183685302734,-3.5345816612243652,0.5234098434448242,-3.7173731327056885,-9.073584079742432,-0.12956366688013077,-0.11301007075235249,-1.0538189113140106,-1.3205379247665405
22.39,-2.948953866958618,-1.6054835319519043,0.7757559716701508,-3.8353159427642822,-9.023874282836914,-0.15924905240535736,-0.34758231788873667,-1.232496976852417,-1.3116803765296936
22.4,-3.056824207305908,-0.13441038131713867,0.9086371064186096,-3.951303482055664,-8.973432064056396,-0.17601138353347776,-0.5488624274730682,-1.2868639826774597,-1.1968377232551575
22.41,-3.475102663040161,0.765587329864502,1.0044333934783936,-4.056158065795898,-8.926523208618164,-0.178433783352375,-0.7137960493564606,-1.3314571380615234,-1.0997101664543152
22.42,-4.234227895736694,1.554884672164917,0.8806344270706178,-4.1517627239227295,-8.882638454437256,-0.16955650597810745,-0.8243626356124878,-1.3580297827720642,-1.0520626902580261
22.43,-5.08889102935791,1.9873170852661133,0.3498417735099793,-4.242809295654297,-8.839821815490723,-0.1535172238945961,-0.8200865685939789,-1.231580674648285,-0.9824240505695343
22.44,-5.1907594203948975,1.3335130214691162,-0.48978757858276367,-4.327688932418823,-8.798933506011963,-0.13390198349952695,-0.6447682678699493,-0.7169266939163209,-0.7454083263874054
22.45,-5.060352802276611,-0.6230707168579102,-1.4705916047096252,-4.392254829406738,-8.767287731170654,-0.10838438943028444,-0.3992004543542862,-0.14454598166048532,-0.47998736798763275
22.46,-5.186067342758179,-3.7970104217529297,-1.9804447293281557,-4.434134244918823,-8.746511459350586,-0.07976575568318364,-0.22082778811454767,0.042989641427993705,-0.3892738819122314
22.47,-4.188344955444336,-7.1518425941467285,-0.8811733126640322,-4.468190431594849,-8.729345798492432,-0.058550827205181094,-0.17837265133857721,0.1477530319243669,-0.3691153228282928
22.48,0.9628612995147705,-7.972910404205322,0.4649167358875274,-4.500443935394287,-8.712879657745361,-0.03635463211685415,-0.29107728600502014,0.9006444737315178,-0.22464568912982935
22.49,8.230974912643433,-4.808186054229736,-0.47739002108573914,-4.519813060760498,-8.702743530273438,0.029674275778233998,-0.4034764915704727,2.226832926273346,0.14645494520664215
22.5,11.60352897644043,-0.1367638111114502,-2.850326657295227,-4.504421949386597,-8.708913803100586,0.16522943228483195,-0.40256020426750183,3.108616828918457,0.4818199723958969
22.51,10.892683506011963,2.6526951789855957,-4.912591934204102,-4.454375743865967,-8.729478359222412,0.33951691538095474,-0.36926804482936854,3.1232775449752808,0.40973787009716034
22.52,7.471314191818237,3.5836024284362793,-7.427399158477783,-4.404192209243774,-8.746848106384277,0.5090536922216415,-0.33841934800148005,2.4543801546096806,0.026419922709465055
22.53,3.6843414306640625,3.507739782333374,-9.59344482421875,-4.383448362350464,-8.748796939849854,0.6412250399589539,-0.19242255762219426,1.3774247765541077,-0.35964691638946533
22.54,1.5702282190322876,2.7673606872558594,-8.83486819267273,-4.400174617767334,-8.735207557678223,0.7098452746868134,0.07147123292088504,0.23693935573101044,-0.4787656366825104
22.55,1.089275598526001,2.13289213180542,-5.848245143890381,-4.4363696575164795,-8.717246055603027,0.7053501605987549,0.4037819132208824,-0.0043524205684661865,0.042913287878036555
22.56,2.5254967212677,1.3289530277252197,-3.1156108379364014,-4.430084228515625,-8.72374439239502,0.6627510786056519,0.7214318513870239,0.8853728026151657,0.8208501636981964
22.57,4.604771971702576,0.4991729259490966,-1.90633624792099,-4.35098671913147,-8.765453815460205,0.6338179707527161,0.9847147762775421,2.0020344257354736,1.3431399464607239
22.58,6.115464687347412,-0.2506446838378906,-2.0072779059410095,-4.21925687789917,-8.829664707183838,0.6306120157241821,1.2586878538131714,2.8199830055236816,1.6836973428726196
22.59,7.22605299949646,-1.3806252479553223,-2.3448243141174316,-4.051341414451599,-8.907558917999268,0.6341672241687775,1.492954671382904,3.159013271331787,1.8632917404174805
22.6,8.65589690208435,-3.343502998352051,-2.2463033199310303,-3.862555503845215,-8.991723537445068,0.6230345666408539,1.6047430038452148,2.9067258834838867,1.9029979705810547
22.61,9.809024810791016,-5.585737705230713,-1.5994811058044434,-3.6675981283187866,-9.075605392456055,0.5831425786018372,1.4999796152114868,1.9174296259880066,1.791209638118744
22.62,9.34761095046997,-6.735177993774414,-0.41953618824481964,-3.48989737033844,-9.149752140045166,0.5129100829362869,1.178053617477417,0.37224602699279785,1.5712981224060059
22.63,7.2881669998168945,-6.2185258865356445,0.9405391663312912,-3.343570351600647,-9.20911169052124,0.4181703180074692,0.7968737185001373,-1.2004265785217285,1.409113347530365
22.64,3.894981026649475,-4.513542652130127,2.1651092767715454,-3.2174220085144043,-9.258354663848877,0.30570685118436813,0.5024366676807404,-2.337246835231781,1.4472924470901487
22.65,0.14967262744903564,-2.7199387550354004,3.173398971557617,-3.088555097579956,-9.305238723754883,0.18566592782735825,0.3054326251149177,-2.785011053085327,1.6748397946357727
22.66,-2.655982494354248,-1.400238037109375,3.755002975463867,-2.9358251094818115,-9.356012344360352,0.07332549337297675,0.1588249653577804,-2.4991260766983032,1.9280434250831604
22.67,-3.7543482780456543,-0.5505142211914062,3.7993996143341064,-2.7557854652404785,-9.410861015319824,-0.012969664297997952,0.019242256879806505,-1.3332897424697876,1.9689713716506958
22.68,-3.065181016921997,-0.01917409896850586,3.313153028488159,-2.5697224140167236,-9.463360786437988,-0.05105316638946525,-0.1041525229811668,-0.0028252452611923218,1.7854064106941223
22.69,-1.672175645828247,0.30306577682495117,2.5340112447738647,-2.4003615379333496,-9.50787353515625,-0.041647186502814196,-0.2202169150114059,0.7506770044565201,1.5544993877410889
22.7,-0.35964953899383556,0.8050284385681152,1.7116541862487793,-2.2524245977401733,-9.544164180755615,-0.0033912500366568496,-0.3729332238435745,1.0906234979629517,1.3816245198249817
22.71,0.9420145750045777,1.5031394958496094,0.9618319571018219,-2.1199618577957153,-9.574292659759521,0.0569008691236376,-0.5167919844388962,1.132773220539093,1.3220651149749756
22.72,2.1471885442733765,2.0697531700134277,0.3841600716114044,-1.991565465927124,-9.601013660430908,0.13418460264801976,-0.6001750826835632,0.9727265536785125,1.3675745725631714
22.73,2.809289813041687,2.4818782806396484,-0.14916764199733734,-1.8563975095748901,-9.62647533416748,0.2185994982719421,-0.6194173395633698,0.6630178838968277,1.4714216589927673
22.74,2.7948323488235474,2.608581781387329,-0.5342753678560257,-1.710258960723877,-9.6514253616333,0.29605230689048767,-0.5977316200733185,0.34261905401945114,1.5517504215240479
22.75,2.4486836194992065,2.4645347595214844,-0.8410674035549164,-1.5580406188964844,-9.674972534179688,0.3610299527645111,-0.5491678416728973,0.1214858293533325,1.5529721975326538
22.76,1.930244565010071,2.315469980239868,-1.0601659417152405,-1.4071115255355835,-9.69589614868164,0.41612567007541656,-0.4688390791416168,-0.008017605170607553,1.5050192475318909
22.77,1.3508841395378113,2.1850903034210205,-1.0768612027168274,-1.2611016035079956,-9.713956832885742,0.46155135333538055,-0.3704897761344909,-0.10209085606038565,1.4555391073226929
22.78,0.78970405459404,1.9049890041351318,-1.0661999583244324,-1.120103895664215,-9.729539394378662,0.49637994170188904,-0.24648413062095637,-0.22731823474168775,1.4057536125183105
22.79,0.11291667819023127,1.473233699798584,-0.946599155664444,-0.9844061136245728,-9.7431058883667,0.5180370509624481,-0.1386664137244224,-0.32872186601161957,1.3568844199180603
22.8,-0.5958487093448639,1.0887541770935059,-0.7152903974056244,-0.8538404405117035,-9.754866600036621,0.5285426676273346,-0.08155051246285436,-0.32230778038501734,1.2936598658561707
22.81,-1.1752950847148895,0.8914937973022461,-0.47048255801200867,-0.7292924225330353,-9.76470422744751,0.5339289009571075,-0.044898596592247444,-0.20654881373047826,1.210582196712494
22.82,-1.554608702659607,0.8598952293395996,-0.2543726861476898,-0.6121438443660736,-9.772610187530518,0.5368884801864624,-0.0222965814173221,-0.005268711596727399,1.125977337360382
22.83,-1.652688205242157,0.9965496063232422,-0.1750572919845581,-0.5020932108163834,-9.778780937194824,0.5389759540557861,-0.0018325955606996996,0.221362292766571,1.0407616198062897
22.84,-1.5318253636360168,1.2454586029052734,-0.28032223880290985,-0.39909826219081873,-9.783481121063232,0.5400931239128113,0.025656341109424753,0.4247804284095764,0.9796751141548157
22.85,-1.3450648784637451,1.5483126640319824,-0.4600219577550888,-0.30094876885414124,-9.787059783935547,0.5390306115150452,0.06291911937296385,0.5655848681926727,0.9619600474834442
22.86,-1.135797917842865,1.7545886039733887,-0.5653921067714691,-0.20375790446996686,-9.789828777313232,0.5342674851417542,0.1102611720561981,0.6401104032993317,0.9915870428085327
22.87,-0.8675672709941864,1.83449387550354,-0.5783064067363739,-0.10328151471912855,-9.791922569274902,0.5244368612766266,0.16340644657611847,0.6694319248199463,1.0590876340866089
22.88,-0.5605390071868896,1.8106963634490967,-0.5207400470972061,0.003887144848704352,-9.793264389038086,0.5087690353393555,0.2220495119690895,0.6477462351322174,1.1293371319770813
22.89,-0.4074158370494842,1.6387057304382324,-0.4076328426599502,0.11771745234727854,-9.793656349182129,0.48664151132106775,0.29596421122550964,0.5387067943811417,1.2142474055290222
22.9,-0.5576180219650269,1.283559799194336,-0.2221099883317947,0.2391892075538635,-9.79285192489624,0.45674176514148707,0.3591887652873993,0.37835465371608734,1.3022119998931885
22.91,-0.9274126291275024,0.7388749122619629,0.1098392605781555,0.3683664947748184,-9.790453433990479,0.42047642171382904,0.39675697684288025,0.2286926731467247,1.3779593110084534
22.92,-1.318200945854187,0.2268476486206054,0.6583866029977798,0.5041723549365997,-9.785996913909912,0.3806969225406647,0.4254676401615143,0.10682505927979945,1.4414892792701721
22.93,-1.6104468703269958,-0.19532299041748052,1.3889203667640686,0.6455836296081543,-9.779220581054688,0.3384961932897568,0.4434881657361984,0.02955060696694995,1.4295774102210999
22.94,-1.7170080542564392,-0.5871233940124512,1.9816913604736328,0.7844664752483368,-9.770492553710938,0.29519452154636383,0.43615779280662537,-0.00435241486411545,1.307404339313507
22.95,-1.6796622276306152,-1.0455775260925293,2.1618670225143433,0.9087292551994324,-9.760951042175293,0.2538825571537017,0.3799581825733184,-0.02939789043739435,1.0945177674293518
22.96,-1.8098118305206299,-1.5644927024841309,1.9584797024726868,1.0089513957500458,-9.75200080871582,0.22024390846490854,0.25778512656688685,-0.07826711051166055,0.8721628487110138
22.97,-2.3552767038345337,-1.8140215873718262,1.5997514128684998,1.0851527452468872,-9.74428653717041,0.200688287615776,0.09987646713852874,-0.1390482001006603,0.7212791442871094
22.98,-3.2339892387390137,-1.7564263343811035,1.4336853623390198,1.1474424600601196,-9.73723840713501,0.19676599651575083,-0.007635815069079399,-0.16653713583946225,0.6302602291107178
22.99,-4.011904239654541,-1.7656927108764648,1.651118516921997,1.2035056352615356,-9.730366230010986,0.20199352502822876,-0.019547687028534648,-0.1109484005719423,0.5111415088176727
23.0,-4.20869255065918,-1.9955716133117676,2.0681446194648743,1.2506564259529114,-9.724345207214355,0.20634689927101135,0.02840523316990585,0.009697483852505656,0.2952006310224533
23.01,-3.9532206058502197,-2.337948799133301,2.3437561988830566,1.27889746427536,-9.720747470855713,0.2036744654178619,0.08827002905309195,0.12240212038159365,-0.0465784817934036
23.02,-3.6999356746673584,-2.745394706726074,2.30481219291687,1.2746093273162842,-9.721512794494629,0.19353739172220225,0.11148291081190104,0.18135061860084528,-0.2964223623275757
23.03,-3.5732829570770264,-3.2454299926757812,2.0174583196640015,1.2461188435554504,-9.725456714630127,0.1804188191890716,0.0705549381673336,0.18318321555852884,-0.3168863356113434
23.04,-3.7007923126220703,-4.045849800109863,1.6435043811798096,1.215610921382904,-9.729488849639893,0.17130042612552634,-0.02779436856508255,0.126678179949522,-0.24694226682186124
23.05,-4.117519855499268,-4.657040596008301,1.085678219795227,1.1918053030967712,-9.732410907745361,0.1724747344851493,-0.16768250986933705,0.0429896416608244,-0.20234911143779755
23.06,-4.429496765136719,-4.380823135375977,0.346822552382946,1.172185242176056,-9.734492301940918,0.18828152120113364,-0.2898555621504783,0.0075594575610011495,-0.2906191498041153
23.07,-4.244401931762695,-3.459890842437744,-0.16972602158784864,1.1439105868339539,-9.737248420715332,0.21641294658184046,-0.3054326325654983,0.049709161277860354,-0.534659817814827
23.08,-3.428690195083618,-2.4969725608825684,-0.17259515821933744,1.0919493436813354,-9.742486000061035,0.24561829864978785,-0.20280726999044413,0.13187053799629206,-0.9036224186420441
23.09,-2.245592474937439,-1.8955326080322266,0.0963049381971359,1.004198968410492,-9.751360893249512,0.2640224099159241,-0.07299839891493315,0.16271922737359995,-1.3617713451385498
23.1,-1.2141212821006775,-1.441391944885254,0.16733634471893305,0.8717504739761353,-9.763771057128906,0.26960545778274536,-0.0100792762823402,0.055206943303346606,-1.86817866563797
23.11,-0.3206270635128021,-0.6190237998962402,-0.29041868448257446,0.6893341243267059,-9.778096199035645,0.27006796002388,-0.0543670081533491,-0.19158260896801946,-2.3935227394104004
23.12,0.7317459881305695,0.057399272918701144,-1.199268877506256,0.4545809328556061,-9.791325569152832,0.27630408108234406,-0.1744020283222198,-0.5678755939006805,-2.9436068534851074
23.13,2.0153295397758484,-0.39888668060302745,-1.889359951019287,0.16459106211550528,-9.799514770507812,0.2948215901851654,-0.2629774883389473,-0.8516224920749664,-3.264922022819519
23.14,3.0980414152145386,-1.9271559715270996,-1.7319071292877197,-0.15796178276650608,-9.798746109008789,0.3205252140760422,-0.3176499307155609,-0.8595637381076813,-3.1845932006835938
23.15,3.423570394515991,-3.338685989379883,-0.9714957475662231,-0.472716823220253,-9.787824153900146,0.34900327026844025,-0.4337143301963806,-0.6509532630443573,-2.8895453214645386
23.16,3.3314192295074463,-3.926440715789795,-0.430717408657074,-0.7576523125171661,-9.76869249343872,0.38762176036834717,-0.5876523554325104,-0.27679830975830555,-2.553874969482422
23.17,3.17228102684021,-4.1356072425842285,-0.5481257736682892,-1.007922649383545,-9.743879318237305,0.44278089702129364,-0.6798930168151855,0.1340085696429014,-2.281123638153076
23.18,2.78062903881073,-4.761739253997803,-1.2552416622638702,-1.2291863560676577,-9.715250015258787,0.5106449127197266,-0.6591235995292664,0.42844562232494354,-2.11588454246521
23.19,1.9731391072273254,-5.435217380523682,-2.2299844622612,-1.4320495128631592,-9.683567523956299,0.5803793966770172,-0.5592471212148666,0.46448665857315063,-2.11588454246521
23.2,1.000454604625702,-5.224358081817627,-2.894441604614258,-1.6337209939956665,-9.647674560546875,0.6414977312088013,-0.408974289894104,0.18501580506563192,-2.3177754878997803
23.21,0.25150740146636963,-4.160189151763916,-3.117578625679016,-1.8556225299835205,-9.604375839233398,0.683872640132904,-0.19517145305871964,-0.29023735970258707,-2.61771023273468
23.22,-0.48699951171874994,-2.760324478149414,-3.349290132522583,-2.108315110206604,-9.550960063934326,0.6965146660804749,0.06505715101957321,-0.7040985524654388,-2.834567427635193
23.23,-1.2155612707138062,-1.7462544441223142,-3.290008068084717,-2.3829238414764404,-9.4876389503479,0.6743426024913788,0.34025195240974426,-0.8094727993011475,-2.8522825241088867
23.24,-1.6780740022659302,-1.285585880279541,-2.727589726448059,-2.6578251123428345,-9.417992115020752,0.6218892335891724,0.5357288271188736,-0.5290856659412384,-2.723389983177185
23.25,-1.8624260425567627,-0.9368710517883302,-2.589879631996155,-2.9165501594543457,-9.345327854156494,0.5572023689746857,0.5723807215690613,-0.08284860104322433,-2.615266919136047
23.26,-0.8523679971694946,-0.7774362564086914,-2.8300254344940186,-3.160463809967041,-9.268933773040771,0.5016643106937408,0.578489363193512,0.3948480263352394,-2.5392141342163086
23.27,1.8056097030639648,-0.9152684211730957,-2.6103272438049316,-3.3929654359817505,-9.188562393188478,0.4615313410758972,0.6432410776615143,0.7094436287879944,-2.3452643156051636
23.28,5.309122562408447,-1.1714792251586914,-1.6976925134658811,-3.604450821876526,-9.109522342681887,0.427568569779396,0.6520986258983612,0.5817727893590927,-1.9582812190055847
23.29,6.636115074157715,-1.2253365516662598,-0.4507613778114319,-3.7798322439193726,-9.040102481842043,0.38970921933650965,0.5106833428144455,0.005726858973503057,-1.4335480332374573
23.3,4.976830959320068,-0.7995247840881348,0.6260424256324767,-3.9090168476104736,-8.98707389831543,0.34360928833484644,0.25595254451036453,-0.6356816589832306,-1.0490083396434784
23.31,3.6675045490264893,-0.23439693450927734,1.323128044605255,-4.005086898803711,-8.946468830108643,0.29535233974456787,0.00549778714776035,-0.853455126285553,-0.9805914461612701
23.32,3.47708523273468,0.21497678756713867,1.5990708470344543,-4.093592166900635,-8.90742540359497,0.2600267603993415,-0.15821409597992894,-0.7410559058189392,-1.0514518022537231
23.33,3.9795764684677124,0.5455245971679688,1.6317711472511292,-4.184280633926392,-8.86567497253418,0.24288871884346003,-0.24740041792392725,-0.5871178507804871,-1.1223121285438538
23.34,4.725626230239868,0.7934939861297607,1.4925333857536316,-4.2767133712768555,-8.82155179977417,0.2396715134382248,-0.29718594253063196,-0.5248095989227295,-1.133918583393097
23.35,4.475240707397461,1.381462812423706,0.8112683147192001,-4.368698835372925,-8.776254177093506,0.24337752908468246,-0.3203988224267959,-0.6821073889732361,-1.1131491661071777
23.36,4.057422637939453,2.117300510406494,-0.3481277972459793,-4.462042808532715,-8.729187965393066,0.24158582091331482,-0.28313603997230524,-0.8833874762058258,-1.1146763563156128
23.37,4.250574827194214,2.479030132293701,-1.2595784664154053,-4.559426784515381,-8.679114818572998,0.22648046165704724,-0.20861048251390454,-1.0186941623687744,-1.1128438115119934
23.38,4.496271371841431,2.690664291381836,-1.7513867020606995,-4.657879829406738,-8.627386569976807,0.1975498422980308,-0.1823432743549347,-1.2001211643218994,-1.068250596523285
23.39,4.799773454666138,2.8603622913360596,-1.9643512964248662,-4.75188946723938,-8.576817989349365,0.15672902762889857,-0.23060163110494614,-1.4108696579933167,-0.9332493543624878
23.4,4.771338224411011,3.046419620513916,-1.9894261360168461,-4.833587646484375,-8.531835079193115,0.10878069698810569,-0.3484986275434494,-1.649717926979065,-0.717613935470581
23.41,4.280742168426514,3.368016004562378,-1.9136462211608887,-4.896052122116089,-8.496695518493652,0.0581399090588092,-0.5018257945775986,-1.8277851343154907,-0.44913865625858307
23.42,3.7376861572265625,3.861912250518799,-1.695173740386963,-4.934787034988403,-8.474491596221924,0.01085281884297725,-0.6285803318023682,-1.8635208010673523,-0.13790282607078555
23.43,3.477480173110962,4.4466872215271,-1.5294536352157593,-4.946322917938232,-8.467749118804932,-0.02797463396564125,-0.6963863670825958,-1.7715855836868286,0.1779145002365112
23.44,3.3575109243392944,4.801721572875977,-1.6398287415504456,-4.930501461029053,-8.476821422576904,-0.05646320804953575,-0.7141014635562897,-1.6002378463745117,0.4466951936483383
23.45,3.2131824493408203,4.960566759109497,-1.9199157357215881,-4.891517877578735,-8.499197006225586,-0.0744543522596359,-0.7101308405399323,-1.3913219571113586,0.6635523438453674
23.46,3.0119372606277466,5.019694089889526,-2.1281739473342896,-4.833924770355225,-8.531988143920898,-0.08167422190308565,-0.6942483484745026,-1.1949288249015808,0.8648324608802795
23.47,2.5910215377807617,5.107187509536743,-2.2092137336730957,-4.758971214294434,-8.573991775512695,-0.07964301109313959,-0.66584312915802,-0.9872346222400665,1.1253664791584015
23.48,2.0529136657714844,5.297077894210815,-2.1839985847473145,-4.661396503448486,-8.62741231918335,-0.06894523650407786,-0.6203336715698242,-0.7764860987663269,1.361465871334076
23.49,1.4700565338134766,5.227191925048828,-2.0642459392547607,-4.5430145263671875,-8.690404415130615,-0.0510312467813491,-0.5561928153038025,-0.5941428244113922,1.514487624168396
23.5,0.7941675186157227,4.817529201507568,-2.0310349464416504,-4.410609245300293,-8.758385181427002,-0.02917553484439845,-0.49357911944389343,-0.37942367792129517,1.675450623035431
23.51,-0.15310001373291016,3.9970202445983887,-2.117738127708435,-4.263154745101929,-8.831063270568848,-0.0023274202831089497,-0.43768495321273804,-0.08590292558073997,1.8544341325759885
23.52,-1.4622135162353516,2.739492893218994,-2.164782404899597,-4.098619222640991,-8.908452987670898,0.0327457929961383,-0.3964515477418899,0.26198482885956764,2.0297524333000183
23.53,-3.6887292861938477,1.038069725036621,-2.0166563987731934,-3.9167513847351074,-8.989512920379639,0.07855009660124775,-0.37568213045597076,0.5371796190738678,2.1302398443222046
23.54,-7.092325210571289,-1.6438684463500979,-1.6352619528770447,-3.7237801551818848,-9.070483684539795,0.13290040567517275,-0.35705073177814484,0.6227007508277893,2.019367814064026
23.55,-9.688142776489258,-5.075056076049805,-1.3899354934692383,-3.538923978805542,-9.143359661102295,0.188046246767044,-0.2938261777162552,0.5793293118476868,1.5887077450752258
23.56,-9.534026145935059,-8.20140027999878,-1.3121923208236694,-3.3925684690475464,-9.197862148284912,0.23480156809091565,-0.10659598466008904,0.47914741933345795,0.9283624291419984
23.57,-7.6569414138793945,-9.736361026763916,-0.7129113897681236,-3.3064075708389282,-9.228709697723389,0.2604072839021683,0.20250182691961524,0.2668717578053474,0.25305091589689255
23.58,-5.98588228225708,-8.577064990997314,0.17086464911699295,-3.2823716402053833,-9.23759126663208,0.2505148351192474,0.3439171314239502,-0.2135737612843514,-0.5227479413151741
23.59,-4.90536093711853,-5.726459980010986,0.5700847804546356,-3.330992341041565,-9.22098970413208,0.21162205934524536,0.19394971430301666,-0.662254273891449,-1.1595749855041504
23.6,-4.080378174781799,-3.0514330863952637,0.5960729122161865,-3.438911557197571,-9.182039737701416,0.1712687164545059,-0.04520402848720549,-0.7612144351005554,-1.3590224981307983
23.61,-3.5141619443893433,-1.0257163047790527,0.5970651209354401,-3.5645946264266968,-9.13437795639038,0.14872867614030832,-0.2724459022283554,-0.6979898810386658,-1.3125967383384705
23.62,-3.3636096715927124,0.5651726722717285,0.7711170613765717,-3.685219407081604,-9.086435794830322,0.14825637638568873,-0.46853363513946533,-0.6362924873828888,-1.1479685306549072
23.63,-3.6667466163635254,1.600154161453247,0.9523574113845825,-3.7902936935424805,-9.042829513549805,0.16693185269832606,-0.6233879625797272,-0.6747770011425018,-1.001360833644867
23.64,-4.095877766609192,2.223815441131592,1.0321611762046814,-3.8819013833999634,-9.003296852111816,0.1972613781690597,-0.7055493593215942,-0.7181484401226044,-0.8999572098255157
23.65,-4.50785756111145,2.558109998703003,0.9897608458995819,-3.9643242359161377,-8.966490268707275,0.23247911781072617,-0.684474527835846,-0.6188828349113464,-0.7579310536384583
23.66,-4.5498058795928955,2.1574134826660156,0.48515081405639643,-4.033706426620483,-8.934500694274902,0.26902270317077637,-0.5674938261508942,-0.32902728021144867,-0.5590944141149521
23.67,-3.943645477294922,-0.2624187469482422,-0.23087334632873538,-4.086008230845134,-8.909269014994303,0.31147813796997065,-0.37995818754037214,-0.046502118309338855,-0.3802127093076706
23.68,-3.5450658798217773,-2.2286319732666016,-0.5407196879386902,-4.107899983723958,-8.898320515950521,0.3356164097785949,-0.27183503905932105,0.04085161288579309,-0.3073161244392395
23.69,-2.1858155727386475,-5.619909286499023,-0.3337576240301132,-4.139964580535889,-8.882219314575195,0.36967064440250397,-0.17776178568601606,0.12942707538604736,-0.2377792969346046
23.7,1.3424509763717651,-7.20838737487793,0.22209699451923365,-4.160576105117798,-8.871670246124268,0.39081864058971405,-0.31520646810531616,0.999910034239292,-0.06765332445502278
23.71,6.000764489173889,-5.868091583251953,-0.8482470512390134,-4.162017822265625,-8.867472171783447,0.46038633584976196,-0.4792237877845764,2.4119250178337097,0.3251330293715
23.72,8.755270957946777,-2.9301881790161133,-2.9346174001693726,-4.11994743347168,-8.878314018249512,0.6026649475097656,-0.5241223871707916,3.053028106689453,0.5853616297245026
23.73,9.134645938873291,-0.4534587860107422,-4.512434124946594,-4.046818017959595,-8.898592472076416,0.7738880515098572,-0.5192354619503021,2.8883999586105347,0.4628831446170807
23.74,7.501796722412109,1.2534425258636472,-6.097002983093262,-3.981122970581055,-8.912793159484863,0.9361512959003448,-0.45692719519138336,2.091831684112549,0.03649919480085373
23.75,5.2710981369018555,2.3245575428009033,-7.936911582946777,-3.9566813707351685,-8.91010856628418,1.059267818927765,-0.2565633989870548,0.9226355999708176,-0.3908010497689247
23.76,3.036750078201294,2.9867260456085205,-8.232055425643921,-3.9788684844970703,-8.893520832061768,1.1149916052818298,0.0513126812875271,-0.26122124493122106,-0.46532660722732544
23.77,0.8652968406677246,3.152479887008667,-6.406237840652466,-4.018460392951965,-8.878512382507324,1.0921575427055359,0.3197879493236542,-0.8051967322826385,-0.138513695448637
23.78,0.5544283390045166,2.659654378890991,-4.264135122299194,-4.035597562789917,-8.878892421722412,1.023583173751831,0.5296201556921005,-0.33971742168068886,0.31841351464390755
23.79,2.17158579826355,1.879218339920044,-3.1993693113327026,-4.009135603904724,-8.898119926452637,0.9583965837955476,0.7718282341957092,0.7705301605165005,0.7334964573383331
23.8,3.916944742202759,1.1198148727416992,-3.147457718849182,-3.9360984563827515,-8.934788703918457,0.9184558987617493,1.0751228630542755,1.961411952972412,1.1195632815361023
23.81,4.925246477127075,0.3325166702270508,-3.4139991998672485,-3.8179283142089844,-8.987855434417725,0.8976930975914001,1.4514158368110657,2.988581895828247,1.5297592878341675
23.82,5.937403440475464,-0.8665776252746582,-3.4516721963882446,-3.6533350944519043,-9.057687759399414,0.8779052793979645,1.7409659624099731,3.5728745460510254,1.8736764192581177
23.83,7.8217711448669425,-2.9178624153137207,-3.272567629814148,-3.4510061740875244,-9.139636516571045,0.8448470532894135,1.8014416098594666,3.4503960609436035,2.0450241565704346
23.84,9.633530139923096,-5.390981197357178,-2.627171516418457,-3.2299381494522095,-9.22487211227417,0.7896217107772827,1.632231891155243,2.5933520793914795,1.9845485091209412
23.85,9.847389698028564,-6.698765277862549,-1.3771372139453888,-3.0224181413650513,-9.30108642578125,0.7163375616073608,1.2589932680130005,1.135216698050499,1.7139351963996887
23.86,8.487051248550415,-6.165626525878906,0.07212010025978088,-2.854541778564453,-9.360173225402832,0.6329723298549652,0.8643743395805359,-0.43928845226764673,1.431410014629364
23.87,5.736783504486084,-4.661069393157959,1.442254364490509,-2.722483515739441,-9.405314445495605,0.5401445627212524,0.5858197659254074,-1.7007251381874084,1.3132075667381287
23.88,2.1519081592559814,-3.0176844596862793,2.6593611240386963,-2.606806516647339,-9.4432373046875,0.4399329423904419,0.4105014353990555,-2.3396902084350586,1.4616478085517883
23.89,-1.0491125583648682,-1.7531437873840332,3.69132399559021,-2.4775465726852417,-9.48194694519043,0.3417087197303772,0.26572638005018234,-2.261804938316345,1.7545576691627502
23.9,-3.096959948539734,-0.9178848266601562,4.205509424209595,-2.3176769018173218,-9.524725437164307,0.26207068562507624,0.13439035415649409,-1.5971835255622864,1.959502935409546
23.91,-3.464628577232361,-0.24550533294677734,4.024456977844238,-2.134511351585388,-9.568626880645752,0.21327991038560862,0.03604104882106185,-0.5715407779207453,1.9763017296791077
23.92,-2.266506612300873,0.33483409881591797,3.2607859373092656,-1.9462408423423767,-9.609073638916016,0.19763839989900586,-0.05253441119566555,0.4672355601796881,1.8257234692573547
23.93,-0.5648152828216553,0.9146156311035155,2.132955014705658,-1.7695313692092896,-9.642977237701416,0.2109684199094772,-0.21991148591041565,1.163621962070465,1.581682801246643
23.94,0.9244832992553712,1.6627941131591797,1.0300126671791077,-1.614013433456421,-9.669303894042969,0.25208237767219543,-0.3842342346906662,1.2839624285697937,1.391703724861145
23.95,1.93224436044693,2.225508451461792,0.12524084746837616,-1.4749518036842346,-9.68973159790039,0.31289808452129364,-0.4309654235839844,0.9904416501522064,1.3110695481300354
23.96,2.4875212907791138,2.400599956512451,-0.6712728291749954,-1.3418956995010376,-9.70680570602417,0.3767860382795334,-0.4172209650278091,0.619646430015564,1.2805262804031372
23.97,2.716445803642273,2.3603973388671875,-1.1906120777130127,-1.2116899490356445,-9.721669673919678,0.43165014684200287,-0.37904189527034754,0.29069550335407257,1.2863295078277588
23.98,2.5471938848495483,2.140171527862549,-1.44709974527359,-1.0831394791603088,-9.734878540039062,0.47385671734809875,-0.3194825202226639,0.02893974259495735,1.3129021525382996
23.99,1.9050121307373047,1.8216359615325928,-1.5243315696716309,-0.9545140266418457,-9.746742725372314,0.5055987238883972,-0.24495695531368256,-0.16592627391219134,1.3501648902893066
24.0,0.9290585070848465,1.600125789642334,-1.5025027394294739,-0.8237136006355286,-9.75747013092041,0.5280626118183136,-0.1771509200334549,-0.2911536544561386,1.3681854009628296
24.01,-0.13190104067325598,1.5317339897155762,-1.4457857608795166,-0.6917043626308441,-9.766890048980715,0.5431716442108154,-0.11698069423437114,-0.332692489027977,1.344667136669159
24.02,-1.167669802904129,1.509608268737793,-1.2743613719940186,-0.5621409863233566,-9.774692058563232,0.5525095462799072,-0.05497787147760385,-0.2603049501776695,1.2878566980361938
24.03,-1.8739456534385681,1.404433250427246,-0.9910932779312134,-0.4376560896635055,-9.780847072601318,0.5565456748008728,0.0036651911213994026,-0.0862083565443754,1.1809552311897278
24.04,-2.026106834411621,1.314415454864502,-0.6922751665115356,-0.3226050138473511,-9.785399913787842,0.5558056533336639,0.0671951780095696,0.21525364555418489,1.011440098285675
24.05,-1.776720941066742,1.2804789543151855,-0.4683201014995575,-0.2224374711513519,-9.788573741912842,0.5497229695320129,0.12431107833981511,0.5038874596357346,0.8721628487110138
24.06,-1.4410585761070251,1.3413934707641602,-0.36002910137176514,-0.1343261264264583,-9.790830612182617,0.5383971333503723,0.15699236840009684,0.657520055770874,0.8361217975616455
