time,seconds_elapsed,z,y,x
1759348843630157300,0.0191572265625,0.9167292066015302,-9.226694979837536,3.193442113061249
1759348843640214300,0.02921435546875,0.9153045806258916,-9.225580881115794,3.1970687791258094
1759348843650271200,0.039271240234375,0.9114940093617886,-9.224230051028728,3.2020506591916083
1759348843660329200,0.0493291015625,0.9057553926445543,-9.22308847977817,3.206963857935369
1759348843670386400,0.059386474609375,0.8993242636185139,-9.222279501482843,3.2111031496971845
1759348843680444200,0.069444091796875,0.8935101705122739,-9.221733558037876,3.214287332691252
1759348843690501000,0.079501220703125,0.8892801317270844,-9.221417331695555,3.2163679383575916
1759348843700559000,0.08955908203125,0.8867463754657655,-9.221162480151653,3.217798555682599
1759348843710616300,0.0996162109375,0.8851269575703888,-9.220674404373764,3.2196427222445605
1759348843720674300,0.10967431640625,0.8837304617106914,-9.219961872190236,3.222065857738256
1759348843730731300,0.119731201171875,0.8823447064407169,-9.219330588549376,3.22425050830096
1759348843740789200,0.129789306640625,0.8812919825173914,-9.219047679954766,3.225346194583177
1759348843750846200,0.13984619140625,0.8811100500792265,-9.219075737005472,3.2253155071839688
1759348843760904200,0.149904296875,0.8815952763129025,-9.21928499584198,3.2245857316046953
1759348843770961400,0.15996142578125,0.8822756597924977,-9.219543939039111,3.223660141192376
1759348843781019100,0.17001904296875,0.8827693615935742,-9.21980814293325,3.222769622093439
1759348843791076000,0.180076171875,0.883110649311915,-9.220132552582024,3.2217502159178255
1759348843801133000,0.190133056640625,0.8833179353870451,-9.220464561015367,3.22074396148473
1759348843811191300,0.20019140625,0.883363308898732,-9.220728180387615,3.2199761919826266
1759348843821248300,0.210248291015625,0.8830559965152293,-9.220600170093775,3.2204277351424095
1759348843831306200,0.22030615234375,0.8819341528784483,-9.220100988399983,3.2221599657624957
1759348843841363200,0.23036328125,0.8795230000834912,-9.219335264724492,3.225009509974718
1759348843851421200,0.240421142578125,0.8753929145414382,-9.218211229130626,3.2293440320476887
1759348843861478400,0.250478515625,0.8691358269080519,-9.216759861278533,3.235165870068967
1759348843871536000,0.2605361328125,0.8609503284953534,-9.215161193910241,3.2419051151961087
1759348843881593300,0.27059326171875,0.8509856185156851,-9.213471341127157,3.2493320503264664
1759348843891651000,0.280651123046875,0.8392178777020424,-9.2116382804811,3.257579946450889
1759348843901708000,0.2907080078125,0.8256916758485138,-9.209667857190967,3.266592104946077
1759348843911766300,0.300766357421875,0.8105890915237367,-9.207826613238453,3.2755534100368617
1759348843921823200,0.3108232421875,0.7945655198965221,-9.206420253571867,3.2834257508471607
1759348843931881200,0.320881103515625,0.7782371931690722,-9.205820534113048,3.2890167027220127
1759348843941938200,0.330938232421875,0.760825016727671,-9.206399795305728,3.291463511352241
1759348843951996400,0.340996337890625,0.7400495743982494,-9.209564981338382,3.2873440933346747
1759348843962053400,0.351053466796875,0.7167081540383398,-9.214318897867201,3.279181537406146
1759348843972111000,0.361111083984375,0.6922038273788989,-9.219803466758131,3.269013779135048
1759348843982168300,0.371168212890625,0.6663598496135323,-9.226752262982725,3.2547508605048057
1759348843992226000,0.38122607421875,0.6404373267192394,-9.234063462778925,3.2391806586682796
1759348844002283300,0.391283203125,0.6141871793057769,-9.241873844268918,3.221943984924257
1759348844012341200,0.40134130859375,0.5880711796659975,-9.249615252175927,3.2045535819232462
1759348844022398200,0.411398193359375,0.5601133880844339,-9.258423412531613,3.1840608289927244
1759348844032456200,0.421456298828125,0.5300165751801803,-9.26829774081409,3.1604020132467148
1759348844042513400,0.431513427734375,0.4986112734932452,-9.278639102086425,3.1350653274163602
1759348844052571400,0.4415712890625,0.466878420352377,-9.2893522192806,3.108111269517243
1759348844062628400,0.45162841796875,0.43605902879461644,-9.300664471411704,3.078617756268382
1759348844072686300,0.461686279296875,0.40812596979551014,-9.31305808903873,3.0447894286856054
1759348844082743300,0.471743408203125,0.3845603487582877,-9.326640039667486,3.0060423494011164
1759348844092801300,0.48180126953125,0.36605511638317256,-9.341748176950215,2.9611025529563424
1759348844102858200,0.491858154296875,0.3528687774758786,-9.358316449913382,2.909944320388138
1759348844112916500,0.50191650390625,0.3444385470544919,-9.375953813412785,2.85363615771085
1759348844122973400,0.511973388671875,0.33964269108008593,-9.393982222056389,2.7943039710372686
1759348844133031400,0.522031494140625,0.33652258629817516,-9.412374787837267,2.7320944753617047
1759348844143088400,0.53208837890625,0.33283527608755975,-9.431640629321336,2.6652918066769837
1759348844153146400,0.542146484375,0.32590427124798294,-9.452530272614956,2.5911098413959146
1759348844163203300,0.552203369140625,0.3137779262550175,-9.475582646900415,2.507045656786859
1759348844173261300,0.56226123046875,0.2956132874784991,-9.501064294159411,2.4109710086494682
1759348844183318300,0.572318359375,0.2723273601654917,-9.527855270451306,2.3056840032696724
1759348844193376300,0.582376220703125,0.2464038326242007,-9.554125437739492,2.1973513465836643
1759348844203433200,0.59243310546875,0.2193152798915282,-9.577780454093217,2.0948547025747595
1759348844213491500,0.602491455078125,0.1892013149230741,-9.598619243982434,2.000271462038904
1759348844223548400,0.61254833984375,0.1526123178547714,-9.618877603635191,1.9037559382662177
1759348844233606400,0.6226064453125,0.10609067731234244,-9.638360302740335,1.805861088964343
1759348844243663400,0.632663330078125,0.04662689558176789,-9.654533438906073,1.7199385631375015
1759348844253721600,0.6427216796875,-0.022304656624118797,-9.665463998243212,1.6579199138589202
1759348844263778600,0.652778564453125,-0.08980429003047756,-9.67108066908121,1.6225084087379276
1759348844273836300,0.662836181640625,-0.1424343943826854,-9.672918405902385,1.6077163516670465
1759348844283893200,0.672893310546875,-0.1722763374767266,-9.672999654445052,1.6042996750913558
1759348844293951200,0.682951171875,-0.17766661568032577,-9.672419224208593,1.6072143934942782
1759348844304008200,0.69300830078125,-0.16279952061185612,-9.671257779213786,1.6157488514751195
1759348844314066400,0.70306640625,-0.13494638584800994,-9.669555651471018,1.6284605951406061
1759348844324123400,0.713123291015625,-0.10162675670604221,-9.667641342282295,1.642178885500133
1759348844334181400,0.723181396484375,-0.0703718187086517,-9.665891868266463,1.6540658687792718
1759348844344238300,0.73323828125,-0.04750118049853481,-9.66447732529342,1.663133995245397
1759348844354296300,0.74329638671875,-0.03713666439618682,-9.663383100315928,1.669734124162793
1759348844364353500,0.753353515625,-0.04088344285921194,-9.66250222582817,1.6747442074097691
1759348844374411300,0.763411376953125,-0.05697915727403015,-9.66170026179552,1.6788889059990644
1759348844384468200,0.77346826171875,-0.08158707217210903,-9.661057872238755,1.681567769819498
1759348844394526200,0.783526123046875,-0.11052200169013812,-9.660464582520722,1.6833355101443825
1759348844404584400,0.79358447265625,-0.14029120834153144,-9.659700027889013,1.6854950262658297
1759348844414641400,0.803641357421875,-0.16782425343869253,-9.658767130953073,1.6883181208625435
1759348844424699400,0.813699462890625,-0.19099904852742328,-9.657906714731455,1.6907795425400136
1759348844434756400,0.82375634765625,-0.2087004719726741,-9.657324530929326,1.69201273759678
1759348844444814300,0.833814453125,-0.220674823008012,-9.657167879062891,1.6913943134374916
1759348844454871300,0.843871337890625,-0.22740365633899345,-9.65750456367135,1.6885758950158953
1759348844464929300,0.85392919921875,-0.2299980384800583,-9.658283731350302,1.6837614804714918
1759348844474986200,0.863986328125,-0.22974163429988548,-9.65935106832087,1.677662579074502
1759348844485044200,0.874044189453125,-0.2282825763316825,-9.660577979767321,1.6707812951281666
1759348844495101400,0.884101318359375,-0.22741222323793917,-9.66183119469881,1.6636349305048583
1759348844505159400,0.894159423828125,-0.2284618966876529,-9.663052260926365,1.6563839364632964
1759348844515217400,0.904217529296875,-0.2323983228211291,-9.664197923830152,1.649133526943624
1759348844525274400,0.9142744140625,-0.23976664136573672,-9.6651302362442,1.6426109933070838
1759348844535332400,0.924332275390625,-0.25036155727403236,-9.66570891291499,1.6376165460206566
1759348844545389300,0.934389404296875,-0.2638411435068585,-9.665928693145514,1.6341960700526832
1759348844555447300,0.944447265625,-0.27955343896150586,-9.665897713485359,1.6317600750774144
1759348844565504300,0.954504150390625,-0.2972267870897427,-9.665703067696095,1.6298026573993265
1759348844575562200,0.964562255859375,-0.3161790325799957,-9.665407884141802,1.627967697057128
1759348844585619500,0.974619384765625,-0.33645237060617655,-9.665009824734925,1.6262763829693196
1759348844595677400,0.984677490234375,-0.35718810197971756,-9.664635730725527,1.6240785806640983
1759348844605734400,0.994734375,-0.3776351526049897,-9.664401921969652,1.6208391603514551
1759348844615792400,1.00479248046875,-0.3973031086165458,-9.664338209083676,1.616510775758326
1759348844625850400,1.014850341796875,-0.41589349852446467,-9.664487846687436,1.6109280071899295
1759348844635907300,1.0249072265625,-0.43327243028338996,-9.664895258444547,1.603885541332513
1759348844645965300,1.03496533203125,-0.4490483107598498,-9.665512513560056,1.5958094946436583
1759348844656022300,1.045022216796875,-0.46273123754505063,-9.666309801417588,1.5870540873885153
1759348844666080500,1.05508056640625,-0.4738223942713812,-9.667177231901883,1.5784592775225639
1759348844676137500,1.065137451171875,-0.48228860932160167,-9.668046415951848,1.57055887966156
1759348844686195500,1.075195556640625,-0.4884302904143929,-9.668901571476459,1.5633846041180193
1759348844696252400,1.08525244140625,-0.4930384783295914,-9.669687168896198,1.5570628537505864
1759348844706310400,1.095310302734375,-0.49711540891230105,-9.670320206102728,1.5518243685752153
1759348844716368400,1.105368408203125,-0.5016490337539464,-9.670748076125978,1.5476916526846587
1759348844726425300,1.11542529296875,-0.5069523277938366,-9.671000589582324,1.5443883733555674
1759348844736483300,1.1254833984375,-0.5132379839345812,-9.671045013245939,1.5420342114448546
1759348844746540300,1.135540283203125,-0.5200056879712268,-9.670867318591474,1.5408759813204407
1759348844756598500,1.1455986328125,-0.5263277305996045,-9.670516020935773,1.5409452471643685
1759348844766655500,1.155655517578125,-0.5312334766892716,-9.670023268982767,1.542345615481585
1759348844776713500,1.16571337890625,-0.5339824100712314,-9.669425303089618,1.5451390455923975
1759348844786771200,1.175771240234375,-0.5340107228502631,-9.66880629440844,1.548995574890077
1759348844796828200,1.185828125,-0.5313431476088241,-9.668130002582073,1.5541228547759354
1759348844806886400,1.195886474609375,-0.5268264373693615,-9.667292967236042,1.5608533320747315
1759348844816943400,1.205943359375,-0.521946191047132,-9.666211017218231,1.5691814538285136
1759348844827001300,1.21600146484375,-0.5195688674565404,-9.664826869383454,1.5784654150024056
1759348844837059300,1.226059326171875,-0.5228658631753176,-9.663124741640686,1.587769688311964
1759348844847116500,1.236116455078125,-0.5344595260636881,-9.661116324427724,1.5961173915490507
1759348844857174300,1.24617431640625,-0.5557085041889921,-9.658927289950848,1.6020916436530648
1759348844867231500,1.2562314453125,-0.5858835334286093,-9.656749945911764,1.6044649486556648
1759348844877289200,1.266289306640625,-0.622418635752052,-9.654840312898159,1.6022008031159638
1759348844887346200,1.27634619140625,-0.6619037469875068,-9.653409403312205,1.5949756741680203
1759348844897404400,1.286404296875,-0.7017607602752745,-9.652435589843988,1.5838004924200475
1759348844907462400,1.29646240234375,-0.741280139106512,-9.651680387562513,1.5703398300834
1759348844917519400,1.306519287109375,-0.7802754940636456,-9.651061963403224,1.5551785013087094
1759348844927577300,1.316577392578125,-0.8180201913725584,-9.650564535275102,1.5387832468248903
1759348844937634600,1.326634521484375,-0.8525872084934264,-9.650205638834834,1.5221752263732253
1759348844947692300,1.3366923828125,-0.882084082743153,-9.64993149806857,1.5070270493410527
1759348844957750300,1.346750244140625,-0.9044078504931181,-9.650015669220686,1.4931943388216196
1759348844967807200,1.35680712890625,-0.9191144212376325,-9.650457567769289,1.4813079400643705
1759348844977865500,1.366865478515625,-0.9272687207944691,-9.651046765834092,1.4723670932397246
1759348844987922400,1.37692236328125,-0.9313656347192824,-9.651358316001296,1.467738410525769
1759348844997980400,1.38698046875,-0.9340176105327904,-9.651174776127935,1.467243174354732
1759348845008038400,1.397038330078125,-0.9389480526722968,-9.650426588109134,1.469019682507962
1759348845018095400,1.407095458984375,-0.9497051551386714,-9.649171035090088,1.4703545843735337
1759348845028153300,1.4171533203125,-0.9680104810275136,-9.64735784818828,1.4703091377966104
1759348845038210300,1.427210205078125,-0.9935682622626423,-9.644963062006235,1.4689723362348972
1759348845048267300,1.437267333984375,-1.0258134123072027,-9.641883800691366,1.4670362536057828
1759348845058325200,1.4473251953125,-1.0633016506370156,-9.638135261812806,1.4649645618982612
1759348845068382200,1.45738232421875,-1.103811136484146,-9.633842533054947,1.4632308699734509
1759348845078440400,1.4674404296875,-1.1456976828381418,-9.629094461745023,1.4622909587748347
1759348845088497400,1.477497314453125,-1.1880299271330237,-9.624076341322064,1.4615522692367433
1759348845098555400,1.487555419921875,-1.2301888606876135,-9.618947161740063,1.4604384627759455
1759348845108613400,1.49761328125,-1.2709602854065596,-9.613727965787053,1.4598955880708993
1759348845118670300,1.50767041015625,-1.308256727491319,-9.60864379439056,1.4604142051175235
1759348845128728300,1.517728271484375,-1.3397684486947954,-9.603965281185507,1.4626159529455005
1759348845138785300,1.527785400390625,-1.3649248095221818,-9.599895839789509,1.4660671163126826
1759348845148843300,1.53784326171875,-1.384519006177783,-9.59633493243754,1.4710016501054166
1759348845158901500,1.547901611328125,-1.4001219412401318,-9.593095512124895,1.4773514575235545
1759348845168958500,1.55795849609375,-1.4135865490995347,-9.590019757941365,1.4844783867940305
1759348845179016400,1.568016357421875,-1.4261609301209448,-9.586991350030898,1.4919989915572105
1759348845189074200,1.57807421875,-1.4375075229130685,-9.584092705979943,1.4997081046298146
1759348845199131100,1.588131103515625,-1.4464244043402372,-9.581563479763268,1.507285700277239
1759348845209189400,1.598189453125,-1.4531015440165995,-9.57948959609866,1.5140177850112317
1759348845219246300,1.608246337890625,-1.459256851775944,-9.577709726944565,1.5193538853421806
1759348845229304300,1.61830419921875,-1.4673071795016526,-9.575864975860714,1.52322970386222
1759348845239362300,1.6283623046875,-1.479888136394322,-9.573571311965583,1.5254643310464917
1759348845249419500,1.63841943359375,-1.4986650253176688,-9.570550502839684,1.5260893310770391
1759348845259477500,1.6484775390625,-1.5239062879495322,-9.56663829783201,1.5256319426983593
1759348845269535200,1.65853515625,-1.5539935293078422,-9.561770984056592,1.52579370913133
1759348845279592200,1.66859228515625,-1.5870402049936354,-9.556018704140186,1.5278114786945283
1759348845289650400,1.678650390625,-1.6214236822411416,-9.549638647714257,1.5315996189311145
1759348845299707400,1.688707275390625,-1.6559391153052447,-9.542987373131513,1.536113881485164
1759348845309765400,1.698765380859375,-1.6901063194535673,-9.536286998710036,1.5405128470964728
1759348845319823400,1.7088232421875,-1.724554094108939,-9.529213699322938,1.5460918162725865
1759348845329880600,1.718880615234375,-1.7605314164191483,-9.52145183314979,1.5533420796617865
1759348845339938300,1.728938232421875,-1.7985338148161767,-9.512826043623685,1.5626225337043405
1759348845349996300,1.738996337890625,-1.8374672104530034,-9.503341006919742,1.574986340714991
1759348845360053200,1.74905322265625,-1.8758732212148606,-9.4933854300946,1.589695541808009
1759348845370111500,1.759111572265625,-1.9139343640618025,-9.48307154135108,1.605803796043992
1759348845380169500,1.76916943359375,-1.9514093775838612,-9.471967379012703,1.6261065793603657
1759348845390226400,1.779226318359375,-1.9891420191287994,-9.459745610821246,1.6513376128591597
1759348845400284400,1.789284423828125,-2.0289492749907074,-9.446195808896421,1.6802245385169983
1759348845410341400,1.79934130859375,-2.0709348978050053,-9.431412081262469,1.7117606635093687
1759348845420399400,1.8093994140625,-2.111571736358851,-9.415869059693813,1.7473070470564067
1759348845430457300,1.819457275390625,-2.1478873507127165,-9.40028278350532,1.7865208670698105
1759348845440514300,1.829514404296875,-2.1791864520788193,-9.384902259021997,1.8289738151349126
1759348845450572300,1.839572265625,-2.2051607051603495,-9.37001448649168,1.8736235425919294
1759348845460630500,1.849630615234375,-2.226085858158767,-9.356065456116198,1.918058750515431
1759348845470687500,1.8596875,-2.240562127278745,-9.342999053794145,1.9643338872171938
1759348845480745200,1.8697451171875,-2.2488052010975776,-9.330302069306374,2.0146248354315754
1759348845490803200,1.87980322265625,-2.2478742038577795,-9.318286052820087,2.0705038129113613
1759348845500860400,1.8898603515625,-2.235091440782696,-9.307622035464643,2.131415085469931
1759348845510918400,1.89991845703125,-2.2127694265984,-9.297681656208633,2.197079982296377
1759348845520976400,1.909976318359375,-2.1871827115297315,-9.287743030518293,2.2637166467644274
1759348845531033300,1.920033447265625,-2.15905712563321,-9.27948899691403,2.3237819700181483
1759348845541091300,1.93009130859375,-2.1201159850813447,-9.276221519550681,2.3721786289185283
1759348845551149300,1.9401494140625,-2.0621698459386826,-9.28008170211017,2.407889555377513
1759348845561206300,1.950206298828125,-1.9813915511325,-9.291430194598435,2.4318308413267133
1759348845571264300,1.96026416015625,-1.8784942173682153,-9.309522900649904,2.444260114789009
1759348845581322500,1.970322509765625,-1.7561719060353933,-9.333365548530221,2.4442918251015247
1759348845591379500,1.98037939453125,-1.6166212503954767,-9.361889632225036,2.431449440793693
1759348845601437400,1.9904375,-1.4616414088249206,-9.393327557539939,2.4081885383240875
1759348845611495200,2.0004951171875,-1.2933110872939229,-9.425345913091302,2.3792009287707505
1759348845621552400,2.010552490234375,-1.1130193290080874,-9.45582229989767,2.3492557262316347
1759348845631610400,2.0206103515625,-0.9210364753413945,-9.483225855129957,2.3217476877115666
1759348845641668400,2.03066845703125,-0.7195449848994613,-9.506094105020164,2.299312860802561
1759348845651725300,2.040725341796875,-0.5139124856626615,-9.522522092729806,2.2864552789255974
1759348845661783600,2.050783447265625,-0.30767471400909124,-9.532719661617278,2.281002858738601
1759348845671841300,2.06084130859375,-0.09907919111507944,-9.53797451340556,2.2776295829132196
1759348845681898200,2.070898193359375,0.11440381155954674,-9.539920386776327,2.2687458731032906
1759348845691956200,2.080956298828125,0.33185046630129217,-9.539458614483475,2.2492169967688618
1759348845702014500,2.091014404296875,0.5479082422342151,-9.53661666905582,2.218809583545476
1759348845712071400,2.101071533203125,0.7552049118235706,-9.531043252837657,2.1815745162591336
1759348845722129400,2.11112939453125,0.9459020365286618,-9.522568269959091,2.143908802470565
1759348845732187400,2.1211875,1.1155766122754662,-9.511948091745376,2.1091953626163304
1759348845742244400,2.131244384765625,1.2690689187020063,-9.500213230288027,2.0750395566448567
1759348845752302300,2.14130224609375,1.4102877998150884,-9.48803120958507,2.039297066003829
1759348845762360300,2.1513603515625,1.5420168219186365,-9.475283956214785,2.002891143018007
1759348845772418300,2.161418212890625,1.658471264131367,-9.464819260823726,1.9588461034558713
1759348845782475500,2.1714755859375,1.7555296626091001,-9.460013906368612,1.8964806865662336
1759348845792533500,2.181533447265625,1.8440538953669368,-9.46201647836268,1.800023761112988
1759348845802591200,2.19159130859375,1.9501101315535603,-9.464442244204879,1.6708606439746916
1759348845812648200,2.201648193359375,2.084303497944027,-9.458909159997106,1.5346264194063841
1759348845822706400,2.21170654296875,2.2360205383263527,-9.443152203416824,1.4133216145530343
1759348845832764400,2.221764404296875,2.3891901156045496,-9.41977191235125,1.3153088379599154
1759348845842821400,2.2318212890625,2.5283129012212155,-9.39354909133613,1.2406605703413485
1759348845852879400,2.24187939453125,2.6437328858196736,-9.369404245638847,1.1812342025782911
1759348845862937300,2.251937255859375,2.733403219872713,-9.351508523464203,1.1172226259168236
1759348845872995300,2.261995361328125,2.804196419498324,-9.339525240203738,1.0393057849563658
1759348845883052300,2.27205224609375,2.86408097935766,-9.330555751806497,0.9529705136101693
1759348845893110300,2.2821103515625,2.9209882769718765,-9.321173590955137,0.8682915581036359
1759348845903168500,2.29216845703125,2.982214022307098,-9.30835794852376,0.794505168011412
1759348845913225500,2.3022255859375,3.047090983626246,-9.292384718844295,0.7329517981570214
1759348845923283500,2.312283447265625,3.1056030860885975,-9.277446677431463,0.6742535254728048
1759348845933341200,2.322341064453125,3.149569069065153,-9.26650501217842,0.6184479785554111
1759348845943398400,2.3323984375,3.1761972560107705,-9.260412540522218,0.5717592560840771
1759348845953456400,2.342456298828125,3.1890862559393045,-9.25826091544628,0.5335882961871102
1759348845963514400,2.352514404296875,3.1912074858769772,-9.259355724945664,0.5009165547609329
1759348845973572400,2.362572265625,3.1867648272544145,-9.262268982043862,0.4746474834512919
1759348845983629600,2.372629638671875,3.178018626219034,-9.26624373089373,0.45529995503313836
1759348845993687300,2.382687255859375,3.1621199230805037,-9.2723607524693,0.4412561590462923
1759348846003745300,2.392745361328125,3.13504720723778,-9.281990166079998,0.43188510411083697
1759348846013802200,2.40280224609375,3.095091044424474,-9.295510157388447,0.4292969507811591
1759348846023860500,2.412860595703125,3.0445825079366564,-9.311889045259356,0.4354570808460936
1759348846033918500,2.42291845703125,2.9894845978319644,-9.328895125117898,0.4528557036861777
1759348846043976400,2.4329765625,2.9360698185086247,-9.344393138501047,0.4818691052678972
1759348846054033400,2.443033447265625,2.8907243638724087,-9.356452409607172,0.5204837538117543
1759348846064091400,2.45309130859375,2.861316190819442,-9.362917806228994,0.5648329274196178
1759348846074149400,2.4631494140625,2.8525720356106756,-9.362917221707105,0.6074625472258776
1759348846084206600,2.47320654296875,2.8618022207707163,-9.357627883127332,0.6444111987862735
1759348846094264600,2.4832646484375,2.881342787542939,-9.34983386825025,0.6699659112814813
1759348846104322600,2.493322509765625,2.900760896979272,-9.343057505983113,0.6806179459381848
1759348846114380500,2.503380615234375,2.9106860786661506,-9.340457552617789,0.6738982822943479
1759348846124437500,2.5134375,2.907768145392835,-9.343089654687047,0.6495729654636234
1759348846134495500,2.52349560546875,2.895960803221166,-9.349204338175058,0.6133465637631714
1759348846144553500,2.533553466796875,2.8804800332337614,-9.356835855966805,0.5682001753630116
1759348846154611700,2.54361181640625,2.8639345566242933,-9.364761388269066,0.5191518841534852
1759348846164668700,2.553668701171875,2.846685315659642,-9.372428561896085,0.4736562073916197
1759348846174726400,2.563726318359375,2.8273069537118074,-9.380076446300745,0.43689485856425014
1759348846184784400,2.573784423828125,2.801018666245043,-9.389169853338599,0.41008857510536906
1759348846194842600,2.583842529296875,2.7615993867874145,-9.401619585067033,0.39177718480192125
1759348846204899600,2.593899658203125,2.700842135746777,-9.419749700519443,0.3797001953760162
1759348846214957600,2.60395751953125,2.6118697208300232,-9.444904600042104,0.3772357780238613
1759348846225015300,2.614015380859375,2.494372345435619,-9.475713579803704,0.39919995521381496
1759348846235072300,2.624072265625,2.353793515791744,-9.508866492342948,0.4599076680243015
1759348846245130500,2.634130615234375,2.209650856186449,-9.53786579233408,0.5629859478460625
1759348846255188500,2.6441884765625,2.0936225304313,-9.55511503329873,0.6977867420777678
1759348846265246500,2.65424658203125,2.012707019111514,-9.561160743203759,0.8388103198144584
1759348846275303400,2.664303466796875,1.9520581968814132,-9.564417114651203,0.9390415761746466
1759348846285361400,2.674361328125,1.9230723408937453,-9.56667687627673,0.975136095123738
1759348846295419400,2.68441943359375,1.9253809100970625,-9.565537643113732,0.9817210995372384
1759348846305477400,2.694477294921875,1.9416690509445964,-9.561465863630175,0.9892891967039554
1759348846315534600,2.70453466796875,1.9557827703624964,-9.556676291266083,1.0076006600726395
1759348846325592600,2.714592529296875,1.9450931801743805,-9.555876080799102,1.0354814774278551
1759348846335650600,2.724650634765625,1.8965220414899289,-9.561596796533465,1.0721168983206153
1759348846345708300,2.734708251953125,1.8098999890916048,-9.57363619389534,1.1136175871621816
1759348846355765500,2.744765625,1.689182920998335,-9.590358196115494,1.1584752582814544
1759348846365823500,2.754823486328125,1.5416022497683763,-9.609260464984178,1.206639496665448
1759348846375881500,2.764881591796875,1.3788237171456217,-9.62717956803441,1.2596115006573498
1759348846385939700,2.774939697265625,1.2180309515126049,-9.64055109078288,1.3215794426620007
1759348846395996700,2.78499658203125,1.080736038910225,-9.646518474754691,1.3953813225843013
1759348846406054400,2.795054443359375,0.9798715992130339,-9.645069444990158,1.4774536027237772
1759348846416112400,2.8051123046875,0.9160097332205623,-9.637444941461085,1.5655504038497805
1759348846426170600,2.815170654296875,0.8744815718501806,-9.626083004969358,1.6565601698130368
1759348846436227600,2.8252275390625,0.8011904909942299,-9.619764323341846,1.7287702504992484
1759348846446285600,2.83528564453125,0.6595842179987579,-9.624113750723003,1.7640170665778219
1759348846456343300,2.84534326171875,0.4622733377097174,-9.633223524373768,1.7769897992670536
1759348846466401500,2.855401611328125,0.2525585741279647,-9.63926455810368,1.7863874499484895
1759348846476458500,2.86545849609375,0.06275357139043045,-9.642141574844718,1.7876121694378553
1759348846486516500,2.8755166015625,-0.09372605745093897,-9.64571651072204,1.76685550487414
1759348846496574500,2.885574462890625,-0.22301755020925773,-9.652344988951086,1.7183935256525873
1759348846506632400,2.895632568359375,-0.33984351088181136,-9.660738138765096,1.6507649275377392
1759348846516690400,2.9056904296875,-0.4534096843071282,-9.666739425006508,1.587125691320002
1759348846526747400,2.915747314453125,-0.5690727569464594,-9.667736619350313,1.543192587699741
1759348846536805400,2.925805419921875,-0.6933787163771689,-9.662867552009224,1.5226982273340224
1759348846546863600,2.935863525390625,-0.8270663252025842,-9.652818451681732,1.5196904238201676
1759348846556921600,2.945921630859375,-0.963883610355854,-9.639997548553348,1.5204443109273909
1759348846566978600,2.955978515625,-1.0936758922431618,-9.627428574359417,1.5122469759464263
1759348846577036300,2.966036376953125,-1.2081067196737973,-9.616393970125912,1.4952746522270142
1759348846587094500,2.976094482421875,-1.3019425759084522,-9.60674059111774,1.4784798770315943
1759348846597152500,2.986152587890625,-1.3709696426443754,-9.597726094534993,1.4746233477339148
1759348846607209500,2.99620947265625,-1.4099021614983678,-9.589012042203546,1.4944687426716088
1759348846617267500,3.006267333984375,-1.4190649805106221,-9.580104513126612,1.5421613449558615
1759348846627325400,3.016325439453125,-1.4089181188970803,-9.570175239786504,1.6115452623054385
1759348846637383400,3.026383544921875,-1.3947124834120272,-9.559074584579466,1.687962439292669
1759348846647441400,3.03644140625,-1.397372642531991,-9.545729949837922,1.7597572171762585
1759348846657498600,3.04649853515625,-1.4362183598853646,-9.528038810324668,1.823220220044255
1759348846667556600,3.056556640625,-1.5180164992585778,-9.504145893561839,1.880745795687288
1759348846677614300,3.0666142578125,-1.6328674517974258,-9.474446920868754,1.933635382092744
1759348846687672300,3.07667236328125,-1.7588291425459086,-9.441468195852636,1.9838275461077688
1759348846697729500,3.0867294921875,-1.8775670195207,-9.408310607138276,2.0319502103723583
1759348846707787500,3.09678759765625,-1.9784744946420192,-9.377330362462997,2.078873435719311
1759348846717845500,3.106845458984375,-2.0564085059329864,-9.349788275542855,2.1267416868314144
1759348846727903500,3.116903564453125,-2.1106696729525924,-9.326220352950692,2.1764788005553184
1759348846737961500,3.12696142578125,-2.1449970360986885,-9.306478710648417,2.22683609200418
1759348846748018400,3.137018310546875,-2.1665020348116752,-9.289899916291237,2.2747255320347843
1759348846758076400,3.147076416015625,-2.1847113529801367,-9.275616539394855,2.315251019168645
1759348846768134700,3.157134765625,-2.205821361026168,-9.262896758553385,2.3459479168578983
1759348846778192600,3.167192626953125,-2.230929498797655,-9.251900732764602,2.365524285595864
1759348846788249600,3.17724951171875,-2.2570549969181415,-9.242705034396051,2.3766512442879377
1759348846798307300,3.187307373046875,-2.278623708517104,-9.23498759188652,2.386051379187405
1759348846808365600,3.197365478515625,-2.2881721658460794,-9.229388456705212,2.39855123366788
1759348846818423600,3.207423583984375,-2.2809540511608124,-9.226904823195934,2.4149285141035914
1759348846828481500,3.2174814453125,-2.255253938845545,-9.227866361704468,2.4353052394390104
1759348846838538500,3.22753857421875,-2.2082349980391562,-9.232894418999551,2.45921569185853
1759348846848596500,3.237596435546875,-2.133880598800629,-9.244091520318388,2.4826786927714943
1759348846858654500,3.247654541015625,-2.025179401063174,-9.263165638622642,2.502554482847452
1759348846868712400,3.25771240234375,-1.876560618957132,-9.290008052840829,2.518864104874432
1759348846878770700,3.267770751953125,-1.690433067189902,-9.322984439769387,2.528786071690917
1759348846888827600,3.27782763671875,-1.4730112363621592,-9.36173473392427,2.521614864887297
1759348846898885400,3.287885498046875,-1.2331108856141566,-9.405687272897362,2.4865353681996463
1759348846908943400,3.297943359375,-0.9834346985220909,-9.451544184187053,2.4231344707824287
1759348846919001600,3.308001708984375,-0.7365940271168947,-9.494144139507412,2.342866463585943
1759348846929059600,3.3180595703125,-0.5005191894738004,-9.529766072508693,2.2590764197431503
1759348846939116500,3.328116455078125,-0.2787779245443642,-9.558129997205734,2.175967490032315
1759348846949174500,3.338174560546875,-0.07044000227376818,-9.579128946092725,2.0989764586798847
1759348846959232500,3.348232421875,0.12614715771744958,-9.591170681542158,2.0405673782005906
1759348846969290500,3.35829052734375,0.3148667809376493,-9.59426163329482,2.0053452581718565
1759348846979348500,3.368348388671875,0.502547882289812,-9.590127894490957,1.986777920345962
1759348846989405400,3.378405517578125,0.6966858681637793,-9.581736498242616,1.9685912524007259
1759348846999463700,3.388463623046875,0.8954860736951231,-9.572996726948022,1.930347446463257
1759348847009521400,3.398521484375,1.0888521253485233,-9.567177227014303,1.8584755116902292
1759348847019579400,3.408579345703125,1.2638729574941099,-9.56462754253149,1.7580932294867933
1759348847029637600,3.4186376953125,1.4149327030114829,-9.563038812035321,1.6482263489708304
1759348847039694800,3.42869482421875,1.5434090069293975,-9.559864273652433,1.548310076843947
1759348847049752800,3.4387529296875,1.6439520326524972,-9.55520797227919,1.4716760422356425
1759348847059810600,3.448810546875,1.7046302271075546,-9.551978488838673,1.4227913075573742
1759348847069868800,3.458868896484375,1.725764346681535,-9.552714401897788,1.3920353731572628
1759348847079926800,3.4689267578125,1.7112763871237635,-9.558310614469647,1.3713522122211754
1759348847089983700,3.478983642578125,1.6757523615390062,-9.568126490563154,1.346545541614294
1759348847100041700,3.489041748046875,1.6611647409990429,-9.577687515112757,1.2956864381231368
1759348847110099700,3.499099609375,1.695413339820504,-9.583144026952981,1.2080310971543191
1759348847120157700,3.50915771484375,1.7770716323316096,-9.582211714538932,1.0925351247102022
1759348847130215700,3.519215576171875,1.876080580355227,-9.576416180002688,0.9710575936384499
1759348847140272600,3.529272705078125,1.9607963607408105,-9.569763736376165,0.863295795642957
1759348847150331000,3.539330810546875,2.0189720708556473,-9.56556102398932,0.770817053105682
1759348847160388600,3.549388671875,2.0594398364529014,-9.563089080917834,0.6902392493076622
1759348847170446600,3.559446533203125,2.095969678079337,-9.559991699424385,0.6195576202977449
1759348847180504800,3.5695048828125,2.139436771623045,-9.55427507534325,0.5558913134099915
1759348847190562800,3.579562744140625,2.1968262997962533,-9.544582533368468,0.49524179706014687
1759348847200619800,3.589619873046875,2.26843987589404,-9.530838085654377,0.4332320982730016
1759348847210677500,3.599677490234375,2.3483865421816703,-9.514301376873254,0.36543629036508496
1759348847220735700,3.60973583984375,2.4272201326608656,-9.496990761110187,0.29352323813037945
1759348847230793700,3.619793701171875,2.4965683941751715,-9.480989474380015,0.21990957425655797
1759348847240851700,3.629851806640625,2.5511533863216638,-9.467899106660484,0.14449667894104495
1759348847250909000,3.639908935546875,2.591569275601208,-9.457772849443554,0.06852135940322186
1759348847260966700,3.649966552734375,2.62164877204448,-9.44972339850068,-0.0071460643708531274
1759348847271024600,3.660024658203125,2.6439640642270446,-9.443197796124219,-0.0766990535353776
1759348847281082600,3.67008251953125,2.65916251014173,-9.43823754336834,-0.13749424369991756
1759348847291140900,3.680140869140625,2.6673770885184407,-9.435081125164032,-0.18632206969233228
1759348847301197800,3.69019775390625,2.667506852377951,-9.43437560724318,-0.21762716240780428
1759348847311255800,3.700255859375,2.6589570506975053,-9.436498590746522,-0.22984927765913307
1759348847321313500,3.7103134765625,2.6435052145436404,-9.441087672102451,-0.21938195191957055
1759348847331371800,3.720371826171875,2.6211492980897426,-9.447964572134614,-0.18955427481289952
1759348847341429800,3.7304296875,2.595242703416943,-9.456023375427723,-0.13683419975545258
1759348847351487700,3.74048779296875,2.56975404189527,-9.463751339331269,-0.06455975316271652
1759348847361545000,3.750544921875,2.550173727634549,-9.469242337962985,0.02121136779496446
1759348847371602700,3.760602783203125,2.53964385805279,-9.471428449830412,0.11235463307793252
1759348847381660700,3.77066064453125,2.537211662469804,-9.470776707923411,0.19318729755301028
1759348847391718700,3.78071875,2.540544606284797,-9.468500579684973,0.25201330653643234
1759348847401777000,3.79077685546875,2.547025200475752,-9.465810025426745,0.28543119015479457
1759348847411834600,3.800834716796875,2.5535920116454363,-9.463680027660727,0.2971892680909484
1759348847421891600,3.8108916015625,2.560190386997163,-9.462008295056224,0.29361071548443285
1759348847431949600,3.820949462890625,2.5661039949551223,-9.460838666754961,0.2793499522786587
1759348847442007800,3.8310078125,2.5645260781139134,-9.461730647158623,0.2631077694647014
1759348847452065800,3.841065673828125,2.5423642229273913,-9.467957558849454,0.25409981222059574
1759348847462123500,3.85112353515625,2.489665775179863,-9.48185807390809,0.2575096389303915
1759348847472180700,3.8611806640625,2.4073868665523825,-9.50250397157371,0.2780269783128984
1759348847482238700,3.87123876953125,2.3033659355856475,-9.526938155606388,0.31991222775895145
1759348847492296700,3.881296630859375,2.1924144747033716,-9.55021147916615,0.39642391462922094
1759348847502354700,3.891354736328125,2.0962880963787436,-9.56589537051022,0.5192472342867404
1759348847512412700,3.90141259765625,2.0416494743488727,-9.567647767135501,0.6798233614943922
1759348847522470700,3.911470703125,2.0506050803512332,-9.553320551097393,0.8363341389592737
1759348847532527600,3.921527587890625,2.088555602430552,-9.536675121244787,0.9274389627948403
1759348847542585900,3.9315859375,2.109714418054372,-9.52848246243894,0.9630776277352124
1759348847552643800,3.941643798828125,2.104439254130423,-9.526438389390707,0.9943310633286834
1759348847562701800,3.951701904296875,2.0800183679707347,-9.526994854229688,1.039366136841476
1759348847572759600,3.961759521484375,2.0396458794414998,-9.5294708889544,1.0951748986292629
1759348847582817800,3.97181787109375,1.9782953386828301,-9.535172315466403,1.1563823045901953
1759348847592874800,3.981874755859375,1.894269732518494,-9.54401730070114,1.222233517768979
1759348847602932700,3.9919326171875,1.7887172080703078,-9.556024549359083,1.285790190269798
1759348847612990700,4.00199072265625,1.6677901504881678,-9.570380991491675,1.3403998784661293
1759348847623048700,4.012048583984375,1.5429213695429265,-9.584757307368516,1.3864401834987103
1759348847633106700,4.022106689453125,1.4209016944184898,-9.598229367882013,1.4231671551324425
1759348847643164700,4.03216455078125,1.3142673660829662,-9.609532852184772,1.449133809429407
1759348847653223000,4.042222900390625,1.2339208868227898,-9.616967970621586,1.4702828343115746
1759348847663279900,4.05227978515625,1.180032498638332,-9.619622869044541,1.496920811998844
1759348847673337600,4.062337646484375,1.1301515194643288,-9.61863678061664,1.5410957615509628
1759348847683395600,4.0723955078125,1.0377248724404722,-9.618535073807836,1.6053955075040458
1759348847693453800,4.082453857421875,0.871025732307881,-9.623183776396512,1.6751172785058617
1759348847703511800,4.09251171875,0.637557898825407,-9.630715340945125,1.735856409367919
1759348847713569500,4.102569580078125,0.37135391691103575,-9.638473699986934,1.7698320364668965
1759348847723626500,4.11262646484375,0.109854806485679,-9.644963062006235,1.7700282896913586
1759348847733684700,4.122684814453125,-0.1181660410367418,-9.64948258525729,1.7446764062918723
1759348847743742700,4.13274267578125,-0.296815521141421,-9.652913728749752,1.70398126167953
1759348847753800700,4.14280078125,-0.4217117928817868,-9.657232760992645,1.6523928210005163
1759348847763858700,4.152858642578125,-0.5000974569303914,-9.663457919117807,1.5930711557209492
1759348847773916700,4.162916748046875,-0.5467416826728732,-9.670770287957787,1.5322012380860746
1759348847783973600,4.1729736328125,-0.5740756432676688,-9.677613285720348,1.478050691834092
1759348847794031600,4.183031494140625,-0.5893118273768574,-9.68275824739337,1.4378205343849957
1759348847804089900,4.19308984375,-0.6001376476978882,-9.685171153753995,1.4169186161316931
1759348847814147600,4.203147705078125,-0.616963585216552,-9.68402549085021,1.417536601899564
1759348847824205600,4.21320556640625,-0.6493944670915603,-9.679096802276373,1.43658617028445
1759348847834263800,4.223263916015625,-0.7012805755428969,-9.671279406523704,1.464556273358315
1759348847844320800,4.23332080078125,-0.7716242778353393,-9.661765728247165,1.4917293808355927
1759348847854378800,4.243378662109375,-0.8564335817232728,-9.650918171018361,1.515483473649621
1759348847864436700,4.253436767578125,-0.9500199201762676,-9.638241060274838,1.5401824460983276
1759348847874494700,4.26349462890625,-1.046263933531195,-9.623376084098219,1.5704634564630686
1759348847884552700,4.273552734375,-1.1417893502879888,-9.606090018254518,1.6092710337631404
1759348847894610700,4.283610595703125,-1.2379459045551717,-9.586222119224072,1.6559651265293358
1759348847904669000,4.2936689453125,-1.338017805635184,-9.56393605313599,1.7062382468260824
1759348847914726000,4.303725830078125,-1.4430689564324914,-9.539355154109,1.757463114889711
1759348847924783600,4.31378369140625,-1.5483436868526042,-9.512954638439416,1.810168284638971
1759348847934841600,4.323841552734375,-1.6444040142036973,-9.485889521381258,1.8666168787002562
1759348847944899800,4.33389990234375,-1.7226090975210069,-9.459314818188547,1.9298646313823757
1759348847954957800,4.343957763671875,-1.7789457556404171,-9.434417108297348,1.9993784587219356
1759348847965015600,4.354015625,-1.8160842306844889,-9.412263728678226,2.069187469615787
1759348847975072500,4.364072509765625,-1.8399118271261452,-9.393809788098931,2.131074016947299
1759348847985130800,4.374130859375,-1.856428662163019,-9.379252854958176,2.1802903216674925
1759348847995188700,4.384188720703125,-1.869986501263827,-9.367539620810746,2.2187273120895026
1759348848005246700,4.394246826171875,-1.885125764337182,-9.357429730206727,2.2483817149884997
1759348848015304700,4.4043046875,-1.9082059034124015,-9.347720821619033,2.26920443052575
1759348848025362700,4.41436279296875,-1.9418005683697759,-9.337180722904204,2.284047048740089
1759348848035420700,4.424420654296875,-1.9839193160444497,-9.325890682604909,2.2939554254226384
1759348848045478100,4.43447802734375,-2.030168733783066,-9.314398982253671,2.3001631940215823
1759348848055536000,4.4445361328125,-2.0743192795462906,-9.303223508244752,2.3059932153493166
1759348848065593900,4.45459375,-2.1049173930361866,-9.294003259956837,2.315427398648858
1759348848075652000,4.464652099609375,-2.1059164870761333,-9.29017288801372,2.3298471152760087
1759348848085710000,4.4747099609375,-2.0638545841552314,-9.294832696518302,2.3488291713826355
1759348848095768000,4.48476806640625,-1.9796921998687087,-9.30811244933009,2.368597993952781
1759348848105826000,4.494825927734375,-1.8680147627994417,-9.326246071913838,2.3878918924875556
1759348848115883000,4.504883056640625,-1.7431917206920682,-9.344661434048414,2.410178981488943
1759348848125941000,4.51494091796875,-1.605677977707237,-9.362708547392486,2.435536856237799
1759348848135999000,4.5249990234375,-1.4416910922080277,-9.38383550657332,2.4567335196539757
1759348848146057200,4.53505712890625,-1.2446069698795676,-9.409839716401695,2.4650068424805998
1759348848156115000,4.545114990234375,-1.0232220806397496,-9.440207966658473,2.450687663618475
1759348848166173000,4.5551728515625,-0.7955112763140351,-9.472194173505901,2.4114514856427904
1759348848176231000,4.56523095703125,-0.5774501977346838,-9.502019402927159,2.355537875241041
1759348848186288000,4.5752880859375,-0.3764504728650674,-9.527556579765676,2.292235615892708
1759348848196346000,4.58534619140625,-0.19068008223874494,-9.548093756359815,2.2288832337923346
1759348848206404000,4.595404052734375,-0.013796766989794559,-9.56231342037022,2.1753939279280603
1759348848216462000,4.605462158203125,0.1586084621301852,-9.569249357113241,2.13885356490761
1759348848226520000,4.61552001953125,0.3347027869924903,-9.568502338138222,2.1218189896069464
1759348848236578000,4.625578125,0.5229562448725104,-9.560707738739252,2.118909385770559
1759348848246635000,4.635635009765625,0.7312124071437865,-9.547402266964315,2.1172705325223506
1759348848256693200,4.645693359375,0.9645097063649445,-9.529982345607877,2.1022727237462995
1759348848266751000,4.6557509765625,1.2153155550740657,-9.511161325281858,2.056988059386611
1759348848276809000,4.66580908203125,1.4648950037933886,-9.494366842347382,1.9701430118873715
1759348848286867200,4.6758671875,1.6874084586717188,-9.480736376401781,1.8543594546735285
1759348848296925200,4.68592529296875,1.8648026688851416,-9.471388117820023,1.7279117339737713
1759348848306983000,4.69598291015625,1.9894418788582084,-9.46800081346929,1.602960535442084
1759348848317039900,4.706039794921875,2.0533926652431487,-9.472081945303081,1.494538154646009
1759348848327098000,4.71609814453125,2.0614440158821643,-9.483822651979327,1.4064033595971763
1759348848337156000,4.726156005859375,2.0292497192420065,-9.503218257322906,1.3196119419813155
1759348848347214000,4.736214111328125,1.9983701584622262,-9.52475321278274,1.206631240293756
1759348848357271800,4.746271728515625,2.0126462288349867,-9.539176874932647,1.0600732631750405
1759348848367330000,4.756330078125,2.0744905444599686,-9.542686344358325,0.8966708265002816
1759348848377388000,4.766387939453125,2.1639988198190925,-9.536040330472588,0.7425933405969292
1759348848387446000,4.776446044921875,2.2628145833581685,-9.52186216751635,0.6198403096966445
1759348848397503200,4.786503173828125,2.3555089414075017,-9.504567333844303,0.5340019550219178
1759348848407561000,4.79656103515625,2.4370304557964206,-9.487195927804708,0.4736790037453174
1759348848417619000,4.806618896484375,2.512205816029012,-9.469733336350322,0.42821269920840854
1759348848427677000,4.816677001953125,2.5856115362405774,-9.451256014895439,0.3984510730752721
1759348848437735200,4.826735107421875,2.6590406373277307,-9.431580423566698,0.38102567182611674
1759348848447793000,4.83679296875,2.7319737715914845,-9.411023957750201,0.3732756787538528
1759348848457851000,4.846850830078125,2.801912400214374,-9.390666813898086,0.3674814593918621
1759348848467907800,4.856907958984375,2.8666794714182613,-9.371362393969298,0.36069263950195163
1759348848477966000,4.866966064453125,2.9263556492239235,-9.35307913378179,0.3560126284595579
1759348848488024000,4.877024169921875,2.977502775876224,-9.337032838866113,0.35310576456952836
1759348848498082000,4.88708203125,3.016882307845354,-9.324255190357565,0.35646051835753023
1759348848508140000,4.89714013671875,3.0415111376672983,-9.315827553752063,0.36734099147524685
1759348848518198000,4.907197998046875,3.050675564114749,-9.312206440645456,0.3828313330085948
1759348848528256000,4.917256103515625,3.0473388209074734,-9.312633141624927,0.39870453637968745
1759348848538313000,4.92731298828125,3.035172290034592,-9.316052594679594,0.4114057221185416
1759348848548371200,4.93737109375,3.013864129067957,-9.322496948513388,0.4219672289475798
1759348848558429000,4.947428955078125,2.9808377655178306,-9.332672305569051,0.4315408207178116
1759348848568487000,4.95748681640625,2.9359307022988794,-9.346399217626452,0.4421669902808964
1759348848578545200,4.967545166015625,2.880653051713109,-9.362977427461743,0.454806655090861
1759348848588603100,4.97760302734375,2.817119613957405,-9.381460009613633,0.4716567041374743
1759348848598660900,4.987660888671875,2.7518805413275955,-9.399536349052191,0.49624889174345876
1759348848608717800,4.9977177734375,2.6935738983094693,-9.414787109676002,0.5261666948189959
1759348848618776000,5.007776123046875,2.649738848236203,-9.425506072089075,0.5559651823638007
1759348848628834000,5.017833984375,2.624424666498601,-9.430854447379708,0.5845997772283852
1759348848638892000,5.02789208984375,2.6175840068235994,-9.431149630934,0.6099640086527913
1759348848648950000,5.037949951171875,2.6228020337328313,-9.428580657228826,0.6270317555706948
1759348848659008000,5.048008056640625,2.630085176478326,-9.426630692204833,0.6258174844101071
1759348848669066000,5.05806591796875,2.6354586862102147,-9.426476378425955,0.6052121014179661
1759348848679124200,5.068124267578125,2.6437697106987237,-9.425640512123703,0.5815254112843423
1759348848689181200,5.07818115234375,2.655388252300024,-9.42369171614349,0.5597539436548948
1759348848699239000,5.088239013671875,2.6622458631098267,-9.422887414023279,0.5403996201697737
1759348848709297000,5.098296875,2.651242530797422,-9.426585684019326,0.5298773128399625
1759348848719355100,5.108355224609375,2.6105674060598014,-9.437535532578826,0.5368844151230528
1759348848729413000,5.1184130859375,2.5332705236285924,-9.456496838158369,0.5723441432999447
1759348848739470800,5.128470947265625,2.415694676170498,-9.482778695884347,0.6416583198815584
1759348848749529000,5.138529052734375,2.2662707151614128,-9.512414540213346,0.7405146346267313
1759348848759586000,5.1485859375,2.109630831424147,-9.538583000692725,0.8574815564062446
1759348848769644000,5.15864404296875,1.9730508621580898,-9.556348959007858,0.9765540721628815
1759348848779702000,5.168701904296875,1.8700518215849995,-9.565674421235919,1.0822002662438899
1759348848789760000,5.178760009765625,1.8008273325808346,-9.570970774078368,1.1506212568454444
1759348848799818000,5.18881787109375,1.7503931765034795,-9.578341010585426,1.1669964183893053
1759348848809876000,5.1988759765625,1.7045470788687467,-9.588225275740028,1.1536190504219381
1759348848819934200,5.208934326171875,1.656874204198271,-9.597417466977237,1.1466224695328622
1759348848829992000,5.218991943359375,1.6058910359360277,-9.604505963933468,1.1597346106927842
1759348848840049200,5.229049072265625,1.5497402557775377,-9.609550387841463,1.193835471606627
1759348848850107000,5.23910693359375,1.4832266331672668,-9.613409401357174,1.2461084604837
1759348848860165000,5.2491650390625,1.4024150206133723,-9.617259062522649,1.3084145484015344
1759348848870223000,5.25922314453125,1.3073539334326982,-9.621842883181571,1.3716191925942898
1759348848880281000,5.269281005859375,1.2052189623430372,-9.626730655223131,1.4296449728444218
1759348848890339000,5.279339111328125,1.1061052387706936,-9.631041504159569,1.4798415207736193
1759348848900397000,5.28939697265625,1.021716352251917,-9.633932549425959,1.5211242560155689
1759348848910454000,5.2994541015625,0.963696124959737,-9.634763155031203,1.553385188151151
1759348848920512000,5.309511962890625,0.9395104357954114,-9.633056935635208,1.578578227727115
1759348848930570200,5.3195703125,0.950117462266609,-9.627480012285709,1.6060151007071137
1759348848940628000,5.3296279296875,0.9878498115506023,-9.61604617960155,1.6511219242818653
1759348848950686000,5.33968603515625,1.0256881784923375,-9.599732173660398,1.721481700926274
1759348848960744200,5.349744140625,0.9914430868022144,-9.586735913965105,1.8116067930094897
1759348848970802200,5.35980224609375,0.8304805175602435,-9.584187983047961,1.9036904718145726
1759348848980860000,5.36985986328125,0.5466709189916029,-9.588477789196372,1.9830843265250324
1759348848990916900,5.379916748046875,0.1915567554754205,-9.59077554474473,2.037331318888813
1759348849000975000,5.38997509765625,-0.1638862564026378,-9.587400515353679,2.0555475051894785
1759348849011033000,5.400033203125,-0.45705969471465796,-9.581891396543384,2.0368711540311573
1759348849021091000,5.410091064453125,-0.6564037613317371,-9.58101870536208,1.9858447311490772
1759348849031148800,5.420148681640625,-0.7555924498364329,-9.587386486828327,1.91871341503188
1759348849041208600,5.43020849609375,-0.7750029604882002,-9.599010289126634,1.8516887741595505
1759348849051266600,5.4402666015625,-0.7495648601099848,-9.611454175636172,1.7967948621943592
1759348849061323500,5.450323486328125,-0.7168888443674892,-9.620182256492972,1.7631046279080211
1759348849071381500,5.460381591796875,-0.7073188327938318,-9.623143444386123,1.750763178859651
1759348849081439500,5.470439453125,-0.7391039641112088,-9.620883682760596,1.7500636522881685
1759348849091497700,5.480497802734375,-0.8129606429606676,-9.615313773673773,1.7479221102148292
1759348849101555700,5.4905556640625,-0.9155824477192014,-9.608110125905275,1.736755111773312
1759348849111613400,5.500613525390625,-1.0277071901645511,-9.599843817341327,1.7196530241943895
1759348849121671700,5.510671630859375,-1.1306844572972505,-9.590129648056626,1.7091937356308102
1759348849131728600,5.520728759765625,-1.2098690531712024,-9.578903320643306,1.7179107105717062
1759348849141786600,5.53078662109375,-1.2562035919100045,-9.567000116881728,1.7506797383598982
1759348849151844600,5.5408447265625,-1.2697699065782129,-9.554634556305407,1.8074888362966477
1759348849161902600,5.550902587890625,-1.2605338761992753,-9.541326746442913,1.8826878696657716
1759348849171960600,5.560960693359375,-1.246750996170938,-9.526792609655857,1.9637259844519197
1759348849182018600,5.5710185546875,-1.2497070694975554,-9.510059501519798,2.041419026593864
1759348849192076800,5.581076904296875,-1.283696871252358,-9.489406005069613,2.1151094089657065
1759348849202134500,5.591134521484375,-1.3514602016627788,-9.46334100496471,2.188403193235397
1759348849212191500,5.60119140625,-1.4460973643429575,-9.432045118468999,2.2617910855293273
1759348849222249500,5.61124951171875,-1.5554618482947349,-9.397257298204302,2.3329119096741078
1759348849232307700,5.6213076171875,-1.6674753854505717,-9.361130338290334,2.3998273910835386
1759348849242365700,5.63136572265625,-1.7718945219546556,-9.326067792737483,2.460739248163998
1759348849252423400,5.64142333984375,-1.859254533238709,-9.29460999367833,2.5147131226748227
1759348849262481700,5.651481689453125,-1.9229899233072996,-9.269536342698336,2.5589441863283513
1759348849272539600,5.66153955078125,-1.9615103542290626,-9.252954041209817,2.589531047771871
1759348849282596600,5.6715966796875,-1.9788027036830782,-9.244618174540996,2.6061028278663754
1759348849292654600,5.681654541015625,-1.981221747523546,-9.241340175783634,2.615868435077369
1759348849302712600,5.691712646484375,-1.9738919891573488,-9.241054929101466,2.6224066046744583
1759348849312770600,5.7017705078125,-1.9574318527437746,-9.243801012939214,2.6250638411849736
1759348849322828500,5.71182861328125,-1.9271942431293427,-9.250921658599376,2.6223522441387175
1759348849332886800,5.72188671875,-1.8735615832716226,-9.263423997297883,2.617076934084296
1759348849342944500,5.731944580078125,-1.7842175585635005,-9.282481164467335,2.611986917468905
1759348849353002500,5.74200244140625,-1.6520324632555246,-9.30917861725688,2.603910578519106
1759348849363059500,5.7520595703125,-1.4795976290151476,-9.341840531408787,2.590593708567321
1759348849373117700,5.76211767578125,-1.27351464606449,-9.378469011104107,2.5676623303130266
1759348849383175700,5.77217578125,-1.042930697455257,-9.418028283554316,2.5265470605924722
1759348849393233700,5.782233642578125,-0.7984194919109344,-9.458951245573163,2.4619386870816347
1759348849403291600,5.792291748046875,-0.5490661800976843,-9.49849239784479,2.3764606901519
1759348849413349600,5.802349609375,-0.30378435550704597,-9.533570725488662,2.2779693362616
1759348849423407600,5.81240771484375,-0.06764503779299556,-9.561547696694731,2.1777624106250704
1759348849433464600,5.822464599609375,0.15550074190581217,-9.580057751375437,2.090148862971365
1759348849443522800,5.832522705078125,0.3611354148333892,-9.58775415109694,2.028535579623282
1759348849453580500,5.84258056640625,0.5500165030924603,-9.584441665548086,2.0015898511610923
1759348849463638500,5.852638427734375,0.725845254087448,-9.571878536573053,2.0056633842103184
1759348849473696800,5.86269677734375,0.8983155980326235,-9.553404137727618,2.0238291554979977
1759348849483754800,5.872754638671875,1.0883625882659107,-9.53286403852403,2.0273986845478413
1759348849493812500,5.8828125,1.3099664540186524,-9.514353399321436,1.9827922117106616
1759348849503870700,5.89287060546875,1.5466256308883428,-9.500461652091145,1.8760529616959392
1759348849513927700,5.902927734375,1.7582367296107113,-9.492539626920223,1.7235685902029274
1759348849523985700,5.912985595703125,1.9060437569424509,-9.491153725519776,1.566969769128412
1759348849534043600,5.923043701171875,1.9865237994544207,-9.495372219997645,1.4359740297354757
1759348849544101600,5.9331015625,2.0257421495124697,-9.50213280017376,1.3327541860185563
1759348849554159600,5.94315966796875,2.049140268495679,-9.508797518759966,1.2466731086291372
1759348849564217600,5.953217529296875,2.0677464770272374,-9.51538858758807,1.1628403946883976
1759348849574275600,5.963275634765625,2.0738753351710737,-9.525922256562113,1.0612472023252397
1759348849584332800,5.973332763671875,2.08799548432976,-9.536286998710036,0.9326729179255664
1759348849594390500,5.983390625,2.1344909857839345,-9.538734391862153,0.7917639795444905
1759348849604448500,5.993448486328125,2.211997419312596,-9.530823472607135,0.6639831836100667
1759348849614506800,6.0035068359375,2.3031363646134735,-9.515508999097346,0.5666145501393824
1759348849624564700,6.013564697265625,2.3918521744206545,-9.497342643287777,0.4999148303724825
1759348849634622500,6.02362255859375,2.4728403125852343,-9.479000930911303,0.45164296689555045
1759348849644680400,6.033680419921875,2.5456045200228687,-9.461540093022585,0.4117412376832217
1759348849654737700,6.043737548828125,2.6121865316942334,-9.444829781240225,0.37688890081495047
1759348849664795600,6.053795654296875,2.6747981784299015,-9.428307100984453,0.3505210087733343
1759348849674853600,6.063853515625,2.7343343632429837,-9.411793188557029,0.3345778819711879
1759348849684911600,6.07391162109375,2.7880674147352575,-9.396318556049465,0.3259795284412801
1759348849694969600,6.083969482421875,2.8348642372235653,-9.382484676486254,0.3208123549364507
1759348849705027600,6.094027587890625,2.87588598344177,-9.37008638268411,0.31801972854323685
1759348849715085600,6.10408544921875,2.909426141732931,-9.359795290294288,0.3160070370139554
1759348849725143600,6.1141435546875,2.9304978635951877,-9.353323463931678,0.31293318252656604
1759348849735200800,6.12420068359375,2.9374080813750623,-9.351101111707091,0.3145210362398997
1759348849745258500,6.134258544921875,2.930429182273149,-9.352975673407316,0.323763167566061
1759348849755316500,6.14431640625,2.909743244858086,-9.359063468888401,0.3342508054412901
1759348849765374700,6.154374755859375,2.877180114905536,-9.36882089279294,0.3426495082132518
1759348849775432700,6.1644326171875,2.835445251981914,-9.381267117390037,0.34995296309441326
1759348849785490400,6.174490478515625,2.7861010830983517,-9.395777288779616,0.35692649190146475
1759348849795548700,6.184548583984375,2.7326678913354874,-9.411067212370037,0.36702805306855585
1759348849805605600,6.194605712890625,2.6805440286055204,-9.425376892751455,0.38386615594904866
1759348849815663600,6.20466357421875,2.6381413494229315,-9.436340185314416,0.40752208561822767
1759348849825721600,6.2147216796875,2.6139462348431346,-9.441747597315906,0.4371083186518401
1759348849835779600,6.224779541015625,2.610545778749883,-9.441025128260254,0.47168622249290343
1759348849845837600,6.234837646484375,2.6200436749354004,-9.436498590746522,0.5081762070329859
1759348849855895600,6.2448955078125,2.6290891511783,-9.432054470819235,0.5427724137157202
1759348849865953800,6.254953857421875,2.6292376197382805,-9.430259988617896,0.5724386897156015
1759348849876010800,6.2650107421875,2.6197128355458377,-9.43167277802527,0.592483881541714
1759348849886068500,6.275068359375,2.604226804861426,-9.435521270146966,0.599438157659024
1759348849896126500,6.28512646484375,2.589594176135957,-9.439532843875885,0.5996924977462739
1759348849906184700,6.295184814453125,2.5806381317421794,-9.442167284032703,0.5968109144279733
1759348849916242700,6.30524267578125,2.578391229598224,-9.443038221648335,0.592724375766702
1759348849926300400,6.315300537109375,2.577565300168097,-9.44336496938467,0.5911015968704596
1759348849936358700,6.325358642578125,2.568534729233384,-9.445459311315417,0.5969198912277818
1759348849946415600,6.33541552734375,2.5417428761586547,-9.451260691070557,0.6193630475737154
1759348849956473600,6.3454736328125,2.4888459832295773,-9.461917109641432,0.6694395493198185
1759348849966531600,6.355531494140625,2.406545155031234,-9.477175469049811,0.7497159590184688
1759348849976589600,6.365589599609375,2.3035415844134985,-9.494404836270213,0.8487379126541316
1759348849986647600,6.3756474609375,2.198665497922152,-9.509636892193555,0.9502922343116254
1759348849996705500,6.38570556640625,2.1196968828864393,-9.517943532767891,1.0421231804646551
1759348850006763800,6.395763671875,2.083954538375884,-9.519500699082016,1.0984671451076864
1759348850016820700,6.40582080078125,2.0722173388309777,-9.521278230148553,1.1052435804400593
1759348850026878700,6.415878662109375,2.0554453599892555,-9.527153259661793,1.085761685052514
1759348850036936400,6.4259365234375,2.0248732577234505,-9.535092235967516,1.0734464664239436
1759348850046993200,6.4359931640625,1.9862803460873661,-9.542239769634604,1.0820111734125764
1759348850057051100,6.446051025390625,1.94370464842543,-9.547774022886156,1.1101413624189793
1759348850067109400,6.456109375,1.8930172482393681,-9.553018937802314,1.151824422090128
1759348850077167400,6.46616748046875,1.8300198170565067,-9.558795183116198,1.2045070146813988
1759348850087224300,6.476224365234375,1.7486363959640263,-9.566068388989567,1.2661040775470436
1759348850097282000,6.486281982421875,1.643492744577676,-9.575532382905482,1.333608026368916
1759348850107340300,6.49634033203125,1.519504838120192,-9.586451836326718,1.4005134247757494
1759348850117398300,6.506398193359375,1.3875582277432084,-9.597727263578772,1.4590071147985755
1759348850127456300,6.516456298828125,1.2609462563924492,-9.608018355968595,1.5054576080672442
1759348850137514200,6.52651416015625,1.1548282800812273,-9.615071197089552,1.5450485908299683
1759348850147572200,6.536572265625,1.0816342298589645,-9.616790275967121,1.586760803530365
1759348850157629200,6.546629150390625,1.046445939034596,-9.611500937387346,1.6414616771414876
1759348850167687200,6.556687255859375,1.0364746531836688,-9.599320670250057,1.7173087991558014
1759348850177745400,6.566745361328125,0.9842278216611593,-9.587083119967579,1.813700550418347
1759348850187803400,6.576803466796875,0.8298805058404802,-9.581153729918599,1.9191610126689076
1759348850197861000,6.586861083984375,0.5818779510490596,-9.58033130761981,2.0122285879448056
1759348850207919000,6.596919189453125,0.28902466633580626,-9.580551672372222,2.0736193145833908
1759348850217977300,6.606977294921875,0.005555242953120614,-9.579495441317558,2.0984819531612096
1759348850228034300,6.617034423828125,-0.22799862655745817,-9.578125322008132,2.0923506107993424
1759348850238092300,6.62709228515625,-0.39448914717435835,-9.579190320891142,2.0624990778930483
1759348850248150300,6.637150390625,-0.49522258090302346,-9.584883564096689,2.0137392847687003
1759348850258208300,6.647208251953125,-0.5456257573202252,-9.593446809780596,1.959198862416297
1759348850268266200,6.657266357421875,-0.5682303878381848,-9.601897242739796,1.9107728312909602
1759348850278324200,6.66732421875,-0.586091367493011,-9.607463644695281,1.877108900489658
1759348850288382200,6.67738232421875,-0.6152353731844574,-9.608786417731642,1.8609452628046272
1759348850298439200,6.687439208984375,-0.662951867800951,-9.605631168571113,1.8608456018224357
1759348850308497200,6.6974970703125,-0.7284675654150545,-9.598512860998511,1.8730409203983842
1759348850318555100,6.70755517578125,-0.807765339339897,-9.588962357842922,1.8893642786897717
1759348850328613400,6.71761328125,-0.8969997661937028,-9.578523381415009,1.9020223924718795
1759348850338671000,6.727671142578125,-0.9904922888834029,-9.567085457077622,1.9131687865167855
1759348850348729000,6.73772900390625,-1.0797782997939736,-9.553535070630907,1.9324689686618743
1759348850358787300,6.747787353515625,-1.158693065750599,-9.536979072627425,1.9682056140840052
1759348850368844300,6.75784423828125,-1.2276727862134575,-9.517444351074099,2.020257434491068
1759348850378902300,6.76790234375,-1.2922338134512303,-9.49603448329866,2.0798696071498095
1759348850388960000,6.7779599609375,-1.359840053603798,-9.473228777250647,2.139894890654087
1759348850399018200,6.788018310546875,-1.436256646069139,-9.448312947180867,2.1992960509106516
1759348850409076200,6.798076171875,-1.5205791893534362,-9.420375723463296,2.2615838725194335
1759348850419134200,6.80813427734375,-1.6074049476303158,-9.389072822704911,2.3306574087455867
1759348850429192200,6.818192138671875,-1.6880439800962805,-9.35529680983126,2.4081749481901524
1759348850439249200,6.828249267578125,-1.7556423292033374,-9.321016939088702,2.4913375077843662
1759348850449307100,6.83830712890625,-1.8090626614846288,-9.287845906370878,2.5755820173963904
1759348850459365000,6.848365234375,-1.853623103222996,-9.256575154316424,2.655240660522878
1759348850469423400,6.85842333984375,-1.8980073116116225,-9.227758809676766,2.723311449447274
1759348850479481300,6.8684814453125,-1.9472754926495253,-9.201932879024744,2.775415730693936
1759348850489539000,6.8785390625,-2.001197052451223,-9.179507112205028,2.8110981617107984
1759348850499597300,6.888597412109375,-2.054610370469838,-9.161215084189177,2.832157024091482
1759348850509654300,6.898654296875,-2.097354264305532,-9.148109518900513,2.8431714623197912
1759348850519712300,6.908712158203125,-2.1175445271581412,-9.141006408897042,2.8510376656502485
1759348850529770200,6.918770263671875,-2.109135302992165,-9.141044987341761,2.8571397819176316
1759348850539828200,6.928828125,-2.0725923096232113,-9.148446788030862,2.8601904016599056
1759348850549886200,6.93888623046875,-2.008290663973987,-9.163623314374684,2.857479973657429
1759348850559944200,6.948944091796875,-1.9157022505171595,-9.186746415808797,2.846778546901047
1759348850570001200,6.959001220703125,-1.7929289805464446,-9.217072580489516,2.8286659671053287
1759348850580059400,6.969059326171875,-1.635425904108584,-9.25362039616406,2.804688879190385
1759348850590117000,6.9791171875,-1.4408277533769607,-9.29450127260685,2.776083254691958
1759348850600175000,6.989175048828125,-1.2115901778753846,-9.338020680859684,2.7393089367851613
1759348850610233300,6.9992333984375,-0.9544150133300572,-9.383250400161742,2.6859046788558363
1759348850620291300,7.009291259765625,-0.6826756821855903,-9.428642032027245,2.6086492974787947
1759348850630349000,7.01934912109375,-0.41326530544534323,-9.471440724790096,2.5082670152753592
1759348850640406000,7.029406005859375,-0.1604429658146575,-9.507774605453013,2.3972660161629316
1759348850650464300,7.03946435546875,0.0700853618835099,-9.535224337914585,2.290190373800695
1759348850660522200,7.049522216796875,0.2786843827757053,-9.552406943383811,2.2009628150790927
1759348850670580200,7.059580322265625,0.46935719502344725,-9.558235211145877,2.1424777467541394
1759348850680638200,7.06963818359375,0.6500885868355631,-9.553823239922522,2.1147679020516574
1759348850690696200,7.0796962890625,0.8290284190557896,-9.542034017929435,2.105395678072423
1759348850700753200,7.089753173828125,1.0113242837056517,-9.52686099871695,2.0944092968948183
1759348850710811100,7.09981103515625,1.2045795684609562,-9.513884612765908,2.0506986038535833
1759348850720869400,7.109869384765625,1.4077593042507768,-9.506111056154966,1.9551113008417187
1759348850730927000,7.119927001953125,1.6009477343149483,-9.50274537911415,1.8180185597479341
1759348850740985000,7.129985107421875,1.755337208776921,-9.503487721914052,1.6652039333872497
1759348850751043300,7.140043212890625,1.8610934391036629,-9.50753904313147,1.5209947844170033
1759348850761101300,7.150101318359375,1.9343353470556437,-9.51173649482131,1.3984347188055515
1759348850771158300,7.160158203125,1.993686822951585,-9.51359936608374,1.2988558619394899
1759348850781216300,7.17021630859375,2.0433035251662135,-9.515489125353097,1.2044794690873473
1759348850791274200,7.180274169921875,2.0675094534009695,-9.524569672909378,1.0855262688614427
1759348850801332200,7.190332275390625,2.085990574248135,-9.536860414683819,0.9313094475526362
1759348850811390200,7.20039013671875,2.1281002618335187,-9.542606849381327,0.7617194813493638
1759348850821448400,7.210448486328125,2.200254520679265,-9.537812600842118,0.5994840791599825
1759348850831505400,7.22050537109375,2.2924285081163047,-9.523872922816873,0.45934075485654174
1759348850841563100,7.230563232421875,2.389065466311574,-9.504654427605868,0.3525677852353081
1759348850851621000,7.24062109375,2.481829090204835,-9.4832007206887,0.28253515818603336
1759348850861679400,7.250679443359375,2.571923202627897,-9.460444699001311,0.23573603414278477
1759348850871737300,7.2607373046875,2.6611685892671346,-9.436561719110607,0.19963146872371434
1759348850881795000,7.270795166015625,2.7482994679704307,-9.412082526892423,0.17300930966008454
1759348850891852000,7.28085205078125,2.833126161384582,-9.387090124455094,0.1621918370422907
1759348850901910300,7.29091015625,2.918267912097275,-9.360788392984867,0.17248188825249672
1759348850911968300,7.30096826171875,3.003891016586125,-9.333067442366481,0.20220645204456522
1759348850922026200,7.311026123046875,3.0809777633979913,-9.306905411627888,0.24387387575516475
1759348850932084200,7.321084228515625,3.1385677825793623,-9.286338424417377,0.28930269782589746
1759348850942142200,7.33114208984375,3.1703546674624086,-9.273997413760423,0.3349931482411921
1759348850952200200,7.3412001953125,3.1779245181947946,-9.269633957853912,0.38088746893182396
1759348850962257200,7.351257080078125,3.164408034017682,-9.272373027428984,0.42427868422772735
1759348850972315400,7.3613154296875,3.131035925769806,-9.281993673211336,0.4599927890244871
1759348850982373000,7.371373046875,3.077484952846169,-9.29892084261477,0.47909803311936555
1759348850992431000,7.38143115234375,3.005550474230945,-9.322482335466146,0.477879999099113
1759348851002489300,7.3914892578125,2.9193115759313106,-9.350817618590593,0.45847982717826957
1759348851012547300,7.40154736328125,2.82520413621366,-9.38107422516644,0.42902072765566407
1759348851022604300,7.411604248046875,2.730238326101005,-9.410473922652006,0.3989669867081567
1759348851032662300,7.421662353515625,2.6406992172122,-9.436871515712141,0.37755865330267696
1759348851042720300,7.43172021484375,2.562848500290513,-9.4585467564255,0.3716192533163354
1759348851052777500,7.441777587890625,2.5021973399728537,-9.474291438046098,0.38367954733576626
1759348851062835500,7.45183544921875,2.4606693977981804,-9.48426571957171,0.40521921550333495
1759348851072893700,7.461893798828125,2.4335136798471213,-9.490405537500976,0.42497521512452513
1759348851082950700,7.47195068359375,2.41328469241932,-9.495255315619707,0.4319570368358865
1759348851093008600,7.482008544921875,2.392270984354615,-9.501017532408238,0.42201336964424696
1759348851103066400,7.49206640625,2.365688828507811,-9.508665416812896,0.3989903310511261
1759348851113124600,7.50212451171875,2.3377505818769335,-9.516603808596729,0.3735636653823778
1759348851123182600,7.5121826171875,2.3182580920301374,-9.52210415957868,0.354391749259457
1759348851133240600,7.522240478515625,2.3065622474089262,-9.525364038157463,0.34290118141938
1759348851143297500,7.532297607421875,2.2937997964695094,-9.528549097934365,0.34003399195261297
1759348851153355500,7.54235546875,2.2703905715703963,-9.533809210419655,0.3495614795587957
1759348851163413500,7.55241357421875,2.2277866707272826,-9.542594574421644,0.3824231905991211
1759348851173471500,7.562471435546875,2.1635122053459286,-9.554427051034569,0.4500338146658614
1759348851183529700,7.57252978515625,2.0881312395386398,-9.565715337768196,0.5542463957471773
1759348851193587500,7.58258740234375,2.0211828787729145,-9.57152723891735,0.6863583892863243
1759348851203645400,7.5926455078125,1.984443486049026,-9.567505143794417,0.8338068855039775
1759348851213702400,7.602702392578125,1.984448308354616,-9.555572713938355,0.9609307518996297
1759348851223760600,7.6127607421875,1.9934243726231156,-9.54756417952776,1.0201398967154323
1759348851233818600,7.622818603515625,1.9893939480632543,-9.548186110818385,1.022170671890676
1759348851243876400,7.63287646484375,1.971761699130386,-9.553196632456778,1.0094330631315707
1759348851253934600,7.6429345703125,1.9437090323396027,-9.559085105973482,1.0081135049656034
1759348851263992600,7.65299267578125,1.9029959136791526,-9.565351765152812,1.0261757428135723
1759348851274049500,7.663049560546875,1.8428436427943407,-9.573221183353661,1.0619521357242017
1759348851284107500,7.673107421875,1.7602070067703723,-9.583348609614372,1.1097192645493894
1759348851294165500,7.68316552734375,1.6567739586941896,-9.595088147246837,1.1660877060465513
1759348851304223500,7.693223388671875,1.5399341704256833,-9.606782092171906,1.228309622812271
1759348851314281500,7.703281494140625,1.4193094567909836,-9.616947512355447,1.2923914882309735
1759348851324339700,7.713339599609375,1.307544487568736,-9.62440075097084,1.3533707114592193
1759348851334396700,7.723396728515625,1.2200415606826542,-9.62824222882986,1.4067133023291825
1759348851344454400,7.733454345703125,1.1699451851923017,-9.627937108403444,1.4506658413022755
1759348851354512400,7.743512451171875,1.160598534045741,-9.623143444386123,1.48947298021093
1759348851364570600,7.753570556640625,1.1821381656806915,-9.6125577529639,1.540026963275671
1759348851374628600,7.763628662109375,1.2106207483213394,-9.596545360317826,1.6158892828591167
1759348851384686600,7.7736865234375,1.188758533668518,-9.579990531358122,1.7265626574523747
1759348851394743600,7.78374365234375,1.0088730180960148,-9.57548211402297,1.8608315732970833
1759348851404801500,7.793801513671875,0.677866236077249,-9.580694880235194,1.980185390213132
1759348851414859500,7.803859619140625,0.27104132067663594,-9.582742460414767,2.0659020182043313
1759348851424917500,7.81391748046875,-0.1278414400804788,-9.574865443429351,2.115650822366029
1759348851434975700,7.823975830078125,-0.4504170783624053,-9.561255435749889,2.1330555461533365
1759348851445033500,7.834033447265625,-0.6596152707241475,-9.551745264604687,2.1211999809257684
1759348851455090400,7.84409033203125,-0.7543377736002206,-9.552733106598257,2.084868730611354
1759348851465148400,7.8541484375,-0.7665358686551451,-9.561799625629186,2.038333920060098
1759348851475206700,7.86420654296875,-0.7366627815041691,-9.572263151976466,1.9998751561976968
1759348851485264600,7.8742646484375,-0.6975418274059891,-9.578667173799872,1.9831759503312407
1759348851495322400,7.884322265625,-0.6764370069917292,-9.578488310101628,1.9913304690837859
1759348851505379300,7.89437939453125,-0.6953172832243144,-9.572354921913146,2.014191704711318
1759348851515437600,7.9044375,-0.7632208258230239,-9.563367897859216,2.0322138297446073
1759348851525495600,7.91449560546875,-0.8765929379809647,-9.554304301437735,2.029104027161002
1759348851535553500,7.924553466796875,-1.019497580223903,-9.545319030949473,2.0044702289029956
1759348851545611500,7.934611572265625,-1.1718921545416117,-9.534579025748371,1.9720269259378314
1759348851555669500,7.94466943359375,-1.3138348198845982,-9.52081879594326,1.9489093774616717
1759348851565726500,7.9547265625,-1.4287600067034363,-9.504245262283087,1.94893582707718
1759348851575784400,7.964784423828125,-1.5070660661771893,-9.485665064975619,1.980228060311079
1759348851585842700,7.9748427734375,-1.5484712587550282,-9.46585503361225,2.042111100511253
1759348851595900400,7.984900390625,-1.5655281920179724,-9.44528512379229,2.1227644537635144
1759348851605958400,7.99495849609375,-1.5798675368852912,-9.42273777641952,2.210523693498224
1759348851616016600,8.0050166015625,-1.6129513297110796,-9.395810606527329,2.299467466842383
1759348851626073600,8.015073486328125,-1.6736827156580985,-9.363538568475843,2.3860684764526785
1759348851636131600,8.025131591796875,-1.7547488874949513,-9.326736485779286,2.470472706671059
1759348851646189600,8.035189453125,-1.8439463433392345,-9.287147987234592,2.5532614645168183
1759348851656247600,8.04524755859375,-1.9310650932133198,-9.247399329692124,2.631916775819659
1759348851666305500,8.055305419921876,-2.0098494377233087,-9.21014599609673,2.702611483506858
1759348851676363500,8.065363525390625,-2.0746742304638026,-9.178619223454595,2.760263169747591
1759348851686420500,8.07542041015625,-2.1213884892351924,-9.156150786536932,2.799108740970492
1759348851696478700,8.085478759765625,-2.149979208425432,-9.143886932769417,2.817317474617064
1759348851706536400,8.095536376953126,-2.1614427055954932,-9.140818777370452,2.8185060998797415
1759348851716594400,8.105594482421875,-2.1588614569306372,-9.144922121036052,2.8071494240850208
1759348851726652700,8.115652587890626,-2.141855084811151,-9.154767223224043,2.788018607157469
1759348851736709600,8.125709716796875,-2.10313927744776,-9.169762547782064,2.7681533384755252
1759348851746767600,8.135767578125,-2.0358828736461696,-9.190295632722973,2.750281289437413
1759348851756825300,8.145825439453125,-1.9368413385272025,-9.217518570691347,2.7306320015937087
1759348851766883600,8.155883544921876,-1.8063504799164831,-9.250721752113103,2.7076944858595726
1759348851776941600,8.165941650390625,-1.6464672303438186,-9.287966902402042,2.682012932114303
1759348851786999600,8.17599951171875,-1.4554818632818758,-9.329057037681341,2.64965116995275
1759348851797056500,8.186056396484375,-1.2301808235116303,-9.37430020098686,2.603756849262118
1759348851807114500,8.196114501953126,-0.9719418291270733,-9.42240401442051,2.538511639152467
1759348851817172500,8.20617236328125,-0.6917240079727024,-9.470413719829917,2.4501373362593353
1759348851827230500,8.21623046875,-0.4040137852363288,-9.514732169505953,2.3403049425348637
1759348851837288700,8.226288818359375,-0.12098094319384545,-9.55162836022675,2.218591556880623
1759348851847345700,8.236345703125,0.1454438053317368,-9.577872224029898,2.1008562810771165
1759348851857403400,8.2464033203125,0.3866488454701379,-9.591953940874337,2.0038236015625297
1759348851867461400,8.25646142578125,0.6028745618484914,-9.593601708081364,1.9415823955744504
1759348851877519600,8.26651953125,0.8017284703284502,-9.584481997558473,1.9145026654690502
1759348851887577600,8.27657763671875,0.9942224153224378,-9.568199555799364,1.905638975533843
1759348851897635600,8.286635498046875,1.1944794685985893,-9.549684824943542,1.8833799435831606
1759348851907692500,8.296692626953124,1.4016253315404057,-9.53319955408871,1.8231696589007973
1759348851917750500,8.30675048828125,1.598954222410172,-9.520912319445609,1.7222021241553127
1759348851927808500,8.31680859375,1.7632725318208335,-9.514117252478004,1.5946211616419255
1759348851937866500,8.326866455078125,1.8882905119784175,-9.511410331606864,1.4621270003847777
1759348851947924700,8.3369248046875,1.9934800483331083,-9.507293543937802,1.344535078574717
1759348851957982500,8.346982421875,2.0860431812182068,-9.500508998364209,1.2486515690952538
1759348851968039400,8.357039306640624,2.1556237901836632,-9.495368712866306,1.1668944923847913
1759348851978097400,8.367097412109375,2.1737838623829187,-9.503316457000373,1.063965521373227
1759348851988155600,8.37715576171875,2.1604918346114457,-9.522214049693941,0.9110912737797945
1759348851998213600,8.387213623046875,2.166807593629509,-9.536977903583645,0.7220618630912155
1759348852008271400,8.397271240234375,2.2066100271858273,-9.540396187594533,0.5311182893443852
1759348852018328300,8.407328369140625,2.2639796816147864,-9.534796467891335,0.36389556372910736
1759348852028386600,8.417386474609375,2.323560436221957,-9.524650921452045,0.22912317360797896
1759348852038444500,8.427444580078125,2.3871862284362315,-9.510822887107729,0.12645066157551482
1759348852048502800,8.437502685546875,2.459809273837507,-9.493020688435434,0.04776011456251144
1759348852058560800,8.447560791015626,2.541699329277873,-9.471534832814335,-0.013461209184274774
1759348852068617700,8.45761767578125,2.628660988894105,-9.447595738822221,-0.05899136931269895
1759348852078675700,8.46767578125,2.719700565473735,-9.421558211246133,-0.0887136452495586
1759348852088733700,8.477733642578125,2.8152888913989065,-9.393306514751911,-0.1016722946145106
1759348852098792000,8.4877919921875,2.913959401248395,-9.363215327870845,-0.09703538292832672
1759348852108849700,8.497849609375,3.0089000769197938,-9.333298913034795,-0.08023707320210523
1759348852118907600,8.50790771484375,3.090858229160309,-9.306645883908867,-0.0576358082515886
1759348852128964600,8.517964599609375,3.148637048912048,-9.287360753202437,-0.03751589808829594
1759348852139022800,8.52802294921875,3.1759479574248193,-9.278113616907596,-0.01864783744988963
1759348852149080800,8.538080810546875,3.1755136576607823,-9.278279036602378,0.005474110287352232
1759348852159138600,8.548138671875,3.154709939084947,-9.285288038581609,0.040268489298643545
1759348852169196800,8.55819677734375,3.114533411519229,-9.298587080615759,0.07962222010623664
1759348852179253800,8.568253662109376,3.055471566219628,-9.317771089035272,0.11675766294300556
1759348852189311700,8.578311767578125,2.978828763782978,-9.342105904346704,0.14844300541402772
1759348852199369700,8.58836962890625,2.887241782453656,-9.370366368669272,0.1744898488077335
1759348852209427700,8.598427734375,2.7878143167570233,-9.399934992980956,0.1992028497817926
1759348852219485700,8.608485595703126,2.6882141248419877,-9.428228775051236,0.22894540588827803
1759348852229542700,8.618542724609375,2.594559105066955,-9.453477782598137,0.26536612458443265
1759348852239600600,8.6286005859375,2.5176845397010443,-9.472950544831157,0.30797245484665037
1759348852249659000,8.638658935546875,2.4732322345122695,-9.483078555613755,0.3531733499130234
1759348852259716900,8.648716796875,2.471562255473435,-9.481718373176456,0.3984606080885976
1759348852269774600,8.658774658203125,2.505139823165536,-9.471108131834864,0.4390563109144568
1759348852279832800,8.668832763671874,2.547575235573947,-9.458858306592703,0.4585271369187161
1759348852289889800,8.678889892578125,2.572490773382783,-9.452964572378992,0.44059941217061127
1759348852299947800,8.68894775390625,2.5765409255564213,-9.454118418589234,0.38920324266068634
1759348852310005800,8.699005859375,2.5750609161317346,-9.456787345537542,0.3295916910564527
1759348852320063700,8.709063720703124,2.578277832351625,-9.457542547819017,0.2788767818089574
1759348852330121700,8.719121826171875,2.5848916975334286,-9.456843459638952,0.23835724949184803
1759348852340178700,8.7291787109375,2.5873499043405053,-9.456870932167767,0.20882691136393694
1759348852350237000,8.73923681640625,2.5775623775586483,-9.459860177111626,0.19398800121033563
1759348852360295000,8.749294921875,2.545880706615746,-9.468381337219476,0.1966149704467505
1759348852370352600,8.7593525390625,2.4857903950512408,-9.483786996144056,0.22139219576343894
1759348852380410600,8.76941064453125,2.402739479137957,-9.50401437613666,0.2663222562654875
1759348852390467800,8.7794677734375,2.3098633347809314,-9.525112109223008,0.3273655029069632
1759348852400525800,8.78952587890625,2.231045380262285,-9.540627658262848,0.4113973926816135
1759348852410583800,8.799583740234375,2.192025475385785,-9.54469066991806,0.5141123556163162
1759348852420641500,8.8096416015625,2.176844711258262,-9.54295756251514,0.6030732992909849
1759348852430699800,8.81969970703125,2.1531785889886317,-9.544740354278684,0.6573864156935364
1759348852440756700,8.8297568359375,2.1195235721461474,-9.549823356631398,0.6920120311338455
1759348852450814700,8.839814697265625,2.0866160126700994,-9.554316576397419,0.7290077367063611
1759348852460873000,8.849873046875,2.0514061676010487,-9.558271451503037,0.7756036297950893
1759348852470930700,8.8599306640625,1.999582749122381,-9.564035421857238,0.83743910452649
1759348852480988700,8.86998876953125,1.920734253334999,-9.5734117374897,0.9115653940975665
1759348852491045600,8.880045654296875,1.812952654660493,-9.586862170693278,0.9877498583074659
1759348852501103900,8.890103759765625,1.6814372753076254,-9.603319384497404,1.0580194724503904
1759348852511161900,8.900161865234375,1.5444729828990995,-9.619276832085847,1.12003410314098
1759348852521219800,8.9102197265625,1.4266653725117444,-9.631136196705699,1.1731256418593228
1759348852531277600,8.920277587890626,1.3458470379561185,-9.63741922249794,1.2162361770503223
1759348852541335800,8.930335693359375,1.3074413194552064,-9.638131754681467,1.251956163598597
1759348852551392800,8.940392822265625,1.3050646534517407,-9.633907414984703,1.2864771496206522
1759348852561450800,8.95045068359375,1.3255394323341547,-9.625812371334433,1.3255534608595072
1759348852571509000,8.960509033203126,1.3117214809924362,-9.619442251780628,1.3842339056260884
1759348852581566700,8.970566650390625,1.1985060937661678,-9.622194180837273,1.4653864405721426
1759348852591624700,8.980624755859376,0.9840477158538996,-9.63307213320434,1.5511197274371982
1759348852601681700,8.990681640625,0.7023232895288616,-9.645696052455902,1.624100354104489
1759348852611740000,9.000739990234376,0.4011821054743603,-9.653768299752473,1.67755868030861
1759348852621798000,9.0107978515625,0.12623187685883602,-9.655039050340651,1.7130907430693507
1759348852631855600,9.020855712890626,-0.09148448906922713,-9.651987261554599,1.732386249039322
1759348852641913900,9.030913818359375,-0.2421046741255559,-9.648957100078462,1.7347599924333392
1759348852651970800,9.040970703125,-0.33149076614342626,-9.649021397486328,1.7195576009958982
1759348852662028800,9.05102880859375,-0.3732773227216676,-9.651945175978542,1.694402701473236
1759348852672086800,9.061086669921876,-0.39048579328451305,-9.65537748851478,1.6708049682646988
1759348852682144800,9.071144775390625,-0.40713151539806275,-9.656693247288464,1.6591918334908782
1759348852692202800,9.08120263671875,-0.44321313833296294,-9.654416534528135,1.663190839999169
1759348852702259700,9.091259765625,-0.508292307693325,-9.648801032733918,1.677105675844103
1759348852712317700,9.101317626953126,-0.6018992870755493,-9.641588617137074,1.6875712480179965
1759348852722376000,9.1113759765625,-0.7154529663454741,-9.6336128159523,1.688792460376024
1759348852732434000,9.121433837890624,-0.8358389027882367,-9.623971127381921,1.688467320074886
1759348852742491600,9.13149169921875,-0.949451691834256,-9.612010640475154,1.6965198397576808
1759348852752548600,9.141548583984376,-1.0455542508918791,-9.59799439008236,1.7192264693453907
1759348852762606800,9.15160693359375,-1.1175015889886766,-9.582468319648504,1.760070667039603
1759348852772664800,9.161664794921874,-1.1641389831315725,-9.565922843039035,1.8188732768811284
1759348852782722800,9.171722900390625,-1.1904302662730217,-9.548602290403842,1.8914168273054062
1759348852792780800,9.18178076171875,-1.2074143534954636,-9.530150687912107,1.9719918546244501
1759348852802837800,9.191837646484375,-1.230010581511259,-9.50944107736051,2.056212106578052
1759348852812895700,9.201895751953124,-1.2700120447710155,-9.48556920338571,2.1404269517041743
1759348852822953700,9.21195361328125,-1.330099725987017,-9.459136539012194,2.21944525110051
1759348852833012000,9.222011962890624,-1.4033259979784487,-9.431531908249854,2.2906921858429907
1759348852843069700,9.232069580078125,-1.4814233831375836,-9.404548039734363,2.35165109693557
1759348852853126700,9.242126708984374,-1.5600534138686954,-9.379984091842173,2.3984375441603363
1759348852863184600,9.2521845703125,-1.6359338536307215,-9.358715678364037,2.4307513755269348
1759348852873243000,9.262242919921874,-1.7065186712026594,-9.340897113078832,2.4506822567909956
1759348852883300900,9.27230078125,-1.7711399041950702,-9.326135597276688,2.4610253716289994
1759348852893358600,9.282358642578124,-1.8299518663868306,-9.313277284747361,2.466689973261952
1759348852903415600,9.29241552734375,-1.88256950398311,-9.302058556118608,2.4694185214430093
1759348852913473800,9.302473876953124,-1.9263520932167768,-9.29278570086062,2.47056447660774
1759348852923531800,9.31253173828125,-1.9525613240979611,-9.285886588996648,2.4759245423361658
1759348852933589800,9.32258984375,-1.9484316769473253,-9.282967486679553,2.4900831238090992
1759348852943647700,9.332647705078125,-1.9043321307189762,-9.286580416479707,2.5106463116273283
1759348852953705000,9.342705078125,-1.8236247091919182,-9.297079598662256,2.5316172034636137
1759348852963762700,9.3527626953125,-1.7172862950630485,-9.312434404182433,2.5494851608484983
1759348852973820700,9.362820556640624,-1.5913316185772417,-9.331494493961333,2.561494163072109
1759348852983879000,9.37287890625,-1.4406572191156446,-9.354773078218102,2.565755912169814
1759348852993937000,9.38293701171875,-1.2576571517191826,-9.383031788975,2.5587869499400258
1759348853003993900,9.392993896484375,-1.040463357493654,-9.416328493899107,2.533888655526936
1759348853014051600,9.403051513671874,-0.7977124396201223,-9.452927747499942,2.4851924291580914
1759348853024109800,9.41310986328125,-0.5411424013610929,-9.490634085559844,2.409446575561166
1759348853034167800,9.423167724609375,-0.2800259883766994,-9.526987255445123,2.308348692434281
1759348853044225800,9.433225830078126,-0.02307707718516467,-9.558840191301703,2.1905343600451945
1759348853054283500,9.443283447265625,0.22271087714657187,-9.583545008969306,2.067960558169335
1759348853064341500,9.453341552734376,0.4484581993795931,-9.598722704356907,1.958010821675509
1759348853074399700,9.463399658203125,0.6488267502062023,-9.602700960338115,1.8808387346677482
1759348853084457700,9.473457763671876,0.8268599889755248,-9.595598434856534,1.8469449406333267
1759348853094515500,9.483515380859375,0.9943363970909267,-9.57967898119092,1.8470150832600891
1759348853104572400,9.493572509765626,1.170052737220004,-9.557992634561657,1.8563817542813716
1759348853114630700,9.503630615234375,1.3732181522235274,-9.535285712713003,1.8338513580434024
1759348853124688600,9.513688720703126,1.6023856581635771,-9.517129293775557,1.7398238516941666
1759348853134746600,9.52374658203125,1.8033708795838057,-9.509941428098083,1.574563146866858
1759348853144804600,9.5338046875,1.9356274326927958,-9.514543953457475,1.3773863778188824
1759348853154861600,9.543861572265625,2.013841722229868,-9.523054592171311,1.1942660450436173
1759348853164919600,9.55391943359375,2.0611485400669274,-9.530434765550494,1.045408339615166
1759348853174977500,9.5639775390625,2.0811723603114483,-9.538772970306873,0.9224521142929791
1759348853185035800,9.574035888671874,2.0603059517629445,-9.555733457458018,0.7832456689808517
1759348853195093500,9.584093505859375,2.016328278348595,-9.578495324364305,0.5976776142599061
1759348853205150700,9.594150634765626,1.9952019036896527,-9.593523382148145,0.3922554698381573
1759348853215208400,9.60420849609375,2.0144524014741183,-9.595223171803354,0.20989538084566592
1759348853225266700,9.6142666015625,2.055721108190715,-9.588584756702184,0.05839682835249695
1759348853235324700,9.62432470703125,2.095200301142037,-9.579974164745211,-0.06791930185684468
1759348853245382700,9.634382568359374,2.1299048270374534,-9.571001753738521,-0.1726039437295869
1759348853255439600,9.644439697265625,2.171570862508565,-9.55979646911323,-0.25488166504697873
1759348853265497600,9.65449755859375,2.227961442772299,-9.544961888074875,-0.31664939003810283
1759348853275555600,9.6645556640625,2.2947131119221447,-9.527483514529466,-0.36292606110982595
1759348853285613600,9.674613525390624,2.365454727490991,-9.5090506167382,-0.39108679138496516
1759348853295670500,9.68467041015625,2.4411883061282333,-9.489732168284059,-0.39492037819847464
1759348853305728800,9.694728759765624,2.523321084283292,-9.469089777749776,-0.37359581408631054
1759348853315786500,9.704786376953125,2.60218682346642,-9.449075748246907,-0.33758532015886156
1759348853325844500,9.714844482421874,2.6652757323250174,-9.432877477639913,-0.2958357163238339
1759348853335902700,9.72490283203125,2.707645678281784,-9.42210298564732,-0.2510227976617403
1759348853345959700,9.734959716796874,2.728467809297144,-9.417259637269376,-0.20266409615157172
1759348853356017700,9.745017578125,2.7296061656773087,-9.417903195869922,-0.1508334716139827
1759348853366075400,9.755075439453124,2.7136478413060305,-9.423219422456622,-0.09712509790523909
1759348853376133600,9.765133544921875,2.679308933852613,-9.433440372219682,-0.04342069255213719
1759348853386191600,9.775191650390624,2.624429342673719,-9.448950660562515,0.008782601222745143
1759348853396248600,9.78524853515625,2.554019297146797,-9.468045821654796,0.05923778638839721
1759348853406306600,9.795306640625,2.476561671195924,-9.48816214248836,0.10869655809495597
1759348853416364500,9.805364501953125,2.4012577161476014,-9.506786178937555,0.15930479209758341
1759348853426422500,9.815422607421874,2.3390207479432226,-9.521238482660054,0.21307486939830705
1759348853436480500,9.82548046875,2.29630286533162,-9.53016062478423,0.2709354308830574
1759348853446537500,9.835537353515624,2.27560085356459,-9.533390108224749,0.32631668797377494
1759348853456595700,9.845595703125,2.273382885254174,-9.532443767285347,0.3669207202365622
1759348853466653700,9.85565380859375,2.280959457988292,-9.529873624536394,0.3861730081193149
1759348853476711400,9.86571142578125,2.2881671974100173,-9.528083818510174,0.38769298422820864
1759348853486768600,9.8757685546875,2.2881806414134798,-9.528432193556428,0.3789425819417461
1759348853496826600,9.88582666015625,2.278994733786583,-9.53096434238255,0.37050599484480917
1759348853506884600,9.895884521484374,2.26373549759537,-9.534500699815153,0.3730488111954182
1759348853516942600,9.905942626953125,2.24699142967388,-9.537947040876746,0.3859632012935355
1759348853527000600,9.91600048828125,2.230842551166564,-9.540965511915088,0.4045804426757619
1759348853537057500,9.9260576171875,2.214839657001197,-9.543518119007349,0.43140769585743544
1759348853547115500,9.936115478515624,2.1944296139180657,-9.546008182257413,0.47811727845370766
1759348853557173500,9.946173583984375,2.1612113810576496,-9.549379119995235,0.5558091150192543
1759348853567231700,9.956231689453125,2.1163667155504227,-9.552793896874785,0.6599303280226886
1759348853577289500,9.96628955078125,2.076572173039615,-9.553442716172336,0.7680920120559632
1759348853587346400,9.976346435546875,2.0655470672868192,-9.548259760576485,0.8570963564809412
1759348853597404700,9.98640478515625,2.0933488280564547,-9.537488191193342,0.9080768943946808
1759348853607462700,9.996462646484375,2.1344091527193783,-9.52708428607881,0.9215911866147071
1759348853617520600,10.006520751953126,2.1527821370169518,-9.522807339411973,0.9230701731260865
1759348853627577600,10.01657763671875,2.138539822783321,-9.524333526065945,0.9402629346631467
1759348853637635600,10.026635498046875,2.1005109747707844,-9.52889396584928,0.9789837104625999
1759348853647693600,10.036693603515625,2.048198749861866,-9.535200372517108,1.0272527974605559
1759348853657751600,10.04675146484375,1.9801829059951006,-9.54375718846023,1.0798037264961748
1759348853667809800,10.056809814453125,1.8940932069078087,-9.554214869588613,1.1400715135194361
1759348853677866800,10.06686669921875,1.7919775250405072,-9.565010404369234,1.2123426767431198
1759348853687924700,10.0769248046875,1.674041319837421,-9.575587327963113,1.2946411668539046
1759348853697982500,10.086982421875,1.5392155007623136,-9.586320903423427,1.379733233205974
1759348853708040700,10.097040771484375,1.3965548964083194,-9.596093524897098,1.461173352921754
1759348853718098700,10.1070986328125,1.2650873017199338,-9.603236382389069,1.5322595441445708
1759348853728155600,10.11715576171875,1.1634462516270576,-9.606599721342324,1.590605642390251
1759348853738213600,10.127213623046876,1.1023363146912306,-9.604846740195155,1.6438180310092865
1759348853748271600,10.137271728515625,1.081278840550035,-9.597172552305459,1.7016235926374792
1759348853758329600,10.14732958984375,1.088957412353903,-9.583907412540912,1.770106031102687
1759348853768386600,10.157386474609375,1.0955428551588207,-9.566842880493402,1.8562502368561922
1759348853778444500,10.167444580078126,1.011016679061204,-9.555307925522326,1.96069494619295
1759348853788502800,10.177502685546875,0.8050851603452116,-9.555157118874789,2.0545500185847283
1759348853798560500,10.187560546875,0.5136080958886071,-9.563885199731589,2.106819865656644
1759348853808618500,10.197618408203125,0.19219110785620286,-9.57477367349267,2.1111963271752
1759348853818675500,10.207675537109376,-0.10639572467352262,-9.582799159038066,2.080634015651047
1759348853828733700,10.217733642578125,-0.3468823234774172,-9.587574118354915,2.0318642856545743
1759348853838791700,10.227791748046876,-0.5155753408409655,-9.591471710315346,1.97692492711246
1759348853848849400,10.237849365234375,-0.6165048085983842,-9.596345453831553,1.9236545246958732
1759348853858906600,10.24790673828125,-0.668934376276657,-9.602567689347266,1.8744618931122123
1759348853868964600,10.257964599609375,-0.6970924762032926,-9.609074587023258,1.830342911531031
1759348853879022600,10.268022705078126,-0.7201647242330014,-9.61373498004973,1.7966206746712325
1759348853889080600,10.27808056640625,-0.7516304143376648,-9.614557986870407,1.779246492152661
1759348853899138800,10.288138916015624,-0.7995256995871662,-9.610646950906515,1.779490530041605
1759348853909195800,10.29819580078125,-0.8649027924481779,-9.603072131738067,1.7897893673464655
1759348853919253500,10.30825341796875,-0.943017932459712,-9.59340413968265,1.8021352003090083
1759348853929311500,10.3183115234375,-1.0267423637203872,-9.582259645333886,1.8156201203040778
1759348853939369700,10.32836962890625,-1.1069092486299574,-9.56966319861114,1.8348488446481526
1759348853949426700,10.3384267578125,-1.17457613292858,-9.555922258028387,1.8641653938949108
1759348853959484700,10.348484619140624,-1.225018618442863,-9.541116318562626,1.9070348138064146
1759348853969542400,10.35854248046875,-1.2642533351138234,-9.524897589689493,1.9617332031995056
1759348853979600600,10.3686005859375,-1.3043000988200306,-9.506710775613785,2.0227793541841206
1759348853989658600,10.37865869140625,-1.355333535964787,-9.485684938719869,2.0869192334003746
1759348853999715600,10.388715576171874,-1.42270114505589,-9.461800789785384,2.1495726734511553
1759348854009773600,10.398773681640625,-1.5034988752149046,-9.434814583182334,2.2122719984702766
1759348854019831600,10.40883154296875,-1.587444840271771,-9.404443994838,2.2818521690443156
1759348854029889500,10.4188896484375,-1.664775040450692,-9.372227486366032,2.3580180016189813
1759348854039946500,10.428946533203124,-1.7319640781044958,-9.340791899138688,2.433159459581971
1759348854050004700,10.439004638671875,-1.788952185869962,-9.312362507990002,2.4999875549688935
1759348854060062700,10.449062744140624,-1.8367264750882981,-9.28828780491948,2.5543147729620337
1759348854070120400,10.459120361328125,-1.8780055570684373,-9.26947146076858,2.5923668557196855
1759348854080177700,10.469177734375,-1.91439160631001,-9.255345904782414,2.6161159800976512
1759348854090235600,10.479235595703125,-1.9468299408391117,-9.243861218693851,2.632726923158765
1759348854100293600,10.489293701171874,-1.9756109219044447,-9.233670079547167,2.6470105923160907
1759348854110351600,10.4993515625,-2.0011257407806813,-9.22485899658203,2.6585443782433864
1759348854120408600,10.50940869140625,-2.0224111053936182,-9.218909148266912,2.6630770532369614
1759348854130466800,10.519466796875,-2.03314570376724,-9.218019505950808,2.6579697932258246
1759348854140524500,10.529524658203124,-2.020248082140833,-9.22379808935225,2.647743582765758
1759348854150582500,10.53958251953125,-1.9744028612889348,-9.236674522060156,2.6374197571501132
1759348854160640800,10.549640869140624,-1.8891957902550696,-9.255571530231833,2.633578863812983
1759348854170697700,10.55969775390625,-1.7614947084933519,-9.280060659322142,2.635904384151101
1759348854180755700,10.569755615234374,-1.590470763964206,-9.311157223853469,2.634980547304451
1759348854190813400,10.5798134765625,-1.3746065378420054,-9.348756009885669,2.623283972030878
1759348854200871700,10.58987158203125,-1.1176613095950334,-9.390131976369023,2.597436998590827
1759348854210928600,10.5999287109375,-0.833668792207539,-9.432117014661431,2.55157979504019
1759348854220986600,10.609986572265624,-0.5453365285826847,-9.471819494974612,2.481457918804884
1759348854231044600,10.620044677734375,-0.27669068820783865,-9.507125201633572,2.389226794353127
1759348854241102600,10.6301025390625,-0.04426105693299323,-9.537142738756536,2.2828378190808
1759348854251159600,10.64015966796875,0.1441001539041288,-9.561509702771902,2.1741979961417615
1759348854261217500,10.650217529296874,0.29490720330206677,-9.5794364046067,2.0779303096503017
1759348854271275500,10.660275634765625,0.4281885511478409,-9.588585925745964,2.0114841993182897
1759348854281333800,10.670333740234375,0.5649666733345017,-9.588117139190436,1.9797025751322506
1759348854291391500,10.6803916015625,0.722858493361622,-9.579462708091736,1.9702182690806687
1759348854301448700,10.69044873046875,0.9127350223988294,-9.56468424115479,1.9631895394876597
1759348854311506400,10.70050634765625,1.13857703717798,-9.546361233478784,1.9341640821419654
1759348854321564700,10.710564697265625,1.3899353321380912,-9.527359011366963,1.8622222970031201
1759348854331622700,10.72062255859375,1.625387471305579,-9.512718491595983,1.7426158205002544
1759348854341679600,10.7306796875,1.7961426818959414,-9.508671846553682,1.5904200566902755
1759348854351737600,10.740737548828125,1.8950364791072905,-9.515231351199745,1.4281490351982413
1759348854361795600,10.750795654296875,1.9406274329371749,-9.527498127576708,1.2771646930046379
1759348854371853600,10.760853515625,1.9565942328758537,-9.540651623660326,1.1480788788862526
1759348854381910500,10.77091064453125,1.9597892295248804,-9.553405891293286,1.0305581956814973
1759348854391968500,10.780968505859375,1.966679281299561,-9.56436684576869,0.9085431236669421
1759348854402026800,10.79102685546875,1.9680816954433917,-9.576509118983148,0.7665051812559366
1759348854412084500,10.80108447265625,1.9668512768656015,-9.588698738470672,0.5989441270643845
1759348854422141400,10.811141357421874,1.9838956429079173,-9.59426338686049,0.42971393408421427
1759348854432199700,10.82119970703125,2.0131126773029564,-9.59366308287978,0.2817479350647889
1759348854442257700,10.831257568359375,2.0357798516631127,-9.59167044775784,0.16073392985155804
1759348854452315600,10.841315673828126,2.0495834822185337,-9.58986018346548,0.06447063640742562
1759348854462372600,10.85137255859375,2.06477593678385,-9.586808979201317,-0.012898423060716594
1759348854472430600,10.8614306640625,2.09323090076521,-9.580351181364058,-0.07519124278831295
1759348854482488600,10.871488525390625,2.1376042954988774,-9.570021510529518,-0.12537525089634582
1759348854492546600,10.881546630859376,2.196232863947749,-9.556171264353393,-0.16291982252327725
1759348854502603500,10.891603515625,2.2636675469256935,-9.54000864958167,-0.18558184578428044
1759348854512661800,10.901661865234376,2.3344627923779186,-9.522746549135446,-0.19488107759254053
1759348854522719700,10.9117197265625,2.401558014268428,-9.506053188487886,-0.19457800299273803
1759348854532777500,10.921777587890626,2.457561494910717,-9.491847553002835,-0.18874319589203223
1759348854542834400,10.93183447265625,2.496689097945392,-9.48185807390809,-0.17689701954731718
1759348854552892700,10.941892578125,2.5196450261190533,-9.476196394884585,-0.15327325684837997
1759348854562950700,10.95195068359375,2.5282547412931917,-9.47441652573049,-0.11724515419900416
1759348854573008600,10.962008544921876,2.5259707220092413,-9.475468080610037,-0.07311292954375967
1759348854583065600,10.972065673828125,2.5132971183970567,-9.479088024672865,-0.02444686085116118
1759348854593123600,10.98212353515625,2.488216453154385,-9.485708904117345,0.022424079469416755
1759348854603181600,10.992181640625,2.450332712700963,-9.495370466431975,0.06474962687874213
1759348854613239600,11.002239501953126,2.4024255908831953,-9.50723801435828,0.10563148056906647
1759348854623296500,11.012296630859375,2.3547309427723286,-9.518574816408753,0.14958109693271107
1759348854633354800,11.022354736328126,2.3182889255598185,-9.526572244903445,0.20090963543336837
1759348854643412500,11.03241259765625,2.2974489666268227,-9.530244795936346,0.25801636460982263
1759348854653470500,11.042470458984376,2.2932041686639186,-9.52958545524478,0.3140417648229748
1759348854663527400,11.05252734375,2.3041904037110505,-9.52527343726456,0.3609227949960157
1759348854673585700,11.062585693359376,2.325169478853792,-9.518858309525251,0.3940938642464578
1759348854683643600,11.0726435546875,2.347475857077539,-9.512835395973921,0.40705209348630156
1759348854693701600,11.08270166015625,2.3594429198555646,-9.510566866520046,0.3905605390211567
1759348854703758600,11.092758544921875,2.3488402772985397,-9.515003387662768,0.343568340091221
1759348854713816600,11.102816650390626,2.3117640538357196,-9.526143790358304,0.28057980460086834
1759348854723874600,11.11287451171875,2.255789068635553,-9.541158988660573,0.21928272932879625
1759348854733932500,11.1229326171875,2.1962615055203436,-9.556012858921289,0.17160850295145064
1759348854743989800,11.13298974609375,2.1425487661637366,-9.568677694705128,0.14241443844004534
1759348854754047700,11.1430478515625,2.0915498158104717,-9.58007177990079,0.13428467053626664
1759348854764105500,11.15310546875,2.034655669938773,-9.592036358460783,0.15298358971942216
1759348854774163700,11.163163818359376,1.966289697460085,-9.605251813864708,0.20789370390074327
1759348854784220700,11.173220703125,1.8840302241854368,-9.619081017252801,0.30672439101431515
1759348854794278700,11.183278564453126,1.788777559955418,-9.631837622973322,0.4453704259647056
1759348854804336600,11.193336669921875,1.6905270290836691,-9.640610712015627,0.6091946317154914
1759348854814394600,11.20339453125,1.6107565961457788,-9.641306877586246,0.7880489776093512
1759348854824451600,11.21345166015625,1.563178998543322,-9.633921443510054,0.9562491699546575
1759348854834509600,11.223509521484376,1.5278846900612115,-9.628349196335673,1.0634181166235357
1759348854844567600,11.233567626953125,1.4879871255673467,-9.630701312419772,1.098123884627968
1759348854854625800,11.243625732421876,1.445242501079291,-9.63685925052762,1.1011780115015803
1759348854864682800,11.253682861328125,1.4040673178650438,-9.642292381492256,1.1068822144925594
1759348854874740500,11.263740478515626,1.3645650362990795,-9.64612859865427,1.1227456271219998
1759348854884798500,11.273798583984375,1.319907710057497,-9.649404843845963,1.1476958709180354
1759348854894856700,11.283856689453126,1.265269380288571,-9.652520930039882,1.1825065606016665
1759348854904913700,11.29391357421875,1.1963828910671175,-9.655725279039144,1.2272045841798185
1759348854914971600,11.3039716796875,1.1124747007373719,-9.658992171880602,1.2793245013870298
1759348854925029600,11.314029541015625,1.0172425678387285,-9.662063834410905,1.3342163675256073
1759348854935087600,11.324087646484376,0.9210244195774197,-9.664513565650582,1.3853821988783777
1759348854945144600,11.33414453125,0.8387532558649778,-9.665870240956544,1.427523304515332
1759348854955202600,11.34420263671875,0.78144219975546,-9.665634094113111,1.4612468565493821
1759348854965260500,11.354260498046875,0.7531985404372215,-9.663056352579593,1.4927916032396256
1759348854975318800,11.36431884765625,0.7522479617141187,-9.657325115451217,1.529893253404647
1759348854985375700,11.374375732421875,0.7715252744402736,-9.647681088793277,1.5803174726098774
1759348854995433500,11.38443359375,0.8009596048478037,-9.6333351680547,1.651575805529207
1759348855005491500,11.394491455078125,0.7848844491638243,-9.617063832211494,1.7511185681685804
1759348855015548700,11.404548583984376,0.6553889582660049,-9.605978959095477,1.861724284353107
1759348855025606700,11.414606689453125,0.4062324841991067,-9.601842297682165,1.9519151351489126
1759348855035664600,11.42466455078125,0.08458403463154099,-9.598799861246347,2.006557118179649
1759348855045721600,11.4347216796875,-0.24098542430466038,-9.592647183835506,2.0232200836889445
1759348855055778800,11.44477880859375,-0.5119157954201102,-9.585407295709848,2.0070557153515516
1759348855065836500,11.45483642578125,-0.6982800054874271,-9.581255436727403,1.9703661531187593
1759348855075894500,11.46489453125,-0.7993780347447842,-9.5829049575001,1.9233570030540226
1759348855085952800,11.474952880859375,-0.836017839551717,-9.588771803706884,1.878007895155996
1759348855096009700,11.485009765625,-0.8368822743613272,-9.594719898456335,1.8469864416874944
1759348855106067700,11.495067626953125,-0.8255321013726293,-9.597425650283693,1.8380210449434815
1759348855116125700,11.505125732421876,-0.8226298771250993,-9.595788988992572,1.8478351674713194
1759348855126183700,11.51518359375,-0.8481058252956718,-9.589835633546114,1.867133888311684
1759348855136240600,11.52524072265625,-0.9085783411107957,-9.581417933812737,1.881841628099978
1759348855146298600,11.535298583984375,-0.9998155591543764,-9.572959902068972,1.8786109756156801
1759348855156356600,11.545356689453126,-1.1095363822631537,-9.564556815382838,1.859721420098096
1759348855166414800,11.555414794921875,-1.2217163620270788,-9.555033200234174,1.838242286478728
1759348855176471800,11.565471923828126,-1.3231000763580203,-9.543473110821843,1.8280822731226682
1759348855186529500,11.575529541015625,-1.405164319321513,-9.529577856460213,1.8392982252724468
1759348855196587500,11.58558740234375,-1.4637939106836915,-9.51389922581315,1.8744097245335578
1759348855206644500,11.59564453125,-1.4997795624308288,-9.496858659163117,1.9315087453275919
1759348855216702700,11.60570263671875,-1.5215657161727547,-9.479020804655551,2.000851600014418
1759348855226760700,11.6157607421875,-1.5417356668896973,-9.460323118448256,2.0726013697125016
1759348855236818400,11.625818359375,-1.572840414727479,-9.439333521911502,2.143720001900196
1759348855246875600,11.635875732421875,-1.6223152242533863,-9.413834923517703,2.2176949003018436
1759348855256933600,11.64593359375,-1.6897618899300693,-9.382802656394242,2.297410242051631
1759348855266991600,11.65599169921875,-1.7690252501286565,-9.34821065096259,2.3773681603856383
1759348855277049600,11.666049560546876,-1.8525743248224258,-9.313412893825769,2.44922343628481
1759348855287106800,11.67610693359375,-1.9302510003514586,-9.281216259098052,2.510685474593937
1759348855297164800,11.686164794921876,-1.9929748752899468,-9.25456965971291,2.5595646563142536
1759348855307222500,11.696222412109375,-2.036486684758216,-9.235057734513282,2.595535548883676
1759348855317279500,11.706279541015626,-2.059215818438679,-9.222443752133845,2.622319510912895
1759348855327337700,11.716337646484375,-2.0650721432514487,-9.217015881866216,2.6367618777632713
1759348855337395700,11.726395751953126,-2.0597103239573538,-9.218587076705694,2.6354630701243877
1759348855347453700,11.73645361328125,-2.0485607150420546,-9.22549378735423,2.6199332002982496
1759348855357510700,11.7465107421875,-2.029147720172256,-9.236381676593423,2.596578920456767
1759348855367568600,11.756568603515625,-1.9896419314749538,-9.250881326588988,2.57544319344759
1759348855377626600,11.766626708984376,-1.9130515898779032,-9.269479644075036,2.5665926552549
1759348855387684600,11.7766845703125,-1.791929301984608,-9.292491101828217,2.570793029554188
1759348855397741600,11.786741455078126,-1.630033251284808,-9.319937327158451,2.579178288322687
1759348855407799800,11.7967998046875,-1.4330277471505104,-9.351555285215378,2.5817139442801476
1759348855417857500,11.806857421875,-1.203172770402953,-9.385538803359866,2.575736038914323
1759348855427914500,11.81691455078125,-0.9404352224901318,-9.420131977835297,2.558726744185388
1759348855437972500,11.826972412109376,-0.6521136629223823,-9.453517530086636,2.525102707003057
1759348855448030700,11.83703076171875,-0.35577692000754174,-9.483533898165822,2.4711136349231
1759348855458088700,11.847088623046876,-0.0732233585151378,-9.509353399077057,2.3952513153396544
1759348855468145700,11.857145751953125,0.18066208943556994,-9.531048513534664,2.301484505753219
1759348855478203600,11.86720361328125,0.40562754057589917,-9.547623800760507,2.201981490602344
1759348855488261600,11.87726171875,0.6076107965901494,-9.557561841928958,2.1105003077350557
1759348855498318600,11.887318603515626,0.7911926093973219,-9.56013432276547,2.036720347383618
1759348855508376600,11.89737646484375,0.9644604603957384,-9.55615898939371,1.9798998512700199
1759348855518434800,11.907434814453126,1.13882655495964,-9.548508182379603,1.9233911975845694
1759348855528492800,11.917492919921875,1.3248726389884948,-9.539535186851024,1.8472588288880885
1759348855538549800,11.9275498046875,1.5282169907554983,-9.530084636938572,1.7356356062240899
1759348855548607500,11.937607421875,1.7444883363738655,-9.521687395471334,1.5699083067983388
1759348855558665700,11.947665771484376,1.94143392701447,-9.517062658280134,1.351562200732529
1759348855568722700,11.95772265625,2.087051481477916,-9.516656415566802,1.1170665585722774
1759348855578780700,11.96778076171875,2.180925404700637,-9.51735199661553,0.9132104578908532
1759348855588838700,11.977838623046875,2.2364112912096084,-9.517038108360767,0.7712431695632637
1759348855598896600,11.987896728515626,2.267368008878827,-9.515784893429279,0.6922918709885328
1759348855608953600,11.99795361328125,2.270912111226469,-9.518423425239323,0.6426221964776515
1759348855619011600,12.008011474609376,2.2552941247254608,-9.526531328371167,0.5737917848249897
1759348855629069600,12.018069580078125,2.251739793244749,-9.533796935459971,0.4547187210790813
1759348855639126500,12.02812646484375,2.2860249246843156,-9.53169031856954,0.3022343678523786
1759348855649184800,12.038184814453125,2.354083730909973,-9.518575985452532,0.1593918858591467
1759348855659242800,12.04824267578125,2.435938276645541,-9.499147646883129,0.05267610348497983
1759348855669300500,12.058300537109375,2.516002577963471,-9.478393028146028,-0.013020415747369406
1759348855679357700,12.068357666015626,2.5857185037463903,-9.459531675809622,-0.041222018030658364
1759348855689415700,12.078415771484375,2.641209504821896,-9.444169856026768,-0.045465140059706755
1759348855699473700,12.0884736328125,2.6809131541788576,-9.432983860623835,-0.04355333792190067
1759348855709530600,12.098530517578125,2.7045807377532123,-9.426218604272604,-0.04493933065389283
1759348855719588900,12.1085888671875,2.714173326484859,-9.423454984778166,-0.04618809773912653
1759348855729646600,12.118646484375,2.7141554985672234,-9.423492394179105,-0.0393199244361138
1759348855739704600,12.12870458984375,2.712119024303555,-9.424144136086106,-0.017220657615916568
1759348855749761500,12.138761474609375,2.7142142430171368,-9.423543247583508,0.015397612615441902
1759348855759819800,12.14881982421875,2.7210277224242687,-9.421468194875121,0.0482871478110319
1759348855769877800,12.158877685546875,2.7263337198778985,-9.41977074330747,0.07352160624277312
1759348855779934700,12.168934814453126,2.722699162767827,-9.420700717633961,0.08777084797411225
1759348855789992400,12.178992431640625,2.7069521430596706,-9.425140161386132,0.09757736258422955
1759348855800050700,12.18905078125,2.68073107561022,-9.432477664667367,0.11147605101196095
1759348855810107600,12.199107666015625,2.647941151164472,-9.441413250795007,0.13606717003886587
1759348855820165600,12.20916552734375,2.611849847085774,-9.450990641957521,0.16555608931099994
1759348855830223600,12.2192236328125,2.576690270899236,-9.460195108154416,0.18910886913295835
1759348855840281600,12.229281494140626,2.540678461797535,-9.46973625895977,0.19860738637298345
1759348855850338800,12.2393388671875,2.502317751482129,-9.480020337086916,0.19490009282026438
1759348855860396500,12.249396484375,2.4629884883955118,-9.490491462218761,0.18609713836265726
1759348855870454500,12.25945458984375,2.423228871067613,-9.500836330622434,0.18014975599925964
1759348855880511700,12.26951171875,2.3819550497844815,-9.51125075713098,0.18110532142473384
1759348855890569700,12.27956982421875,2.3404788377970456,-9.521374676260352,0.189701738725882
1759348855900627700,12.289627685546876,2.3016109086118637,-9.530577388891578,0.20265783080756664
1759348855910684700,12.2996845703125,2.2664938563928008,-9.538682369413971,0.21660751877017317
1759348855920742700,12.30974267578125,2.233756831178069,-9.546154897251725,0.22725301408823578
1759348855930800600,12.319800537109375,2.2014801169514655,-9.553580078816413,0.23014672623574733
1759348855940858600,12.329858642578126,2.1675993285290898,-9.561523146775365,0.22169901495659722
1759348855950915600,12.33991552734375,2.128935397483408,-9.570692541658877,0.19966306943837553
1759348855960973800,12.349973876953126,2.0853360558621583,-9.580857961842417,0.17009888383978977
1759348855971031600,12.360031494140625,2.0411818568371234,-9.590762685263156,0.1457473000566475
1759348855981088500,12.370088623046875,1.9982076613768933,-9.5999700740695,0.13469384499220177
1759348855991146500,12.380146484375,1.951299779729545,-9.60959305793941,0.1361467198147904
1759348856001204700,12.390204833984376,1.8945427042409777,-9.620677931055425,0.15375336851552127
1759348856011261700,12.40026171875,1.8251225465342402,-9.633310618135333,0.19660695153707639
1759348856021319700,12.410319580078125,1.7414881316445767,-9.646877955716848,0.27451272311424835
1759348856031377700,12.420377685546875,1.6484901144735513,-9.659134795221686,0.3924216932505369
1759348856041435000,12.430434814453125,1.5623878481656313,-9.665807697114348,0.549107315825671
1759348856051492900,12.440492919921875,1.5050497579187154,-9.662889179319142,0.7305985860943793
1759348856061550800,12.45055078125,1.4975018267571925,-9.649084525850414,0.9072213735438883
1759348856071608800,12.46060888671875,1.5342422423943876,-9.630428340697287,1.0350529498174785
1759348856081666000,12.470666015625,1.5790731716372073,-9.616609658703208,1.0944067638009787
1759348856091724000,12.48072412109375,1.597566859705001,-9.61047042529583,1.1211685870636254
1759348856101781800,12.49078173828125,1.5871397198453545,-9.609054713279008,1.1478028384238481
1759348856111838700,12.500838623046874,1.5599498073637486,-9.609785950163007,1.1785361226007343
1759348856121897000,12.51089697265625,1.5218217367604374,-9.611543022963405,1.2135410196822136
1759348856131955000,12.520954833984375,1.4706358855329453,-9.614137131109834,1.255384092220664
1759348856142012000,12.531011962890625,1.4014499749734997,-9.617581134083867,1.3070777468398214
1759348856152070000,12.54106982421875,1.3145267476715146,-9.621027475145459,1.3704916498690842
1759348856162128000,12.5511279296875,1.2167071555629372,-9.624023734351992,1.438114548895508
1759348856172184800,12.561184814453124,1.118393131000921,-9.626081835925579,1.5027086016200482
1759348856182242800,12.571242919921875,1.0334395232714713,-9.627012979295849,1.556605903763324
1759348856192300800,12.58130078125,0.9764441089823841,-9.62686100360453,1.593892116715014
1759348856202359000,12.591359130859376,0.9561418371226638,-9.625204468569159,1.6160490034654735
1759348856212416000,12.601416015625,0.9730212218616158,-9.620435354471207,1.6342694275498388
1759348856222474000,12.611473876953125,1.0160646101005375,-9.611114568418264,1.6626744149096309
1759348856232531700,12.62153173828125,1.0678284073464572,-9.59659621372223,1.7133188527368008
1759348856242589000,12.6315888671875,1.1005508195139466,-9.578933715781568,1.7897456743352114
1759348856252647000,12.64164697265625,1.0220135085675865,-9.569093874290585,1.886346684434265
1759348856262705000,12.651704833984375,0.7873691786516457,-9.572257891279458,1.980482473463565
1759348856272761900,12.661761962890624,0.4373538909107446,-9.582505729049444,2.0383057168789205
1759348856282820000,12.671820068359375,0.04009835689612664,-9.59086848372519,2.0454834995537996
1759348856292877800,12.6818779296875,-0.32874508416447784,-9.591410920038818,2.0167207847975193
1759348856302934800,12.691934814453125,-0.6118862454196438,-9.588008418118953,1.9662255461826919
1759348856312992800,12.70199267578125,-0.7883652770169078,-9.588279051753878,1.9009912958584725
1759348856323051000,12.712051025390625,-0.8679857800900935,-9.596278233814239,1.8244028539575636
1759348856333108000,12.72210791015625,-0.8833478921338915,-9.608945992207527,1.7487858874373137
1759348856343166000,12.732166015625,-0.8742065543010831,-9.620737552288174,1.6874825468212364
1759348856353223700,12.7422236328125,-0.8753635423164814,-9.626690323212742,1.6525661317408085
1759348856363281000,12.752281005859375,-0.9093734370112418,-9.62496013841927,1.6442606602102516
1759348856373339000,12.7623388671875,-0.9855971372529864,-9.617119361791014,1.6462145707570015
1759348856383396900,12.77239697265625,-1.099067960545048,-9.605728199204801,1.640854358898103
1759348856393453800,12.782453857421874,-1.2355498031988739,-9.591996610972284,1.6240094609506428
1759348856403512000,12.792511962890625,-1.375942462620884,-9.576279401880502,1.6037658604755998
1759348856413570000,12.802570068359374,-1.499780000822246,-9.559802314332128,1.590979882530123
1759348856423627000,12.812626953125,-1.5889723420999944,-9.543491815522312,1.6022845358766615
1759348856433684700,12.822684814453124,-1.6324793292626738,-9.5281276576519,1.6493007002040743
