time,seconds_elapsed,z,y,x
1759485815908494600,0.05149462890625,-0.04983633631467819,-0.03623568098545074,0.11648805222138761
1759485815918549800,0.0615498046875,-0.09145838651359081,-0.05027881938517093,0.06405936132594943
1759485815928605000,0.07160498046875,-0.13118161735385656,-0.01488894157409668,0.08449570789411663
1759485815938659600,0.08165966796875,-0.16143968523442745,0.025077742633223533,0.14254106962755322
1759485815948714800,0.09171484375,-0.13080343169122935,0.07826280485391617,0.20652400471642612
1759485815958770700,0.101770751953125,0.02273585568219423,0.1343359897315502,0.25392127731591463
1759485815968825900,0.111825927734375,0.1177422900661826,0.1216010113209486,0.22991598621979353
1759485815978880800,0.121880859375,0.08192366544902324,0.06958090122640133,0.09783610485196113
1759485815988935700,0.131935791015625,0.0080801383420825,0.05635317086279392,-0.027511984042823314
1759485815998990800,0.141990966796875,0.004330430419743061,0.09785656311810016,-0.09319646235257387
1759485816009045800,0.152045654296875,0.030367373473942277,0.05787818847298622,-0.07658873416185379
1759485816019102000,0.16210205078125,0.01761427488476038,-0.005813070192933082,-0.0825884129680693
1759485816029156600,0.172156494140625,-0.010266250209510325,-0.058818099671602245,-0.06498992017433047
1759485816039211800,0.182211669921875,-0.05768062007427215,-0.05921732812225818,0.024457418777793644
1759485816049266700,0.1922666015625,-0.048618777218461036,0.000025134441256523132,0.09507701540216804
1759485816059321900,0.20232177734375,-0.053181847350299356,-0.030029227560758587,0.12748802353292704
1759485816069376800,0.212376708984375,-0.05264087234139442,0.0012695815443992614,0.17205898666530847
1759485816079431700,0.222431640625,-0.054979544422030444,0.03265256180167198,0.19598054500073192
1759485816089488000,0.23248779296875,-0.057096682706475256,0.02031856540739536,0.22727380114793777
1759485816099542800,0.242542724609375,-0.04932254157364368,-0.003177460992336273,0.221927325553447
1759485816109597700,0.25259765625,0.021627602179348466,-0.03522971881330013,0.2491981943167746
1759485816119652900,0.26265283203125,0.0435574021756649,-0.059202130553126335,0.27848654038235543
1759485816129707800,0.272707763671875,0.05873334399759769,-0.04598609062731266,0.283282250226289
1759485816139763000,0.282762939453125,0.049343876622617244,-0.031982699716091155,0.23955709026828406
1759485816149817600,0.292817626953125,0.07691606642007827,-0.006666472151875495,0.24271087812408804
1759485816159873800,0.302873779296875,0.07916033821552991,0.03252922768294811,0.27548852761015297
1759485816169928200,0.31292822265625,0.047888124856352805,0.05405950696766376,0.2902903754226863
1759485816179983400,0.3229833984375,0.030787936973571777,0.027372575572133063,0.2714497736133635
1759485816190038300,0.333038330078125,0.02716448577940464,-0.023922142857313155,0.24138050630316138
1759485816200093200,0.34309326171875,0.09109159902781247,0.0012888707667589186,0.1946327836535871
1759485816210148400,0.3531484375,0.10824176353216171,0.01989946321249008,0.15015899728536605
1759485816220204300,0.363204345703125,0.09545447041243314,0.00027355624437332154,0.14380641338825226
1759485816230259200,0.37325927734375,0.07038578786849975,-0.005833528459072113,0.15772782510444522
1759485816240314400,0.383314453125,0.035493922707438466,0.012049918755888938,0.2016699888139963
1759485816250369300,0.393369384765625,-0.011461889734864235,-0.05432312633991241,0.22462591698765752
1759485816260424400,0.403424560546875,-0.08159604092985391,-0.039810616862773894,0.2495689273253083
1759485816270479000,0.41347900390625,-0.06665712273418903,-0.06036766720116138,0.2854910123169422
1759485816280534300,0.4235341796875,-0.021978899835050105,-0.09524141218364238,0.26901231733337044
1759485816290590200,0.433590087890625,-0.02830810285657644,-0.03367196797728538,0.23117899189293384
1759485816300645400,0.443645263671875,-0.028557109181582926,-0.01260404550731182,0.17662717136368156
1759485816310700300,0.4537001953125,-0.024452011950314042,0.02078442935347557,0.1304250998981297
1759485816320755200,0.463755126953125,-0.010741174244880676,0.030366496691107747,0.08468231650739907
1759485816330810400,0.473810302734375,0.014215864618122577,-0.006793313401937485,0.015420856493711471
1759485816340865300,0.483865234375,0.1037543889850378,-0.024167057529091835,-0.048153497794270514
1759485816350921200,0.493921142578125,0.18662483376488087,-0.04032616516947746,-0.022649784833937883
1759485816360976100,0.50397607421875,0.27895488854646683,-0.022370237240195275,0.05396627572625875
1759485816371031300,0.51403125,0.3024348405942321,0.0009784896433353424,0.15504253154322503
1759485816381086500,0.52408642578125,0.2850333316773176,0.0015945757150650024,0.1913444096326828
1759485816391141000,0.53414111328125,0.24515125701352952,0.03568564588725567,0.20363544366806743
1759485816401196300,0.5441962890625,0.10733385490700602,0.07688157962858677,0.20340821078345178
1759485816411251200,0.554251220703125,-0.09211889624893664,0.07933189539015292,0.19852906043976545
1759485816421307400,0.564307373046875,-0.1104208611369133,0.09773498256504536,0.11570873841196298
1759485816431362000,0.574362060546875,-0.030688568252325056,0.11009878957569598,0.07860752663835882
1759485816441417200,0.584417236328125,-0.011232172632217407,0.0903869578897953,0.0186067930534482
1759485816451472400,0.594472412109375,0.04269990856349468,0.07469020706415176,0.005941080486774444
1759485816461527300,0.60452734375,0.085986092582345,0.10740648175179958,0.010977321088314056
1759485816471582200,0.614582275390625,0.10065700749158858,0.1862590691924095,0.06489990380331874
1759485816481638100,0.62463818359375,0.039135786341130734,0.20146014545559882,0.1211116203688085
1759485816491693300,0.634693359375,-0.04138941048681736,0.21713468444943426,0.12431202384531498
1759485816501748200,0.644748291015625,-0.06327186421006918,0.1894049660027027,0.026310937689989804
1759485816511803100,0.65480322265625,-0.05435176791250705,0.111243867957592,-0.08757292338237166
1759485816521858300,0.6648583984375,-0.01281798051893711,0.022940146082639692,-0.07737652353867888
1759485816531913200,0.674913330078125,0.013601239851117133,0.015351882910728453,-0.016286971803754567
1759485816541968400,0.684968505859375,0.0013840017043054104,0.017404723787307737,0.023538550367206333
1759485816552024300,0.6950244140625,0.006031681379675865,0.08465221363008021,0.07046820545494556
1759485816562079200,0.705079345703125,-0.042514615124464035,0.1349637662410736,0.09424743271023034
1759485816572134100,0.715134033203125,-0.12355185312777757,0.10505378114581107,0.1455667010590434
1759485816582189300,0.725189208984375,-0.2105705036282539,0.058953124228119845,0.14142930899336933
1759485816592244200,0.735244140625,-0.23567104261517524,-0.003060556614398956,0.12668708241358398
1759485816602299100,0.745299072265625,-0.14424860419780014,0.010182955840229987,0.10444690129384397
1759485816612354300,0.755354248046875,-0.04185936608612537,0.03969955770373344,0.04345715667158365
1759485816622410200,0.76541015625,0.0660769847586751,0.09796528418958186,0.008992869272828101
1759485816632465400,0.77546533203125,0.21066373486965895,0.11954174070358276,0.0011044541105628013
1759485816642520000,0.78552001953125,0.24564167087897656,0.0920031609147787,0.0034307051010429856
1759485816652575200,0.7955751953125,0.15985606930479407,0.05823883847892284,0.032835663283616305
1759485816662630400,0.80563037109375,0.06062398004978895,0.02177168682515621,0.06043167234808206
1759485816672685000,0.81568505859375,-0.018821312586963176,0.015852818170189856,0.03887684314399958
1759485816682740200,0.825740234375,-0.04919570032358169,0.0028086276799440383,0.020701573375612497
1759485816692796200,0.835796142578125,-0.04074117571115494,0.08091653423309325,-0.0058827744282782075
1759485816702851300,0.845851318359375,0.016101824495196343,0.11890168923437594,-0.01878273414224386
1759485816712906200,0.85590625,0.10330109225958585,0.09848083249628543,0.022253478992730377
1759485816722961200,0.865961181640625,0.10050444727838038,0.05631693050563335,0.1367135325178504
1759485816733016300,0.876016357421875,0.1629220327466726,0.04895312373936176,0.23795769224762914
1759485816743071200,0.8860712890625,0.24125761057585476,0.029355273821949957,0.3149054689802229
1759485816753126100,0.896126220703125,0.2689383753143251,-0.017956512451171875,0.2691965878590941
1759485816763182000,0.90618212890625,0.17946546352952716,-0.012763619983196257,0.1964825031735003
1759485816773237200,0.9162373046875,0.10012421578913927,0.03620587036907673,0.11251242658868431
1759485816783292400,0.92629248046875,0.05188888493031263,0.07852525518238544,0.1017838195644319
1759485816793347300,0.936347412109375,-0.07073942361176014,0.08320435290932655,0.11438713441938161
1759485816803402200,0.94640234375,-0.14567220726013183,0.020659926190972327,0.11475012251287699
1759485816813457200,0.95645703125,-0.11628317729905246,0.011260229682922363,0.19420345232561229
1759485816823513300,0.966513427734375,0.0017868834167718887,0.04872866733372211,0.2917369209691882
1759485816833568300,0.976568359375,0.04940525142103434,0.06989245139360427,0.3331881446458399
1759485816843623200,0.986623046875,0.11589943867847323,0.025621347990632055,0.34094767273142934
1759485816853678300,0.99667822265625,0.21172712631747126,0.04837795419991016,0.27346257474049923
1759485816863733200,1.006733154296875,0.21605448799729346,0.07444412334859371,0.21442177222892642
1759485816873788400,1.016788330078125,0.19385887667164206,0.040001755520701406,0.15105565386414527
1759485816883843000,1.026843017578125,0.14227774251624942,-0.012996259695291518,0.12957900446280837
1759485816893898200,1.036898193359375,0.11838204927444457,-0.078727499756217,0.11391893238574266
1759485816903954200,1.0469541015625,0.12687106067836285,-0.0928963103622198,0.14634323838949204
1759485816914009300,1.05700927734375,0.137668202894181,-0.03637771980464458,0.2525615332700312
1759485816924064300,1.067064208984375,0.17427052523493766,0.005906593695282936,0.33224151144549247
1759485816934119200,1.077119140625,0.19283435592949388,0.05295592963993549,0.38035964566543695
1759485816944174300,1.08717431640625,0.14491568980440497,0.07156535304188728,0.3204642721511423
1759485816954229200,1.097229248046875,0.04667860293611884,0.07290799982249736,0.28359628461152314
1759485816964285400,1.107285400390625,0.08537351364195346,0.11942308275997637,0.2652072259619832
1759485816974340000,1.117340087890625,0.05181786552071571,0.09008242198526858,0.2571229959666729
1759485816984395300,1.127395263671875,0.07821428953707217,0.03335164998173713,0.22596417985409498
1759485816994450400,1.137450439453125,0.18702829999923706,-0.0182125330388546,0.2666667771205306
1759485817004505000,1.147505126953125,0.28561376191377635,0.04316343442201614,0.39782866686061025
1759485817014560300,1.157560302734375,0.35008360373675823,0.16894085464477537,0.47697921433448787
1759485817024615200,1.167615234375,0.3156498576067388,0.26178806516826153,0.545617720144242
1759485817034670300,1.17767041015625,0.17909809152185915,0.1869739394634962,0.5677263838388026
1759485817044726300,1.187726318359375,0.19583412226736543,0.04465922593772411,0.7069647586591541
1759485817054781200,1.19778125,0.1683333902709186,-0.16470599355399607,0.8792916024804115
1759485817064836400,1.20783642578125,0.20532266610264777,-0.39020518624484535,1.0560174119129777
1759485817074891300,1.217891357421875,0.19657471150159836,-0.4924900871992111,1.271204761686921
1759485817084946200,1.2279462890625,0.04497252967059612,-0.5854319902688264,1.3986758340850471
1759485817095001300,1.23800146484375,0.04642550495788455,-0.5286223078101873,1.2942255717903375
1759485817105056300,1.24805615234375,0.08406725334897637,-0.30471885987818237,1.0699044829681514
1759485817115112200,1.2581123046875,0.12291034035384654,0.028258710756897926,0.74485536724478
1759485817125167400,1.26816748046875,0.2443693128556013,0.3457610643625259,0.4413075969725847
1759485817135222300,1.27822216796875,0.32280732814595103,0.5284370143711566,0.0908203808709979
1759485817145277200,1.288277099609375,0.42555875063352283,0.4851736267060041,-0.03895809168666601
1759485817155332400,1.298332275390625,0.44828839577063917,0.6043073711305856,-0.014502280344069004
1759485817165387300,1.30838720703125,0.4282299426041543,0.44747547195255755,-0.17137334248870612
1759485817175442200,1.318442138671875,0.12086970137171446,-0.03481353922784328,-0.4960653153374791
1759485817185498000,1.328498046875,-0.00428688353896141,-0.05242810637354851,-0.3778343649715185
1759485817195553300,1.33855322265625,-0.19996201585233211,0.06585925035476684,-0.4805471359491348
1759485817205608400,1.3486083984375,-0.4041255750477314,0.1161105972111225,-0.7559341028809548
1759485817215663000,1.3586630859375,-0.49778994717299935,-0.03757482063472271,-0.9572954641371965
1759485817225718300,1.36871826171875,-0.3765970051962882,-0.21996318587362765,-1.062450952091813
1759485817235773400,1.3787734375,-0.24234920520484446,-0.3364338485687971,-1.017821244509518
1759485817245828400,1.388828369140625,-0.4161504324276,-0.2109025120615959,-0.9507511570602655
1759485817255884300,1.39888427734375,-0.5193662575565279,-0.14751462025642395,-0.9496922956570982
1759485817265939200,1.408939208984375,-0.7486234876066445,-0.3145329824060201,-0.9461179443016647
1759485817275994400,1.418994384765625,-0.8558047823004424,-0.4150251547247171,-0.6688473555803298
1759485817286049300,1.42904931640625,-0.7696183448404074,-0.39649581082165236,-0.29128362424373627
1759485817296104200,1.439104248046875,-0.9967577059537172,-0.2534714877218008,-0.10689531735926866
1759485817306159400,1.449159423828125,-1.0769804857689886,-0.26314298690855503,-0.11211422105133532
1759485817316214300,1.45921435546875,-0.8536469466794282,-0.2422165187358856,-0.021648937228322028
1759485817326270500,1.4692705078125,-0.9797265647191554,0.0030120412975549694,0.1869233783200383
1759485817336325400,1.479325439453125,-1.1641267812371254,0.07205342881977558,0.1874389266267419
1759485817346380300,1.48938037109375,-0.9630103346526622,0.05504384182989597,-0.4000727925255894
1759485817356435200,1.499435302734375,-0.9497263440571725,0.3583750467419624,-1.0081842321142553
1759485817366490400,1.509490478515625,-0.5546827048052102,0.54801323697865,-1.2472741432622074
1759485817376545300,1.519545166015625,-0.1378524734199047,0.604032645842433,-1.2696329823255539
1759485817386600200,1.52960009765625,0.31646234303340315,0.5006570270419121,-1.1037582372531294
1759485817396655400,1.5396552734375,0.7438898832134903,0.49855274823904033,-0.8969377338081598
1759485817406711300,1.549711181640625,1.176874546064064,0.5345154575020075,-0.8155147113576531
1759485817416766500,1.559766357421875,1.315487555527687,0.31269758367240424,-0.7742638325586915
1759485817426821000,1.569821044921875,1.181160333624482,0.09348141677379608,-0.7009089657515287
1759485817436876300,1.579876220703125,0.8395932138204574,-0.03406652025282383,-0.7854460285693406
1759485817446931500,1.589931396484375,0.266889772221446,-0.07120996373295783,-0.7430567933902144
1759485817456986000,1.599986083984375,-0.06442534509412944,-0.1051923128336668,-0.4131663751155138
1759485817467041300,1.610041259765625,-0.6351351286578923,-0.10601882678568363,-0.10490034414976834
1759485817477097200,1.62009716796875,-1.3936428083539008,0.003134206372499466,-0.21322189491987228
1759485817487152400,1.63015234375,-1.6307991210907697,-0.005395721563696861,-0.16724486438184977
1759485817497207300,1.640207275390625,-1.721788136526942,0.2340904954254627,0.17993395782411098
1759485817507262200,1.65026220703125,-1.701536206614971,0.36365912462472916,0.4764031680122018
1759485817517317400,1.6603173828125,-1.0862369744140654,0.38051732044517994,0.8457146193102002
1759485817527372300,1.670372314453125,0.010668182073906064,0.3876736219406128,0.8864005577027797
1759485817537427200,1.68042724609375,0.6374012469589709,0.3327385011821985,0.6589473083347082
1759485817547482400,1.690482421875,1.395261349466443,0.22572189553081987,0.219792797742784
1759485817557538300,1.700538330078125,1.6786685412466524,0.09759937348663807,-0.3151522833481431
1759485817567593200,1.71059326171875,1.374526019951701,0.2546510528951883,-0.8621826467692851
1759485817577648400,1.7206484375,1.4466454997450113,0.4473603211402893,-1.0791066110774874
1759485817587703300,1.730703369140625,1.3626742541164159,0.7758084316521883,-0.8359966506332158
1759485817597758200,1.74075830078125,1.3432336405873297,1.0570376948714255,-0.3081450349345803
1759485817607813400,1.7508134765625,1.4722551572978495,0.965125719371438,-0.3189759332895279
1759485817617868500,1.76086865234375,1.586999142330885,1.0766676934927701,-0.08420739247202873
1759485817627924200,1.77092431640625,1.7692723567575215,0.8462959263294935,-0.13577742071151733
1759485817637979400,1.7809794921875,1.6703782672852276,0.7583633758544921,-0.13764175327867267
1759485817648034300,1.791034423828125,1.6385574801325797,0.9224883546501398,-0.10567658921927213
1759485817658089500,1.80108935546875,1.6799872226297854,0.9567208791196345,-0.11288052924871445
1759485817668144000,1.81114404296875,1.3959434865117073,0.7666419593781232,-0.41587855668365953
1759485817678199300,1.82119921875,1.1974199790298938,0.6691109749525785,-0.7345929164275526
1759485817688254500,1.83125439453125,1.125001224029064,0.760726597854495,-0.8637620249152183
1759485817698310400,1.841310302734375,1.2242425195038318,0.8788105409651994,-0.8556067755103111
1759485817708365300,1.851365234375,1.1899591416299342,0.8729746744185686,-1.1291524984896182
1759485817718420200,1.861420166015625,0.7428945155005902,0.9950637615174055,-1.2606667087987065
1759485817728475400,1.871475341796875,0.4871253087630495,0.9772884508520364,-1.488076703546941
1759485817738530300,1.8815302734375,0.2937993333917111,1.1481214028537272,-1.0946239136829972
1759485817748585200,1.891585205078125,0.16045356027390806,1.3050596850156784,-0.2707040698125958
1759485817758640400,1.901640380859375,0.011149718513153493,0.8604507084101438,-0.06837941648215055
1759485817768695300,1.9116953125,-0.5455659168917686,-0.011174304965138434,-0.07987462396472692
1759485817778751500,1.92175146484375,-1.1057745455116033,-0.8040215497016906,0.02694908946305513
1759485817788806100,1.93180615234375,-1.4494874451726674,-1.4645061506062744,-0.06419336296916008
1759485817798861300,1.941861328125,-1.8395628675580025,-2.171170903405547,-0.682728289155662
1759485817808916200,1.951916259765625,-2.047144126242399,-2.9655577787995338,-1.716717409133911
1759485817818971400,1.961971435546875,-1.7673405119121073,-2.9073972662538288,-1.938677321782708
1759485817829026300,1.9720263671875,-0.035852198093198236,-2.0170833344995973,-0.8649950738415122
1759485817839081200,1.982081298828125,2.174719535797834,-1.3381395323187113,0.16256050595790147
1759485817849136400,1.992136474609375,3.1998867591559885,-2.040219879937172,-0.27088527159839865
1759485817859192300,2.0021923828125,3.1046108601808546,-3.4090234305888414,-1.1604226660221815
1759485817869247200,2.012247314453125,1.845451341074705,-4.715870583543182,-2.0635347045511008
1759485817879302100,2.02230224609375,0.5566530550301074,-5.156514748170972,-2.247982924929261
1759485817889357300,2.032357421875,-0.3482709282916039,-5.374886865460872,-2.5974974966064095
1759485817899412500,2.04241259765625,-0.23007117678150532,-5.517441232961416,-2.775529712462425
1759485817909467100,2.052467041015625,0.24656419255137443,-5.681667334043979,-2.8588123913049697
1759485817919522300,2.062522216796875,0.8909495262440293,-5.601370977535844,-2.4995059089317917
1759485817929578200,2.072578125,1.584413071360439,-4.789968669933081,-1.6230732030138373
1759485817939633400,2.08263330078125,2.128775969137996,-3.648505555924773,-0.766966953548789
1759485817949688300,2.092688232421875,2.249641213530302,-2.823290996068716,-0.6271414264902472
1759485817959743200,2.1027431640625,2.0921640021860597,-2.203563937488198,-0.9168775290310383
1759485817969798400,2.11279833984375,2.0874539247989654,-1.7662398571938276,-1.6276733902856706
1759485817979853300,2.122853271484375,2.3137083197712895,-1.3283780167609451,-2.248100413829088
1759485817989908200,2.132908203125,2.686536254757643,-0.9232418033659457,-2.5908675570726394
1759485817999963400,2.14296337890625,2.9867256545126435,-0.5678665229618549,-2.6692247622117398
1759485818010019300,2.153019287109375,3.0147756909549233,-0.5426315439403057,-2.6192379115104676
1759485818020074200,2.16307421875,3.348461702120304,-0.5847872626245022,-2.3696742448821664
1759485818030129200,2.173129150390625,3.8234751693397757,-0.589420183122158,-2.1323072120040654
1759485818040184300,2.183184326171875,4.3465638084203,-0.7314245155245065,-1.848185442213714
1759485818050239200,2.1932392578125,4.402784877336025,-0.9617167877107858,-1.5222177503407002
1759485818060294400,2.20329443359375,3.5412183166384694,-1.1720178267478942,-1.2059151279136537
1759485818070349300,2.213349365234375,1.9657504760168492,-1.4769991369545459,-0.6067252459272742
1759485818080404200,2.223404296875,0.21949951388463376,-1.678807657456398,0.18178426186591387
1759485818090460400,2.23346044921875,-0.9385995314955711,-1.8433873942822216,1.0641825981900095
1759485818100515300,2.243515380859375,-2.3660516704708336,-2.392898176342249,1.4275041614234447
1759485818110570200,2.2535703125,-3.8793046085894107,-2.219837611418962,2.0054607012450694
1759485818120625200,2.263625244140625,-4.432016232517362,-1.9692016393840313,2.482996088157594
1759485818130680300,2.273680419921875,-4.515910905778408,-2.037908680385351,2.475194766756892
1759485818140735500,2.283735595703125,-4.395817376410961,-2.546872348001599,1.6305682349443436
1759485818150790100,2.2937900390625,-2.430384149649739,-2.785502240422368,1.1284095711678266
1759485818160846300,2.303846435546875,-0.23825258354097603,-2.189145536035299,0.6545908666908741
1759485818170901800,2.31390185546875,-0.41724224625229833,-1.0625357077658175,0.3764692140981555
1759485818180957000,2.32395703125,-2.4115970315933226,-1.1053875920206309,-0.13266688747555017
1759485818191011800,2.33401171875,-3.2597125745654103,-1.7443612028628586,-0.09557517418265342
1759485818201066800,2.344066650390625,-4.295439185860753,-1.7294699232012032,-0.7274936058163642
1759485818211122000,2.354121826171875,-3.6702448017850515,-1.6389385884046554,-1.1075365867480635
1759485818221176800,2.3641767578125,-1.6705699904650448,-1.288493165618181,-1.2685606769189237
1759485818231231700,2.374231689453125,0.10039689525067806,-0.801842452096939,-1.7644266702920197
1759485818241287700,2.38428759765625,-0.7244143445014953,-0.46983927945196624,-1.7964739596769213
1759485818251342800,2.3943427734375,-2.220285355186462,0.0643190351754427,-0.6196028476789593
1759485818261397800,2.404397705078125,-3.467417751890421,0.03009586305618286,0.39360622685998675
1759485818271453000,2.414452880859375,-4.988887898734212,-0.35028234117925167,0.5970303658649325
1759485818281507800,2.4245078125,-4.878014033132791,0.2665127556025982,1.1436249682173132
1759485818291562800,2.434562744140625,-3.961231196647882,1.0293442167818545,1.8777490980893372
1759485818301618000,2.444617919921875,-4.047283924725652,1.3820780427664519,1.5490174944609403
1759485818311672600,2.454672607421875,-4.456141788992285,1.541330447089672,1.2167752523630857
1759485818321728800,2.464728759765625,-4.239515638586878,1.808755641362071,1.4483034960851073
1759485818331783700,2.47478369140625,-3.9873663393795487,2.2687287758380172,1.4875263761878013
1759485818341838800,2.4848388671875,-3.7399341318219896,2.630564776688814,1.6172273995950817
1759485818351894000,2.49489404296875,-3.867862008076906,2.9086066420435905,1.8138997262522578
1759485818361948700,2.50494873046875,-3.8989287619918582,3.0581314330786467,1.9137357727497815
1759485818372003800,2.51500390625,-3.877071150448918,3.0426293280422687,2.339918573565781
1759485818382058800,2.525058837890625,-3.204305744642019,2.9315567249983547,2.6758985408872364
1759485818392113700,2.53511376953125,-3.1952696207493543,2.9032261180490253,2.8236738579064604
1759485818402169600,2.545169677734375,-3.0865286755234003,2.8533985495626926,3.3878216526061293
1759485818412224800,2.555224853515625,-2.971636806452274,2.720506328898668,3.3339392557710408
1759485818422280000,2.565280029296875,-2.4550831220984457,2.6956775925904513,3.4087358458191153
1759485818432334800,2.5753349609375,-2.2940257141798734,2.8205075028300284,3.4247152129784224
1759485818442389800,2.5853896484375,-1.7795903371542692,2.902296143722534,3.1972409208223223
1759485818452444700,2.595444580078125,-1.441906780785322,2.9331828648954628,2.959977056057751
1759485818462499800,2.605499755859375,-1.1074942089110613,2.735166722413897,2.767523223878443
1759485818472555000,2.615554931640625,-0.7276987729996442,2.6000200008213517,2.3923165770620107
1759485818482610700,2.625610595703125,-0.2659820097267628,2.904761657053232,1.9600532872885466
1759485818492665900,2.635665771484375,0.17627835792601107,3.2314556173741815,1.518551044526696
1759485818502720800,2.645720703125,0.7229606385618448,3.522877188783884,1.222776246343553
1759485818512776000,2.65577587890625,1.4756675960898398,3.7671652530968185,0.976276643460989
1759485818522830800,2.665830810546875,2.8497967256784436,3.76513053239882,0.4183391015782952
1759485818532885800,2.6758857421875,5.689391206294298,2.75213305478394,-0.5575748460501432
1759485818542941000,2.68594091796875,6.574829640966653,1.646880487319827,-0.6870791778415442
1759485818552995800,2.695995849609375,1.9744962386608123,-0.19632219804525375,-0.2664616099372506
1759485818563051800,2.7060517578125,-0.6546101559132337,-1.9953712689071892,-1.2162813313663006
1759485818573106700,2.716106689453125,-1.5694634856402874,-3.61096814469099,-2.466895724967122
1759485818583161900,2.726161865234375,1.99775728726089,-3.858147838792205,-1.6206524056077003
1759485818593217000,2.736217041015625,1.990108818334341,-3.8659143811404704,-1.128026417069137
1759485818603271700,2.746271728515625,0.7417512637495994,-5.1671115455090995,-0.9566711947590112
1759485818613326800,2.756326904296875,0.13087094396948815,-4.960730310264229,-0.6040615796759724
1759485818623381800,2.7663818359375,-0.07994564337432385,-3.603030921950936,0.3230772311285138
1759485818633437000,2.77643701171875,-0.39289106432795523,-2.2046821278631685,1.2363508904486893
1759485818643492600,2.78649267578125,-0.8870277496904134,-1.107977608513832,2.2543787634462116
1759485818653547800,2.7965478515625,-1.4220587554991244,-0.13162322364151477,2.9271669656068084
1759485818663603000,2.80660302734375,-1.9998960528552532,0.7334066292524337,3.2189117776215075
1759485818673657900,2.816657958984375,-1.8058342009574173,1.0320137282520532,3.3219065804108974
1759485818683712800,2.826712646484375,-1.8649404699206351,0.7328542560666799,2.9956141866281625
1759485818693767700,2.836767578125,-1.922675450530648,0.3485802134364843,2.9612755714356895
1759485818703822800,2.84682275390625,-2.291279338081181,-0.06589023001492023,2.661846050137281
1759485818713878000,2.8568779296875,-2.683057180470228,-0.462133527380228,2.111507292820513
1759485818723933700,2.86693359375,-2.7313509635180235,-1.109273493543267,1.7547180539652705
1759485818733988900,2.87698876953125,-2.609969732427597,-1.8995862513661383,1.3096709782034157
1759485818744043800,2.887043701171875,-2.627144739112258,-2.634393979588151,0.7905977122440934
1759485818754099000,2.897098876953125,-2.530425655591488,-3.0233395211607217,0.4321630442693829
1759485818764153600,2.907153564453125,-2.264426694729924,-2.9439672937601804,0.48818216087222094
1759485818774208800,2.917208740234375,-2.583930451285839,-2.90314311594069,0.2100821355894208
1759485818784264000,2.927263916015625,-2.1381313881129027,-3.084635993644595,-0.5764280150800943
1759485818794318800,2.93731884765625,-1.3065385253965853,-3.2239427575260398,-1.4972554507806897
1759485818804374800,2.947374755859375,-1.0384349934712052,-2.9150194316953417,-2.289891683115065
1759485818814429700,2.9574296875,-0.6491109739750623,-2.1313708079367877,-2.5339067757055163
1759485818824484900,2.96748486328125,-0.5564958186417818,-1.3604571625888346,-2.618236917774379
1759485818834539800,2.977539794921875,-0.5954957036435604,-0.5360656095534563,-2.4854510800942777
1759485818844594700,2.9875947265625,-0.422280240419507,0.4094675205975771,-1.975511553183198
1759485818854649900,2.99764990234375,-0.29364859980940816,1.0513257469654083,-1.284202190425992
1759485818864704800,3.007704833984375,-0.5525418203189969,1.0445154824286698,-1.0660106904000044
1759485818874760000,3.017760009765625,-0.7449275556981563,0.8967454261064529,-1.197365326233208
1759485818884815600,3.027815673828125,-1.165272444140911,0.6668582275897265,-1.5370347957223653
1759485818894870800,3.037870849609375,-2.057239988321066,0.5641343506962061,-1.8690733319416641
1759485818904925700,3.04792578125,-2.4554656916752458,0.6280693549901246,-2.1328706911057234
1759485818914980900,3.05798095703125,-2.650724352142215,1.1105232013434172,-1.8063392278701067
1759485818925035800,3.068035888671875,-2.275035182505846,1.9705998157441615,-1.25367553473711
1759485818935090700,3.078090576171875,-0.6633797378242016,2.6495395262718198,-0.36136399942487474
1759485818945145900,3.088145751953125,-0.26626900997459885,3.0232763927966353,-0.3257897049576044
1759485818955201000,3.098200927734375,-0.13222133566513658,3.0721307323366402,-0.2558580905973911
1759485818965256700,3.108256591796875,-0.18584815030395985,2.7638147247493263,-0.14809592727571724
1759485818975312000,3.118311767578125,0.012719196319580078,2.2206220397949217,-0.22335341283380983
1759485818985366800,3.12836669921875,0.19814283760115503,1.73389592294991,-0.6266542274951934
1759485818995422000,3.138421875,0.73712477299273,1.3192092063993215,-0.22646336154788732
1759485819005476600,3.1484765625,2.5149317338615655,0.8729337578862905,0.5118535438388586
1759485819015531800,3.15853173828125,2.671179111149907,0.5334340920060873,0.3929518546044826
1759485819025587000,3.1685869140625,2.4198849674671887,0.3203372847706079,0.027663959734141826
1759485819035641900,3.178641845703125,2.4348779539376495,0.33519758477211,0.2735565366342664
1759485819045696800,3.18869677734375,2.4451766451120376,0.22238076840937138,0.7284373164072633
1759485819055752700,3.198752685546875,3.3020775520861148,0.2235907287210226,1.0138935496717691
1759485819065808000,3.208807861328125,4.596374435546994,0.22887305303812025,0.8101768574610352
1759485819075862800,3.21886279296875,4.932146605336666,-0.03271627468764782,0.23831483512222765
1759485819085917700,3.228917724609375,4.229880379757285,-0.15211130039691925,-0.8264929092288017
1759485819095972900,3.238972900390625,3.0058032799482346,-0.3923649946272373,-1.4430194182023406
1759485819106027800,3.24902783203125,1.9615473252385853,-0.057555532389879226,-1.2107888714298605
1759485819116083000,3.2590830078125,0.6026099195629357,0.35529753899276256,-1.3455083075210452
1759485819126138600,3.269138671875,-0.25422033332772553,0.8607739490151405,-1.3842115476638077
1759485819136193800,3.27919384765625,-1.0860012659620493,1.3097878825813531,-1.0746306347072123
1759485819146248700,3.289248779296875,-1.3535592197686432,1.4850871663421392,-1.175375320482254
1759485819156304000,3.299303955078125,-1.255197629737854,1.4947265168249606,-0.7942796156272292
1759485819166358800,3.30935888671875,-1.3735282410860061,1.1963076338738203,-0.5326613540679216
1759485819176414000,3.3194140625,-1.809492138943076,0.3895464300751686,-0.4994833070874214
1759485819186468900,3.32946875,-1.7779449080348013,-0.8031950357496738,-0.7246680270016193
1759485819196524000,3.33952392578125,-1.6575737307697533,-2.011457895833254,-1.1199202675029636
1759485819206579000,3.349578857421875,-1.6637176403522491,-3.148319069004059,-1.5482567392215132
1759485819216635000,3.359634765625,-1.347626907110214,-3.678979604643583,-1.4677441096141934
1759485819226689800,3.369689697265625,-0.631699820446968,-3.167654468593001,-0.43311552268862724
1759485819236745000,3.379744873046875,0.2335597495496273,-3.195719702604413,-0.07515197935700416
1759485819246800000,3.3897998046875,0.8104735023200511,-4.2837095851004126,-0.5001458626493811
1759485819256855000,3.39985498046875,1.6324048027217388,-5.473036274045706,-1.1289204432994127
1759485819266910000,3.409909912109375,2.04943662109375,-6.416186892974376,-1.5197826321482657
1759485819276964900,3.41996484375,2.810446712064743,-7.489003171736002,-1.7025947757571935
1759485819287020000,3.43002001953125,3.6623616473197935,-8.686196356272697,-2.5268288001433015
1759485819297076000,3.440075927734375,3.498700194382667,-8.741799001029133,-3.2048926046192645
1759485819307131000,3.450130859375,3.029360681146383,-6.806144826459884,-3.0737849292844532
1759485819317185800,3.460185791015625,2.7803894274532794,-4.714631981658935,-2.5545693322449923
1759485819327241000,3.470240966796875,2.940817305296659,-3.104591570958495,-2.129112507615983
1759485819337296100,3.480296142578125,3.1275311325192447,-1.870949939468503,-1.4084332579895853
1759485819347350800,3.490350830078125,2.821108975854516,-0.8017021668434142,-0.8485887134417891
1759485819357406000,3.500406005859375,2.3457553168952465,0.1723164685577154,-0.6794929604962467
1759485819367460900,3.5104609375,2.1179332342147825,0.8235030797630548,-0.8386331366166472
1759485819377517000,3.52051708984375,2.1313357366234063,1.053190956315398,-1.1092091961354016
1759485819387571700,3.53057177734375,2.339727581038326,0.7168348491579294,-1.2558917494818567
1759485819397627000,3.540626953125,2.3331020254187282,0.04152560408711433,-1.259255672957003
1759485819407682000,3.55068212890625,1.990815505298972,-0.30669395934343335,-1.3131746024101971
1759485819417737000,3.560737060546875,1.5293763899236916,-0.6037029754966498,-1.2742927908301354
1759485819427792000,3.5707919921875,0.8339064003556966,-0.8898825545996427,-0.9601204584300518
1759485819437846800,3.5808466796875,-0.10377440885975957,-1.0215449412077664,-0.5852838139697909
1759485819447902000,3.59090185546875,-0.7914141431935131,-1.205416823002696,-0.20908932515978812
1759485819457957000,3.60095703125,-1.387834998857975,-1.5362223102957009,0.1248705345109105
1759485819468013000,3.611012939453125,-1.6797393853485583,-1.8713234489560127,0.5871545762777328
1759485819478068000,3.62106787109375,-1.397353937831521,-1.9107482813715935,1.4137597137093543
1759485819488123000,3.631122802734375,-1.660608860681951,-1.7631120805621145,2.212450716038048
1759485819498178000,3.641177978515625,-2.0318466038674114,-2.329060202682018,1.6190090223148463
1759485819508232700,3.651232666015625,-1.5218325504153967,-1.5882009193360804,0.7323261405393481
1759485819518288000,3.661287841796875,-2.0018729058861733,-0.6150093824088573,0.3201514068096876
1759485819528343000,3.671343017578125,-3.9259666987821458,-0.4785650222212076,-0.7195879472583532
1759485819538398000,3.68139794921875,-3.783757199196517,-0.6108429103791714,-1.1524974259808658
1759485819548454100,3.6914541015625,-3.2056405003771182,-1.451455530375242,-1.4997051820203662
1759485819558508800,3.7015087890625,-2.0748387733757494,-1.9060083933681249,-1.375046244433522
1759485819568564000,3.71156396484375,-2.3824749820053577,-1.6711182719975708,-1.111318151113391
1759485819578619000,3.721618896484375,-2.1069094436362383,-1.1584721164762972,-0.195312728741765
1759485819588673800,3.731673828125,-2.1819611774891614,-0.8017951058238745,0.3400219361886382
1759485819598729000,3.74172900390625,-1.9518764105737207,-0.5856582002401352,0.5845426402136683
1759485819608784000,3.751783935546875,-0.6429255633383989,-0.4246194970220327,0.5404720278188586
1759485819618839000,3.761839111328125,-0.16483634193539617,-0.2172901672720909,0.4026391358822584
1759485819628894000,3.77189404296875,-1.661930756935477,0.3296013722002506,0.7959545631021261
1759485819638950000,3.781949951171875,-2.944271829664707,0.8495037824600934,1.1947110123321414
1759485819649005000,3.792005126953125,-3.3084447490304707,1.0464520034492015,1.400166657164693
1759485819659060000,3.80206005859375,-3.8589199922084805,0.7006447618573903,1.8044424543380737
1759485819669115000,3.812114990234375,-4.077167606335878,0.7978975138634443,2.299858073595166
1759485819679169800,3.822169677734375,-4.328750503832102,1.2896335678249597,2.2644202649891376
1759485819689225000,3.832224853515625,-3.879826002115011,1.2908160556077957,2.32097188103348
1759485819699280100,3.842280029296875,-3.7238837452530857,1.6973656429320574,2.338533256687224
1759485819709334800,3.852334716796875,-3.979156144917011,1.7324293575286864,2.0833377216517923
1759485819719391000,3.862390869140625,-3.7950755888074634,2.0813065080851314,1.6544900855407119
1759485819729446000,3.87244580078125,-3.31236279925704,2.504490419346094,1.610401060706377
1759485819739501000,3.8825009765625,-3.5941397594869136,2.7042221335738894,1.8132719497427343
1759485819749555700,3.8925556640625,-3.4845576872617006,2.864863361907005,1.9221949735373258
1759485819759611000,3.90261083984375,-3.1679893996357915,2.948753358992934,2.13549724021703
1759485819769666000,3.912666015625,-3.0146669698834416,2.947955486613512,2.215419502715766
1759485819779721000,3.922720947265625,-2.6158178739339113,3.0078730719596147,2.364297520279884
1759485819789776000,3.93277587890625,-2.3839169975072143,3.3563124156206845,2.5034526007309554
1759485819799831000,3.9428310546875,-2.1220342397928236,3.6027807465821504,2.570729901190102
1759485819809887000,3.952886962890625,-1.7137468688905237,3.4481881507635115,2.6017542772680518
1759485819819942000,3.96294189453125,-1.649385163617134,3.1476456997871396,2.442120472411811
1759485819829996800,3.972996826171875,-1.4986568420112132,2.7213340118944642,2.0967694501549006
1759485819840052000,3.983052001953125,-1.611363183736801,2.302627538308501,1.9299591777980327
1759485819850107000,3.99310693359375,-1.6081360383838414,2.0350743337422608,1.8582894875988363
1759485819860162000,4.003162109375,-1.4737363357663154,1.9085346969753503,1.8263941739052534
1759485819870217000,4.013217041015625,-0.8153437387049197,1.8315408891439438,1.7085896322578191
1759485819880272000,4.02327197265625,0.7770055324822663,1.779046147274971,1.2946066800624132
1759485819890327800,4.033327880859375,3.013779081133008,1.733036091250181,0.5224114704713225
1759485819900383000,4.043383056640625,4.563945161107182,1.372110775503516,-0.2460948214739561
1759485819910438000,4.05343798828125,3.4960780291855333,1.3226800973802804,-0.744324036847055
1759485819920492800,4.063492919921875,1.071924882879853,2.370965161475539,0.4176613484472036
1759485819930548000,4.0735478515625,0.8143103040039539,3.4802474228471514,2.9166677834242583
1759485819940603100,4.08360302734375,0.539697244054079,3.5880531330496073,4.153215073227882
1759485819950657800,4.09365771484375,0.342810397863388,2.105775763431191,4.808490415051579
1759485819960713000,4.103712890625,0.5407867928564548,0.01763210280239582,3.83238152937293
1759485819970768000,4.113767822265625,0.7830173401176929,-2.0026772080063817,0.3886503580182791
1759485819980824000,4.123823974609375,2.3010376387685536,-3.4591917753368615,-2.467673723602295
1759485819990878700,4.133878662109375,3.164998985648155,-5.08184207676351,-2.912766392071545
1759485820000934000,4.143933837890625,1.4772913978993891,-6.9875032641291615,-3.183132608231902
1759485820010989000,4.153989013671875,0.5043593886911869,-7.907704969146847,-2.3250272939041254
1759485820021044000,4.1640439453125,0.3579875087291002,-7.045965389969944,-1.0123775921508669
1759485820031099000,4.174098876953125,0.13358429458141327,-4.76587350859642,0.4551160498335957
1759485820041153800,4.18415380859375,0.29565292536914345,-2.711991014009714,1.5833558173924684
1759485820051209000,4.194208984375,-0.180433724039793,-1.0646019926458596,2.198804468001425
1759485820061265000,4.204264892578125,-0.5750047042787074,0.12607669543027877,2.5264362936943767
1759485820071319800,4.21431982421875,-1.0628455043673515,0.8071545870304108,2.6781793453007934
1759485820081375000,4.224375,-1.6530623908251523,1.078704752278328,2.70220728662014
1759485820091430000,4.234429931640625,-2.0829852549523116,1.1356500438153743,2.7212816971853373
1759485820101485000,4.244485107421875,-2.4095661102876065,1.0677379525840283,2.385076396675408
1759485820111540000,4.2545400390625,-2.824873881345987,0.7759498859494924,2.0853277264252306
1759485820121595000,4.264594970703125,-2.651583014798164,0.22182021191716192,1.8440771301120518
1759485820131650000,4.274650146484375,-2.381470481137931,-0.38825755930840966,1.5053230219021438
1759485820141705000,4.284705078125,-2.6833155391454695,-1.1118114875882863,1.0666069027274847
1759485820151761000,4.294760986328125,-3.1651094602853056,-2.2257003659725187,0.5498647100642323
1759485820161815800,4.30481591796875,-3.2788229332268237,-3.0696546976119277,0.10157441459745169
1759485820171871000,4.31487109375,-3.1441847456783054,-3.405039913910627,-0.2082096197158098
1759485820181926400,4.324926513671875,-2.9188784452110528,-3.316286110180616,-0.575225653553009
1759485820191981300,4.334981201171875,-2.3259093374356627,-3.575422784057259,-1.3657675439566372
1759485820202036500,4.345036376953125,-2.0793302395761013,-3.997757385012507,-2.8484400503724814
1759485820212091400,4.35509130859375,-1.6387839823648334,-4.3054292494773865,-4.404528798393905
1759485820222146300,4.365146240234375,-1.0541723685681819,-4.343813048407435,-5.550453275725245
1759485820232201200,4.375201171875,-0.1435387023627758,-3.382033716854453,-5.972527764439582
1759485820242257400,4.38525732421875,0.5650682705454528,-0.6752069537401199,-4.867705405086278
1759485820252312300,4.395312255859375,1.079237543980777,1.434883750280738,-3.256060189537704
1759485820262367500,4.405367431640625,1.3488456352502107,1.6079507449448107,-2.128065044389665
1759485820272422400,4.41542236328125,1.0485678265593945,0.8190548681825399,-1.5423539449185133
1759485820282477300,4.425477294921875,0.16965616330727934,0.3831044143289327,-1.107347201655805
1759485820292532500,4.435532470703125,-0.21465178159251808,0.35655952175259586,-0.4452358763322234
1759485820302587400,4.44558740234375,0.1697207529760897,0.5038660522162914,0.25244126789122817
1759485820312642300,4.455642333984375,-0.22032442040145395,1.0103419946700334,0.839987473835051
1759485820322697500,4.465697509765625,-0.37765265172906215,1.3805863429039715,1.0834589610680938
1759485820332753400,4.47575341796875,-0.7830004620481282,1.2843781315147875,0.5339014172568917
1759485820342808600,4.48580859375,-0.636953503191471,1.5484575224906205,0.09801847568154334
1759485820352863200,4.49586328125,-0.12104220839440821,2.309211008352041,0.134867904651165
1759485820362918400,4.50591845703125,0.14403613049089908,2.8155963499128815,0.28769699792861936
1759485820372973600,4.5159736328125,-0.3892828837681562,3.3105227243483064,-0.027220307619869707
1759485820383028500,4.526028564453125,-0.9331869318623095,3.7125901978224514,-0.16538550025075674
1759485820393083400,4.53608349609375,-1.5813965000182388,3.5148002653121946,-0.2507099140539765
1759485820403138300,4.54613818359375,-1.8138140937954186,3.2973581223487853,-0.1057370872348547
1759485820413194500,4.556194580078125,-1.1464999391317368,2.9761604213565587,0.7871279903069138
1759485820423249400,4.56624951171875,-0.8832423859328031,2.4653467419594524,1.316142220044136
1759485820433304300,4.57630419921875,-0.24575755234360694,2.178826386594772,1.7589967541977762
1759485820443359500,4.586359375,0.7352700850367546,1.9659639726370572,2.0937053864091633
1759485820453414400,4.596414306640625,2.0377765784382817,1.5815478911876677,2.4227181450664994
1759485820463469600,4.606469482421875,2.9488918906807897,1.222095570603013,1.7079662396624684
1759485820473524200,4.616524169921875,3.6515444852292536,0.7917699708938598,0.8030211404874921
1759485820483579400,4.626579345703125,3.7598330105125903,-0.03274140912890434,0.01341448510736227
1759485820493634600,4.636634521484375,3.2151147234261033,-1.150900804439187,-0.4973316820114851
1759485820503690500,4.6466904296875,2.6094553531646727,-1.971581812518835,-0.7738198881834745
1759485820513745400,4.656745361328125,1.7968740649104118,-2.3629373378425833,-0.9485057162210345
1759485820523800300,4.66680029296875,1.2506219923853874,-2.532148241600394,-1.4979016397297382
1759485820533855500,4.67685546875,0.6789304312426596,-2.0515432379841805,-1.8595076312169432
1759485820543910400,4.686910400390625,0.536022866390273,-1.5916583663135766,-1.9329001996859907
1759485820553965300,4.69696533203125,0.2963222759980708,-1.574072440740466,-1.9742840572148561
1759485820564020500,4.7070205078125,0.23885672344658523,-1.7322218522578476,-1.7012074130520223
1759485820574075400,4.717075439453125,0.8199567854583263,-1.8351982426077127,-1.3177332886278628
1759485820584130300,4.72713037109375,1.9953671772539614,-1.4910270777851342,-0.5017664495885372
1759485820594185500,4.737185546875,2.8663492165505886,-1.182570784944296,-0.3491828555047512
1759485820604241400,4.747241455078125,2.693738733482361,-1.571879314610362,-1.253528527481854
1759485820614296300,4.75729638671875,1.917626934969425,-2.0025871916353704,-1.906438893739879
1759485820624351500,4.7673515625,1.389028592556715,-1.9074989241868257,-2.039542419067025
1759485820634406400,4.777406494140625,0.776673012592271,-2.2988673089921474,-2.4398782464429734
1759485820644461300,4.78746142578125,-0.1349414813440293,-3.379060838523507,-2.9686092753246425
1759485820654516500,4.7975166015625,-0.4046165003698319,-4.397230165818334,-3.161059015850723
1759485820664571400,4.8075712890625,0.014739303970336914,-5.128802565380931,-3.102486415372789
1759485820674626300,4.817626220703125,0.5464684917546808,-6.057600833830237,-3.8886636808261272
1759485820684681500,4.827681396484375,0.6692845779538155,-6.085147012403607,-4.178056961278617
1759485820694737400,4.8377373046875,0.9652630820155144,-4.882731709304451,-3.6718788327276703
1759485820704792600,4.84779248046875,1.3724889611661433,-3.65377034458518,-2.8732909985125064
1759485820714847200,4.85784716796875,2.2071172460556028,-2.9955343993902206,-2.2127853548198937
1759485820724902400,4.86790234375,2.603967861664295,-2.364744095003605,-1.4315733105584978
1759485820734957600,4.87795751953125,2.9857541791319844,-1.5855167948186397,-0.7349722711339592
1759485820745012200,4.88801220703125,3.3926796140313145,-0.8133493500173091,-0.5010904500231147
1759485820755067400,4.8980673828125,3.6964965566337105,-0.2905459576189518,-0.8683309402659535
1759485820765122300,4.908122314453125,3.7943127877414224,-0.15970073261260986,-1.513771409034729
1759485820775177500,4.918177490234375,4.171297257885336,-0.2382043604850769,-1.9930662068352103
1759485820785233400,4.9282333984375,4.77695136744976,-0.6434732603490352,-2.15723356346786
1759485820795288300,4.938288330078125,4.988400407478213,-1.0962222887903452,-1.7266133647263049
1759485820805343500,4.948343505859375,4.724472407671809,-1.3968266990870237,-1.0443407103836535
1759485820815398400,4.9583984375,3.679002108736336,-1.7582365834802387,-0.2925742485761642
1759485820825453300,4.968453369140625,1.93783444121778,-1.8818436739265918,0.5717974326699972
1759485820835508200,4.97850830078125,-0.14936945434287188,-1.974081228119135,1.3708286267384886
1759485820845563400,4.9885634765625,-2.2425984554119407,-2.116628581357002,1.9264739660307764
1759485820855618600,4.99861865234375,-3.222564747171104,-2.770662398687005,1.5886860725045204
1759485820865673200,5.008673095703125,-3.9390851235523816,-2.332697682401538,2.3442270844146607
1759485820875729400,5.0187294921875,-4.407151548112928,-1.8035072193145751,3.154211341913044
1759485820885784300,5.028784423828125,-4.8495764586776495,-1.4287293193042276,3.312116423280537
1759485820895839500,5.038839599609375,-5.99552753175497,-0.7518424496531486,3.511576919351518
1759485820905894400,5.048894287109375,-4.054874818246066,-1.019842813464999,2.936505579577386
1759485820915949300,5.05894921875,-2.5472186772212386,-1.7834370757102964,0.8979714607700705
1759485820926004500,5.06900439453125,-3.1033968082159755,-0.9148100751072168,-0.6131406659275292
1759485820936059400,5.079059326171875,-2.571505561737716,-0.5460176792472601,-0.8235112630695104
1759485820946114300,5.0891142578125,-1.7954267887115478,-1.0238193158805369,-1.2983058268412946
1759485820956169500,5.09916943359375,-0.321659473285079,-1.6809154433906077,-1.74858291221112
1759485820966224400,5.109224365234375,0.14854630139172076,-2.1872429172843693,-2.302616724653542
1759485820976280600,5.119280517578125,0.7628069112598895,-2.0212661731421946,-1.8932170085951685
1759485820986335200,5.129335205078125,-0.35279666208773847,-1.8871371041595935,-2.0058426862999794
1759485820996390400,5.139390380859375,-0.8681862710982561,-1.5645096626251935,-1.5054408030629156
1759485821006445300,5.1494453125,-1.3012211297661065,-0.7257143211841582,-0.8633017139270901
1759485821016500500,5.15950048828125,-2.0925673222899435,0.03645253860652446,-0.26116788744330405
1759485821026555400,5.169555419921875,-3.7442291986674068,0.24491700986623763,-0.10171206950247287
1759485821036610300,5.1796103515625,-3.732102707543969,0.6636357584118843,1.3917024879410862
1759485821046665500,5.18966552734375,-4.264145637452602,0.7946031484931707,1.9939915049865842
1759485821056720400,5.199720458984375,-4.453377584975958,0.963100351023674,2.4181936533793804
1759485821066776300,5.2097763671875,-4.057210859978198,1.126857081028819,2.6117864264607427
1759485821076831200,5.219831298828125,-3.692251758670807,1.346472476378083,2.9946482642054555
1759485821086886400,5.229886474609375,-3.1409786431133746,1.5947691918104887,3.080997344881296
1759485821096941600,5.239941650390625,-2.9118051458239553,1.5129893187463284,3.1135940848425028
1759485821106996200,5.249996337890625,-3.1378608033537865,1.661945954504609,3.1036452300190924
1759485821117051400,5.260051513671875,-3.4236031600832937,1.764297490954399,2.9055297188162803
1759485821127106300,5.270106201171875,-3.5104923389852045,2.268964922681451,2.9592355900406835
1759485821137161500,5.280161376953125,-3.5875089431703087,2.706183789035678,3.420799500839412
1759485821147216400,5.29021630859375,-3.6221892114073038,2.723854470282793,3.717089555068314
1759485821157271300,5.300271240234375,-3.43582551279664,2.9048762233436105,3.9820387146160003
1759485821167327500,5.310327392578125,-3.008070055836439,3.3346652319580317,4.004726054981351
1759485821177382000,5.3203818359375,-2.7668922324985266,3.717775491505861,4.088256863366067
1759485821187437000,5.33043701171875,-2.2600305055975913,4.094565900382399,3.9454020516142245
1759485821197492200,5.3404921875,-1.8105355105161667,4.2442806610316035,3.708513742163777
1759485821207547000,5.350546875,-1.4737199691534042,4.03505280418396,3.6081434426590797
1759485821217602000,5.36060205078125,-1.0251543638765812,3.938336643272638,3.4808147013410924
1759485821227657000,5.370656982421875,-0.41494799783527847,3.6096921334058045,2.691127381940186
1759485821237712100,5.380712158203125,0.4133791410833597,3.6845161959826944,1.7595502964273093
1759485821247767000,5.39076708984375,0.18662322632968426,4.413545340803266,1.288189506496489
1759485821257822000,5.400822021484375,0.9720721775084733,4.812397359362245,0.9748305363059043
1759485821267878100,5.410878173828125,4.533799613690376,4.103109856843948,0.10142360794991254
1759485821277933000,5.42093310546875,5.93536269364953,3.648153089225292,0.4872194533199072
1759485821287988000,5.430988037109375,0.4983160168737173,2.9721657987624406,1.2824983091175555
1759485821298043100,5.441043212890625,-3.114684510427713,1.0914794781774282,-0.49473055960237977
1759485821308098000,5.45109814453125,-3.3694249951720234,-0.6199386555045843,-1.851264703528583
1759485821318153200,5.4611533203125,1.8480577241808176,-1.9413485868185758,-1.602631303487718
1759485821328208000,5.471207763671875,3.1563638437718153,-4.158888442689181,-2.767709978622198
1759485821338263000,5.481262939453125,0.46833530462980266,-7.964687085562944,-3.6276147435873747
1759485821348318200,5.491318115234375,-0.36610710229873655,-11.513374422907829,-3.7392560864299536
1759485821358373000,5.501373046875,0.12885901962518692,-10.529200888717174,-2.8045974015146493
1759485821368429000,5.511428955078125,-0.07536065367162227,-6.5628627243191,-1.0485542364254594
1759485821378484000,5.52148388671875,-0.37830782770216465,-3.060750675666332,0.5490270901963115
1759485821388539100,5.5315390625,-0.07070259873270988,-0.7912123370110988,2.022326495850086
1759485821398594000,5.541593994140625,-0.1053226612150669,0.5817465797543525,3.1891809484854337
1759485821408649000,5.55164892578125,-0.6665536916851997,1.5612988838851452,3.7657089168086646
1759485821418704100,5.5617041015625,-0.7047144955143332,2.14113875323534,4.138183800573647
1759485821428759000,5.571759033203125,-1.3144155423820019,2.1992250315010544,4.3177649994373315
1759485821438814200,5.581814208984375,-1.9935686033993958,2.0763415791541338,4.32627154649794
1759485821448868900,5.591868896484375,-2.068401433804631,1.9089649050861597,3.985433325490355
1759485821458924000,5.601924072265625,-2.2025468694001433,1.7307324904829262,3.7350741245701906
1759485821468980000,5.61197998046875,-2.741083252981305,1.2929974913001059,2.933862956114113
1759485821479035100,5.62203515625,-2.852033983211219,0.5325280830770731,2.1135519503906366
1759485821489090000,5.632090087890625,-2.846446538467705,-0.5033791454821824,1.428887432475388
1759485821499145000,5.64214501953125,-2.7061174458011985,-2.051214152160287,1.0465838131353258
1759485821509200100,5.6522001953125,-2.8437279271587728,-3.314790318664908,0.5324848284572362
1759485821519255000,5.662255126953125,-2.4196657717585563,-3.9041690007328986,0.28758213937729593
1759485821529310000,5.67231005859375,-1.4290148582473396,-4.0713609658837315,-0.4473395706132054
1759485821539365000,5.682365234375,-0.7791235475495457,-3.7624201043963432,-1.684202794498205
1759485821549420000,5.692419921875,-1.1102785789325833,-4.1805788809716695,-3.980517204137146
1759485821559475000,5.702474853515625,-1.6529801193691789,-4.539281259971856,-6.1465434381306165
1759485821569531000,5.71253076171875,-1.6355238115251063,-4.074090098586678,-7.001613622546196
1759485821579586000,5.7225859375,-0.8039785873427987,-1.5764005914270878,-5.027228443044423
1759485821589641200,5.73264111328125,0.16903773914799095,0.8732318640500306,-2.2713164542436597
1759485821599696100,5.742696044921875,0.8431605509132146,1.365534904244542,-1.0105094601914286
1759485821609751000,5.7527509765625,0.7605388201974332,0.761399967071414,-0.7524892231240868
1759485821619806000,5.762805908203125,0.1973784290999174,-0.04152092791199684,-1.0222361383423209
1759485821629861000,5.772861083984375,-0.40911783037707206,-0.2462257543772459,-0.9786062554523348
1759485821639916000,5.782916015625,-0.6799076787769794,0.10611644194126128,-0.34651480533927675
1759485821649971000,5.792970947265625,-0.48008755561336874,0.44117900215685363,-0.12796031721979378
1759485821660026000,5.803026123046875,0.2767190923184156,0.4657371048301458,-0.07246727031767368
1759485821670082000,5.81308203125,0.5375584784597158,1.0265823508530854,0.3842605986267328
1759485821680137200,5.82313720703125,0.6219879161845893,1.2774427792936562,0.5697720643222332
1759485821690192000,5.83319189453125,0.7345201434522867,1.643959631437063,0.382124755641818
1759485821700247000,5.8432470703125,0.8185054176062345,2.081124137255549,0.41492490922063585
1759485821710302200,5.85330224609375,0.13414375509507953,2.1802818461000917,0.18037527185082436
1759485821720356900,5.86335693359375,-0.5689711962681263,2.354780919393897,0.09878449161797762
1759485821730412000,5.873412109375,-0.557965343205072,2.423120296126604,0.13968436502218246
1759485821740467000,5.883467041015625,0.27047581401467324,2.396671849662065,0.7407870948925613
1759485821750522000,5.893522216796875,0.22352354523632675,2.4897207202374934,1.0841846449941397
1759485821760577000,5.903576904296875,-0.1288637323329225,2.3352403526216743,1.1604697200343013
1759485821770632000,5.9136318359375,0.6100222416460513,2.0880653346955773,1.2485726586401462
1759485821780688100,5.923688232421875,1.1991478257358072,1.9772879152059555,0.9988014867410063
1759485821790743000,5.933742919921875,1.9946224963665007,1.6521569664180278,1.1806108830481767
1759485821800798000,5.9437978515625,2.28711198926866,1.5919143869012593,1.0267299426302314
1759485821810853000,5.95385302734375,1.774859216979146,1.5374538979172705,0.45312136888504023
1759485821820908000,5.963907958984375,1.881509327405691,0.9752946466863155,-0.11991028175503014
1759485821830963200,5.973963134765625,1.979232035011053,0.3685281919658184,-0.33858839625418186
1759485821841017900,5.984017822265625,1.4749702614754439,-0.3406459133058786,-0.849849527157843
1759485821851073000,5.994072998046875,0.5782844566017389,-1.0644494324326514,-1.1911869298592208
1759485821861128200,6.004128173828125,-0.3621136487483978,-1.6550982805669308,-1.5856982888653874
1759485821871183000,6.01418310546875,-0.5006500127792358,-1.7433593323439358,-1.9590797660812735
1759485821881239000,6.024239013671875,-0.18389993884563444,-1.8008219257533549,-2.306905946280062
1759485821891294000,6.0342939453125,0.7040835041344166,-1.7857640573531388,-2.293004262177646
1759485821901349000,6.04434912109375,1.3220435530424117,-2.0487942315369843,-2.1652903209343553
1759485821911404000,6.054404052734375,1.4241618652582169,-2.311744326221943,-1.9814032415702938
1759485821921459000,6.064458984375,1.6128922930002212,-2.4839964973717925,-2.0510262283727525
1759485821931514000,6.07451416015625,0.7464391293048859,-2.7611469668447968,-2.561367029561102
1759485821941569000,6.084569091796875,-0.1744200897734612,-3.1810873661398884,-3.3133477186411615
1759485821951624200,6.094624267578125,0.3604991262238472,-3.2555396727949377,-2.966609041418135
1759485821961679000,6.10467919921875,1.335135674327612,-3.553216797468066,-2.2079180410444734
1759485821971734000,6.114734130859375,2.317860763275623,-4.362861447748542,-1.7057988324955105
1759485821981789200,6.1247890625,2.6638264102995395,-5.505481915098429,-1.5490642562121153
1759485821991845000,6.13484521484375,2.6205133382737635,-6.5455445097714655,-1.7540408853560685
1759485822001900000,6.144900146484375,2.2995815947413445,-6.364995050397515,-1.8836252966463565
1759485822011955000,6.154954833984375,2.7253531844079495,-5.162438877522945,-1.7266069349855184
1759485822022010000,6.165010009765625,3.3613048170804976,-4.039467698016763,-1.8331144220709799
1759485822032065300,6.175065185546875,3.3147114082098006,-2.9126164622068402,-1.8166764974892138
1759485822042120000,6.185119873046875,2.836734999531507,-1.6887562200188635,-1.5300219943508504
1759485822052175000,6.195175048828125,2.3845231467068193,-0.8014905699193478,-1.5365890977814793
1759485822062230000,6.20522998046875,2.2545301546156407,-0.12157178522646427,-1.797500380115211
1759485822072285000,6.215284912109375,2.552982355314493,0.2809808414161205,-2.149706382833421
1759485822082340000,6.225340087890625,2.910375405281782,0.4946329444468021,-2.312458319710195
1759485822092395000,6.23539501953125,3.40466114372611,0.21986206358671187,-2.242682188172638
1759485822102451200,6.245451171875,3.7746921414703127,-0.24985914244353769,-1.9027210422605274
1759485822112506000,6.255506103515625,3.880528597426414,-0.7786532996892929,-1.519101664146781
1759485822122561000,6.26556103515625,3.418457613888383,-1.2189373988330363,-0.9795610719591379
1759485822132616000,6.275615966796875,2.120988384001702,-1.5572925708532332,-0.48143385565578933
1759485822142671000,6.285671142578125,0.3139548902571201,-1.701468986597657,-0.009310849180817603
1759485822152726300,6.295726318359375,-1.1209880428649484,-1.615416258519888,0.5825333462178707
1759485822162781000,6.305781005859375,-2.0403753627598284,-1.5200398217797277,1.090746779988706
1759485822172836400,6.31583642578125,-2.4747291950717565,-1.6265338648617267,1.8267331966012714
1759485822182891300,6.325891357421875,-2.626324070379138,-1.8060276777029036,2.5268057115286586
1759485822192946200,6.3359462890625,-2.465243281584978,-2.09145497713387,2.8797490886107084
1759485822203001300,6.34600146484375,-2.3066081323772667,-2.0851912405639887,2.5599551169365644
1759485822213057300,6.356057373046875,-2.6277903435394165,-2.2356997819393873,1.6603396883517503
1759485822223112400,6.366112548828125,-2.685444660128653,-1.8133961606442928,0.47773441661596294
1759485822233167000,6.3761669921875,-2.7358380458042024,-1.2717916216641665,-0.2874424386456609
1759485822243222300,6.38622216796875,-3.7271462541803717,-1.7989257367432117,-1.301459030175209
1759485822253277200,6.396277099609375,-2.819375868451595,-1.9318992059499025,-1.8865572584450243
1759485822263332400,6.406332275390625,-1.5720686997026203,-2.357449846342206,-2.1825760945171115
1759485822273387300,6.41638720703125,-0.38405835405290123,-2.6287106732547283,-1.6772984219372271
1759485822283442200,6.426442138671875,-0.6571244768217206,-2.79551393134892,-1.4321534485340117
1759485822293497300,6.436497314453125,-0.41788580485284327,-2.773088164529204,-0.9783402979925274
1759485822303552300,6.44655224609375,-0.5963248479440808,-2.5905332105517385,-1.184659281656146
1759485822313607200,6.456607177734375,-0.9117167852669954,-1.8134277248263357,-0.5736886532440781
1759485822323663400,6.466663330078125,-2.347822770819068,-0.9868658420145511,0.02108925751894712
1759485822333718300,6.47671826171875,-3.5515228530317544,-0.001228080490231514,0.8185869584098457
1759485822343773400,6.4867734375,-4.289774876488745,0.4301660252332687,1.7467203332096337
1759485822353828000,6.496828125,-4.324010031306743,0.5595435157746076,2.1369418860673903
1759485822363883300,6.50688330078125,-4.152252950197458,0.8884826246738433,2.503231651456654
1759485822373938400,6.5169384765625,-4.005729679065943,1.2549977232515812,2.731444779281318
1759485822383993000,6.5269931640625,-3.84672452750206,1.595728976753354,3.207713214997947
1759485822394048300,6.53704833984375,-3.899095350730419,2.424832360741496,3.5641461877614256
1759485822404103200,6.547103271484375,-4.173559357598424,2.7904601550906896,3.6369042577192183
1759485822414158300,6.557158447265625,-4.603606724888086,2.7257220177203414,3.5577781140342353
1759485822424213200,6.567213134765625,-4.309855249226093,3.18321151868701,3.378408512094617
1759485822434269200,6.577269287109375,-4.236120150929689,3.3897482367545364,3.4919226630717515
1759485822444324400,6.587324462890625,-3.937556891071796,3.4988428177237507,3.5177702210336923
1759485822454379300,6.597379150390625,-3.5015275267630814,3.679093586412072,3.631211306774616
1759485822464434200,6.60743408203125,-3.0909283717870712,3.8157980588406324,4.053884930425882
1759485822474489000,6.617489013671875,-2.8047160594582556,3.9544998425662516,4.3080601825028655
1759485822484544300,6.627544189453125,-2.695440276703238,4.095546728113294,4.137454024994373
1759485822494599400,6.637599365234375,-2.263604272431135,4.450470173096656,3.738325819842517
1759485822504654000,6.647654052734375,-1.7042326060920954,4.853028060436248,3.4812191904887553
1759485822514709200,6.657709228515625,-1.0835843410134316,5.0305239774584765,3.3801863354220982
1759485822524764400,6.667764404296875,-0.5450906275302171,4.606462114319205,2.9835245203837752
1759485822534819300,6.6778193359375,-0.0523848517537117,4.05002767047584,2.4205510301604867
1759485822544875300,6.687875244140625,0.4921574942439794,3.905699279040098,1.8497002306908368
1759485822554930200,6.69793017578125,1.2664496761143207,3.6821734322488306,1.2407947181150316
1759485822564985300,6.7079853515625,2.8225755412757394,3.2885207358986137,0.004108604362607002
1759485822575040300,6.718040283203125,4.5029158151268955,2.702663798215985,-0.7330299048945307
1759485822585095200,6.72809521484375,3.2198341531634327,2.414782091370225,0.9599947862237691
1759485822595150300,6.738150390625,0.4583031554371118,1.801564268553257,2.563914668217301
1759485822605205200,6.748205322265625,-2.059639450678229,0.15805471897125242,1.2072905079200864
1759485822615260400,6.758260498046875,-1.0592962874531746,-1.0744798280596732,-0.42618192403316496
1759485822625315000,6.768315185546875,1.1537661307424307,-1.7548136232942342,-1.8883628465622662
1759485822635370200,6.778370361328125,2.7954040412336587,-3.5337861208111048,-2.844182685188949
1759485822645425400,6.78842529296875,3.695958796495199,-7.387538939514756,-3.0535917438223956
1759485822655480000,6.79847998046875,0.1619213312715292,-10.977470725917815,-3.2374238781288263
1759485822665536300,6.808536376953125,-0.3018611323595047,-9.708238725608586,-1.5081810416817665
1759485822675591200,6.818591064453125,-0.49551089632511136,-5.321181578758359,0.9457996721327304
1759485822685646300,6.828646240234375,-0.6289484759122133,-1.9364871182620524,2.3597765357241034
1759485822695701200,6.838701171875,-0.27482699496150015,-0.0012128829210996627,3.305914646030962
1759485822705756200,6.848756103515625,-0.5053489842504263,1.0361422063589096,3.7689419073805213
1759485822715811300,6.858811279296875,-1.3726228166788816,1.3258078740119934,4.087072329756618
1759485822725866200,6.8688662109375,-2.1818895735576747,1.2360223891466855,4.115801288373768
1759485822735921200,6.878921142578125,-2.108571823890507,1.128960775309801,3.710651046453416
1759485822745976300,6.888976318359375,-2.111122969678044,1.0075982489198445,3.5843881808012723
1759485822756031200,6.89903125,-2.543377491623163,0.681919018599391,3.245750684708357
1759485822766086400,6.90908642578125,-2.855389431118965,0.18936346494853495,2.5869249569267034
1759485822776141000,6.91914111328125,-3.0431682572245595,-0.6419038190752268,1.4234791436910628
1759485822786197200,6.929197265625,-3.0660648564264177,-1.5374872156649828,0.36795068433880807
1759485822796252200,6.939252197265625,-2.755764689284563,-2.7737334766954183,-0.5510244014933705
1759485822806307300,6.949307373046875,-2.7543834640592335,-4.279859923934937,-1.4533552265167236
1759485822816362500,6.959362548828125,-2.439705227963626,-4.844470659971237,-1.7712746364906429
1759485822826417200,6.969417236328125,-1.8177648772478103,-4.4844040068805215,-2.08461987041682
1759485822836472300,6.979472412109375,-0.9068030020013451,-3.481638000422716,-2.7939684554725885
1759485822846527200,6.98952734375,-0.09882745397686958,-2.593635852742195,-3.4025665095344184
1759485822856582100,6.99958203125,-0.19520751480162143,-2.1231179433763026,-4.232423049977421
1759485822866637300,7.00963720703125,-0.28196342271268365,-2.174703169184923,-4.65542692849636
1759485822876692200,7.019692138671875,-0.606227525538206,-1.9892495711565017,-4.503850173367559
1759485822886747400,7.029747314453125,-0.8323464575625955,-0.9069295509904622,-3.5588857830151914
1759485822896802300,7.03980224609375,-0.8266228192187846,0.2593734052419662,-2.3051611484393475
1759485822906858200,7.049858154296875,-0.7290753220498561,0.8659533974796533,-1.2257613996341823
1759485822916913200,7.0599130859375,-0.6177922911256551,1.0681184763342142,-0.8373188391476869
1759485822926968300,7.06996826171875,-0.7088327444881201,0.9018307665467262,-1.0050155389502644
1759485822937023200,7.080023193359375,-0.860565859222412,0.557403581136465,-1.0138511718347667
1759485822947078100,7.090078125,-0.854483178307861,0.4157002775073051,-0.7383613290503621
1759485822957133300,7.10013330078125,-0.36154563960209485,0.7080138293206691,-0.28083324963897466
1759485822967188500,7.1101884765625,-0.06892331410050392,0.8906377568811178,-0.26162469130009414
1759485822977243100,7.1202431640625,0.6288607976287603,1.1138345178484916,0.29607465791255233
1759485822987298300,7.13029833984375,0.8313111231654882,1.798682575637102,0.3707555126264691
1759485822997353200,7.140353271484375,0.8522662329107522,1.9858190121859312,-0.12190437818169593
1759485823007408400,7.150408447265625,0.49202480777502056,2.1914929759442803,-0.4186988748013973
1759485823017463300,7.16046337890625,-0.2762836235105991,2.545494629907608,-0.4791925064697861
1759485823027519200,7.170519287109375,-0.6612784546960145,2.8586639227449893,-0.049156537356972695
1759485823037574400,7.180574462890625,-0.05762804963681847,2.7821143515497444,0.7424325240120291
1759485823047629300,7.19062939453125,-0.692607658939436,2.639322668161988,1.3270555359855294
1759485823057684200,7.200684326171875,-0.9739660284310578,2.534313310679793,2.299453876708448
1759485823067739100,7.2107392578125,0.08776124902870505,2.250772847908735,3.205821994423866
1759485823077794300,7.220794189453125,0.9560416646838188,1.8895465033888816,3.2874770720645783
1759485823087849500,7.230849365234375,2.676865340092778,1.7759101873368024,3.228717132321
1759485823097904000,7.240904052734375,3.6704748111486434,1.8123405141115188,2.723051044945419
1759485823107959300,7.250959228515625,3.6399966707766054,1.8235130655109881,1.7122443553730844
1759485823118014200,7.26101416015625,3.6111020002037284,1.5344938790678977,0.5366615296199917
1759485823128069000,7.271069091796875,4.29922922579348,1.8548989683777093,0.11471475893855095
1759485823138124300,7.281124267578125,4.223704321470857,0.9491150802910328,-1.4819602664932607
1759485823148180200,7.29118017578125,4.302510731682181,0.11136954016387463,-2.1652672323197124
1759485823158235400,7.3012353515625,3.6531203562438486,-0.7329395962625741,-2.4342457935139534
1759485823168290300,7.311290283203125,2.3924627075344325,-1.5059142657935618,-2.6026678849816323
1759485823178345500,7.321345458984375,0.3716483698129654,-1.646854183834791,-2.7136034176424144
1759485823188400400,7.331400390625,-1.8405507095515727,-1.2334469857007264,-2.4254557533368466
1759485823198455300,7.341455322265625,-3.0916309670984745,-0.5165425784379244,-1.1880232051312922
1759485823208510500,7.351510498046875,-3.2793191923111675,-0.08718728506565093,0.22108780598938463
1759485823218565400,7.3615654296875,-3.183880211728811,-0.2782283278375864,1.134175295087695
1759485823228620300,7.371620361328125,-2.1321108126491306,-0.7335100896269082,1.1972577742055057
1759485823238675500,7.381675537109375,-0.3606681261152029,-1.486250949424505,0.22699439968466759
1759485823248730400,7.39173046875,0.5603133311033248,-2.2854612994521855,-0.8783411698877811
1759485823258785500,7.40178564453125,0.6858680484861135,-2.8721511808276174,-1.4585703308165072
1759485823268840200,7.411840087890625,-0.07107200743383728,-4.223522535163164,-2.4477029487192627
1759485823278896400,7.421896484375,-1.3024620697379112,-5.608527279031277,-3.9491622809305786
1759485823288951300,7.431951416015625,-0.26821254525780674,-5.4009734928756945,-4.143813330893218
1759485823299006500,7.44200634765625,2.1417045704245568,-4.970031222572922,-3.318468130394816
1759485823309061400,7.452061279296875,3.2488509888112542,-5.726884193864464,-3.467719365185499
1759485823319116300,7.4621162109375,3.3085049547851084,-6.978354327511787,-4.008334308606386
1759485823329171500,7.47217138671875,3.4656606790900226,-6.98676033680737,-3.915703371182084
1759485823339226400,7.482226318359375,2.5355074889004228,-6.246677883052826,-4.062206184047461
1759485823349281300,7.49228125,1.9014602285444735,-4.83189584055841,-3.5081332086384296
1759485823359336400,7.50233642578125,1.2167863582789897,-4.109907846421003,-3.4215687316462398
1759485823369391400,7.512391357421875,1.4907728107631206,-2.3388848466038703,-2.4256936537459493
1759485823379446500,7.522446533203125,1.5603846916496753,-0.8116782019346952,-1.758021771685779
1759485823389501400,7.53250146484375,1.4617173966705799,0.025263620594143867,-1.6364149151459335
1759485823399557400,7.542557373046875,1.6261983492970467,0.585811344975233,-1.5401485438287257
1759485823409612500,7.552612548828125,2.100022314471006,0.7697434325248003,-1.2847415579997001
1759485823419667500,7.56266748046875,2.5361165607094764,0.43568917256891726,-1.3517099386401474
1759485823429722400,7.572722412109375,3.0146938578903675,0.08426584466099739,-1.5260964914701878
1759485823439777300,7.58277734375,3.299180661600828,0.049828737530112265,-1.347895056527108
1759485823449832400,7.59283251953125,3.2283453763991594,0.25526655444502827,-1.0383213039636612
1759485823459887600,7.6028876953125,3.132124890050292,0.29701310780644413,-0.9403522203817963
1759485823469942300,7.6129423828125,3.116921475699544,-0.20211247188448905,-0.9166481041893363
1759485823479997400,7.62299755859375,2.4370412694513797,-0.8922621432125568,-0.8497682786151767
1759485823490052400,7.63305224609375,1.423314893040061,-1.2549006926178932,-0.7864163349062204
1759485823500107300,7.643107177734375,0.22474399040937423,-1.180737139776349,-0.4283829412087798
1759485823510162400,7.653162353515625,-1.064351232755184,-0.7969055802166461,0.36702713975310325
1759485823520217300,7.66321728515625,-2.3006916018098593,-0.5770119524478912,1.5849869257256388
1759485823530272500,7.6732724609375,-3.2190327736526725,-0.596999678465724,2.8108073620706797
1759485823540328400,7.683328369140625,-4.079395803779363,-0.40506314815878863,3.981379666185379
1759485823550383400,7.69338330078125,-4.997705995962024,-0.17964169687926768,4.431699421653152
1759485823560438300,7.703438232421875,-5.092375745737552,0.051826633349061006,4.247484133248031
1759485823570493400,7.713493408203125,-4.6172778151050204,0.18030045304894446,3.5185476351469753
1759485823580548400,7.72354833984375,-4.691283839297294,1.1145733535170554,3.3150027923718093
1759485823590603300,7.733603271484375,-5.025940156799555,1.9386112708091734,3.1851892485007642
1759485823600658400,7.743658447265625,-4.313458242154121,1.78661979739964,3.088573040832579
1759485823610713600,7.753713623046875,-3.1916362326830625,1.3770225129425524,3.1690657966956493
1759485823620768300,7.763768310546875,-1.4784610262006521,1.1954933948814868,3.0152547066435216
1759485823630823400,7.773823486328125,0.15793547650575637,0.8588082019001245,1.7224124059051273
1759485823640878300,7.78387841796875,2.6722593076020478,0.48413843843936916,0.1084793716803193
1759485823650933500,7.79393359375,2.7225831351727248,0.09774725752472876,-1.6831924484118819
1759485823660988400,7.803988525390625,0.8107473508253693,-0.2751590033948421,-2.625150642685592
1759485823671044400,7.81404443359375,-1.5354972108915448,0.13025076624453066,-2.2407044583588838
1759485823681099500,7.824099609375,-3.661482526397705,1.2615344315439463,-0.5116004458606243
1759485823691154400,7.834154541015625,-4.125771185985207,2.1667197692155837,0.8432870999023317
1759485823701209300,7.844209228515625,-4.44188354653716,2.735607451918721,1.6047262299403546
1759485823711264300,7.85426416015625,-5.070946004217863,3.0948364851415158,1.649200454699993
1759485823721319400,7.8643193359375,-4.097077883203327,3.019411534062028,1.7370298370614647
1759485823731374600,7.87437451171875,-3.6711475958436726,3.088004008772969,1.5841986979573963
1759485823741429200,7.88442919921875,-3.559947567027807,3.468711883354187,1.7226599509254097
1759485823751484400,7.894484375,-2.9358003539174793,3.545089605113864,2.060223680306971
1759485823761539600,7.90453955078125,-2.684678351931274,3.255878695490956,2.0060612974867222
1759485823771594200,7.91459423828125,-2.3382424570471048,2.9371020841658115,1.951096366111934
1759485823781649400,7.9246494140625,-2.3870421437904237,2.8468109878659247,1.8866560426443815
1759485823791704300,7.934704345703125,-1.895043639500439,3.168313224762678,2.337303714892268
1759485823801760500,7.944760498046875,-2.2287767046779394,3.719769295671582,2.681686184377968
1759485823811815400,7.9548154296875,-1.969522541901469,4.000620373228192,2.844932334512472
1759485823821870300,7.964870361328125,-1.819261253285408,3.931412396967411,2.605222830161452
1759485823831925500,7.974925537109375,-1.3403785434171556,3.282394946494698,2.0888468404620886
1759485823841980400,7.98498046875,-1.7391101504668591,2.9000141702651976,1.9339006089001893
1759485823852035300,7.995035400390625,-1.7046920402973889,2.34306300907135,2.0252070197224614
1759485823862090200,8.00509033203125,-1.552975292176008,1.621307654646039,1.952605017109215
1759485823872145400,8.0151455078125,-1.2942764251947403,0.8463052786797285,2.113281024494767
1759485823882200600,8.02520068359375,-0.8890010955899953,-0.17155951271057127,1.9436004573985932
1759485823892255200,8.035255126953125,-0.560001780936122,-1.0909095693349837,1.3137132393315434
1759485823902310400,8.045310302734375,-0.01165770456790924,-2.2871271868377923,0.3566486613407731
1759485823912365300,8.055365234375,0.43774815092533825,-3.0063837101846933,-0.6980620518878102
1759485823922420500,8.06542041015625,1.354738492681086,-2.35151110394299,-1.1686486425757407
1759485823932475400,8.075475341796874,2.8750641456648705,-1.1298995174646378,-0.9456421434834599
1759485823942531300,8.08553125,4.520257995072007,0.12454875521063805,-0.630763708640635
1759485823952586500,8.09558642578125,5.805924997353554,0.8856921171724795,-0.5815656702294946
1759485823962641400,8.105641357421876,5.867642325598001,1.0632423947304486,-0.7592316831216216
1759485823972696300,8.1156962890625,5.147998264238238,0.49640053864121436,-1.0175234306067227
1759485823982751500,8.12575146484375,3.8746325251251457,-1.0647311719834804,-1.3944357122972606
1759485823992806400,8.135806396484375,1.814637685137987,-3.6340772175997493,-2.3281845888912676
1759485824002861600,8.145861572265625,-0.39085035228058695,-5.876683125665783,-2.9348303398415445
1759485824012916200,8.155916259765625,-0.7919811294265091,-6.259909705069661,-1.946213854767382
1759485824022971400,8.165971435546876,0.7434398013584316,-5.886023200941086,-0.046776071961224075
1759485824033026600,8.176026611328124,1.7170464949578046,-5.686636354628205,1.2905845849394797
1759485824043081200,8.186081298828125,1.3991278156362472,-4.484627878764272,2.5429382234230635
1759485824053136400,8.196136474609375,-0.38191374323964117,-1.9381483294725417,3.7768306148037314
1759485824063191300,8.20619140625,-2.174737071454525,-0.29043080680668354,3.708425771619379
1759485824073246500,8.21624658203125,-3.2669717519134283,0.5946972467422486,2.9373475833594798
1759485824083302400,8.226302490234374,-4.188152531096339,1.4320797987759113,2.1283935456916687
1759485824093357300,8.236357421875,-4.473451820233464,1.6718495088815688,1.3540584014624357
1759485824103412500,8.24641259765625,-4.531183585973084,1.7378455373585222,0.5534358465492725
1759485824113467400,8.25646728515625,-4.729311956657469,2.0730629958748814,-0.13119447683542967
1759485824123522300,8.266522216796876,-4.818181787982582,2.0692951677739617,-1.1250710743948817
1759485824133577500,8.276577392578124,-4.487655702152848,1.6143699643373488,-1.9730276274129748
1759485824143632400,8.28663232421875,-3.6190737097352743,0.9069277974247932,-2.390989712372422
1759485824153687600,8.2966875,-2.260377711600065,0.24939503206312655,-2.643743114952743
1759485824163742200,8.3067421875,-1.3082817158021032,-0.16481997532248496,-2.465420683978498
1759485824173797000,8.316797119140626,-0.34944589035511014,-0.8276648756176233,-1.9077122746765613
1759485824183852300,8.326852294921874,1.214005203127861,-1.402700559556484,-0.6819508750423788
1759485824193907000,8.336906982421874,2.1878603185303507,-1.5671920335769653,0.49565790358036754
1759485824203962000,8.346962158203125,2.473229019641876,-1.414042037782073,1.444874398419261
1759485824214017300,8.357017333984375,2.4618407796651125,-1.2620190001904963,2.0694439285948873
1759485824224072200,8.367072265625,1.8085896371454,-1.0696329725503921,2.1910417250454426
1759485824234128100,8.377128173828124,0.6222573807757348,-0.927081527659297,1.9899661949932574
1759485824244183000,8.38718310546875,-0.253589049686864,-0.8191741106480359,1.8981813530042766
1759485824254238200,8.39723828125,-0.8537022570632398,-0.5616723444968462,1.8490356293022632
1759485824264293000,8.407293212890625,-1.3832406568050384,-0.3703349491268396,1.5210823165699838
1759485824274348000,8.41734814453125,-1.4191617188833654,-0.15012392597198485,1.2313543973356484
1759485824284403200,8.4274033203125,-1.2119845109552145,0.012505845829844474,0.7316141928777098
1759485824294458000,8.4374580078125,-0.6915549350161105,0.005650573107600212,0.19351064775586127
1759485824304513300,8.44751318359375,-0.011999138416722416,0.3242605956941843,-0.027443594981729984
1759485824314568000,8.45756787109375,0.3949677244715392,0.21900924614965914,-0.3426578376501798
1759485824324623000,8.467623046875,0.44271512568295,-0.12606909664571284,-0.5010930803716183
1759485824334678300,8.47767822265625,0.3659691551327705,0.06290624576807022,-0.20573855342715977
1759485824344733200,8.487733154296874,0.27855682913959023,0.15609773968458174,-0.08097498642206191
1759485824354788000,8.4977880859375,0.09533318212032317,0.022724457505345342,-0.1873115008547902
1759485824364843000,8.507843017578125,-0.16971242353916166,-0.014292729246616363,-0.11900368830412626
1759485824374899200,8.517899169921876,-0.3269301071643829,-0.19309037651717662,-0.20059066914469004
1759485824384954000,8.5279541015625,-0.44528358793146905,-0.35972938396036624,-0.16674948208034038
1759485824395009000,8.538009033203124,-0.6023883857667446,-0.5785141737043857,-0.2153147755458951
1759485824405064200,8.548064208984375,-0.7276467505514621,-0.24633681353628634,-0.03248860341161489
1759485824415119000,8.558119140625,-0.9629209028035401,-0.06653788026869296,-0.2600675249859691
1759485824425174300,8.56817431640625,-1.1226156440667807,-0.13062369121015072,-0.6361077000170946
1759485824435229200,8.578229248046876,-1.0894225456476212,-0.12484101615548134,-0.8003054517880082
1759485824445284000,8.5882841796875,-1.0609368942670523,-0.07149754850268364,-0.9081482791304588
1759485824455339300,8.59833935546875,-1.1084317820221186,-0.07841185793578624,-0.9818459680259227
1759485824465394000,8.608393798828125,-1.0733468785069882,-0.05951192715466022,-1.0889581430062651
1759485824475449000,8.618448974609375,-0.6767056678652763,0.1538204424023628,-1.0323714556485415
1759485824485504300,8.628504150390626,-0.40531982633359726,0.39884149716496464,-0.9737304661095142
1759485824495559200,8.63855908203125,-0.03916194369569421,0.48880993738174433,-0.9134747348502278
1759485824505614000,8.648614013671875,0.20169526938572524,0.42252573961317536,-0.7564139953523874
1759485824515669000,8.6586689453125,0.2587086577229202,0.2643114461660385,-0.6504816778063773
1759485824525725200,8.66872509765625,0.3154921828269958,0.29150165090858937,-0.14618074130415915
1759485824535780000,8.678780029296876,0.11718882090188562,0.14575345580279828,0.10561667572557926
1759485824545835300,8.688835205078124,-0.18931188089177012,-0.05227496163845062,0.08511018653064965
1759485824555890200,8.69889013671875,-0.6130501380998641,-0.15527823999524115,0.045351884377002716
1759485824565945000,8.708945068359375,-1.1410634471662342,-0.12737141141593455,0.011440846946835517
1759485824576000300,8.719000244140625,-1.2684756289839745,-0.06067044954001903,-0.013287059335410594
1759485824586055200,8.72905517578125,-1.2528472672194242,-0.06502747570574283,-0.08100070538520812
1759485824596110000,8.739110107421874,-0.960784913688153,-0.002845452558994293,-0.11545564043372869
1759485824606165200,8.749165283203125,-0.6332127092279494,0.12963117304146288,0.008242343166470528
1759485824616220200,8.75922021484375,-0.5579391493178903,0.1813964315921068,0.07722469397783278
1759485824626275000,8.769275146484375,-0.55780456315279,0.23014380362629888,0.04709171378165483
1759485824636330200,8.779330322265626,-0.7406492938570678,0.03361234674453735,-0.2057461522117257
1759485824646385200,8.78938525390625,-1.0653501806646586,0.08841711912155151,-0.47335722444504497
1759485824656440000,8.799440185546874,-0.5740956266097724,0.6220347510010004,-0.1496273746266961
1759485824666495000,8.809494873046875,-0.24842823285758495,0.4329764064788818,-0.26576252175718545
1759485824676551200,8.81955126953125,0.025039018058031794,0.20794190869033335,-0.28143822979480027
1759485824686606000,8.829606201171876,0.3031428427331149,0.13916238697469233,-0.17158523167371748
1759485824696661200,8.8396611328125,0.3182910197652876,0.22890753982961176,0.0001657119557261467
1759485824706716200,8.849716064453125,0.4401882375538349,0.36176644274592396,0.23948592472821473
1759485824716771000,8.85977099609375,0.5853856669090688,0.5601426507115363,0.5452674454018474
1759485824726826200,8.869826171875,0.46881329740509387,0.660027504786849,0.5632596136882901
1759485824736881200,8.879881103515626,0.46784445237293837,0.9790917008817195,0.8068614493027328
1759485824746936000,8.88993603515625,-0.11274331273511051,0.5308119268089533,0.13924334325641394
1759485824756991200,8.8999912109375,-0.29558745891749855,0.3534340832084417,-0.13744389261901377
1759485824767046100,8.910046142578125,-0.34128435733988877,0.15912264046370983,-0.39113749865889547
1759485824777101000,8.92010107421875,-0.41054011826515197,0.018504209461808203,-0.44776217993944883
1759485824787156200,8.93015625,-0.2731523397475481,0.24918635774850845,-0.2794651761561632
1759485824797211100,8.940211181640626,-0.46364247063845393,0.6101695411622524,-0.03040478287488222
1759485824807266300,8.950266357421874,-0.18493235063329339,0.3924503348231315,-0.07834756052792072
1759485824817321000,8.960321044921875,0.18185221253558992,0.08932429709434508,-0.19953180774152277
1759485824827377200,8.970377197265625,0.45524172203987834,-0.2920259670436382,-0.22180238399952648
1759485824837432000,8.98043212890625,-0.29309345014467836,-0.9904442850232124,-0.8218538512513041
1759485824847487200,8.9904873046875,-0.22923194947838782,-0.7338970431178807,-0.7683043396323919
1759485824857542100,9.000542236328124,0.09758826757073402,-0.7098053889125585,-0.9117831285014748
1759485824867597000,9.01059716796875,0.061063248249888416,-0.5112696064710617,-0.6682727705627679
1759485824877652200,9.02065234375,-0.12904840471744536,-0.1020943468183279,-0.10450491509139537
1759485824887707100,9.03070703125,-0.0846791016370058,0.13997136527001858,0.4293120387524366
1759485824897762000,9.040761962890626,-0.023347850100696087,-0.09892916078567504,0.2512362760156393
1759485824907817200,9.050817138671874,0.26449600895270703,-0.11034487329125403,0.11163257501423358
1759485824917872000,9.0608720703125,0.2851050817392766,0.18342939872443675,0.3509846442297101
1759485824927927300,9.07092724609375,0.16762904139384627,0.4937444711744785,0.8829238215029239
1759485824937982200,9.080982177734375,0.037139936348795886,0.6355003817737103,1.1871163194194436
1759485824948037000,9.091037109375,-0.15381050553023815,0.3529956917911768,0.8363336275026202
1759485824958092300,9.10109228515625,-0.26008243029415606,0.0078080434024333945,0.341068522632122
1759485824968147000,9.11114697265625,-0.0469517207890749,-0.05322364066541194,0.18974691130816934
1759485824978202000,9.1212021484375,0.11721812006160616,0.16824936524927614,0.18054069154560565
1759485824988258000,9.131258056640625,0.07444573078379034,0.40664954056739805,0.14629764568209647
1759485824998313200,9.141313232421876,-0.006266074657440186,0.5227607223004103,0.05615180307179689
1759485825008368000,9.1513681640625,-0.07806465193331241,0.3011334026068449,0.05170066888183355
1759485825018423000,9.161423095703125,-0.01695581097602844,0.20392098261117933,0.16896365099847316
1759485825028478200,9.171478271484375,-0.061225453074276445,0.21595044310092926,0.40806466806232927
1759485825038533000,9.181533203125,0.07093202357441186,0.017453239104151724,0.5694637290254235
1759485825048588000,9.191588134765626,0.18098244396373628,-0.14657178644835947,0.6476505460336804
1759485825058643200,9.201643310546874,0.25661796905398365,0.155332600530982,0.820651197463274
1759485825068698000,9.211697998046875,0.1349449154101312,-0.34342356132566926,0.6178200559154152
1759485825078753300,9.221753173828125,0.5937384847126901,-1.2478209634900093,0.13684709576964377
1759485825088808000,9.231807861328125,0.6701549310475587,-1.154507889020443,0.15886223596185445
1759485825098863000,9.241863037109376,0.4544359586149454,-0.7455857273459434,0.1846495881691575
1759485825108918300,9.251918212890626,0.256385183211416,-0.34457857657968993,0.2609951612249017
1759485825118973200,9.26197314453125,0.24848186274096368,0.07288286538124084,0.27791619314849375
1759485825129028000,9.272028076171875,0.0911471286073327,0.38943127926290033,0.12155687991827725
1759485825139083300,9.282083251953125,-0.25799685619175433,0.31990473857223983,-0.1536252120912075
1759485825149139200,9.29213916015625,-0.5528668144896626,0.3044441345900297,-0.3525932484701276
1759485825159194000,9.302194091796874,-0.7265957801938057,0.26217443413734437,-0.32938363779634233
1759485825169249000,9.3122490234375,-0.4105436253964901,-0.16720073297917842,-0.2882099158868193
1759485825179303400,9.322303466796875,-0.21551438977122306,-0.253859025734663,-0.21290654536038636
1759485825189358600,9.332358642578125,-0.2075136002756655,-0.13916297149658202,-0.10265578009337187
1759485825199413500,9.34241357421875,-0.05384732552170753,-0.15991174501478672,0.0078068743586540215
1759485825209468400,9.352468505859376,0.17137378088012337,-0.19117489828467368,0.12021335635483264
1759485825219523300,9.3625234375,0.40914296481832857,-0.1196142214179039,0.1972021957501769
1759485825229578500,9.37257861328125,0.3178206257745623,0.0793938547104597,0.23962445641607044
1759485825239633400,9.38263330078125,0.10819207917153835,0.4081868331372738,0.2658405554294586
1759485825249688300,9.392688232421875,-0.12362462610304355,0.39034137984514233,0.2545294723421335
1759485825259743500,9.402743408203126,-0.176002463594079,0.25306466048657894,0.08695157661363483
1759485825269798400,9.41279833984375,-0.21970804206877945,0.09737433255910873,-0.03364697966650128
1759485825279853300,9.422853271484374,-0.10150427197068929,-0.1328770230948925,0.060343263412266965
1759485825289908500,9.432908447265625,0.13529635919630525,-0.2336152791291475,0.3307242387503385
1759485825299963400,9.44296337890625,0.3161215667717159,-0.33874504812061784,0.590807838088274
1759485825310019600,9.45301953125,0.4913127139829099,-0.34720249534249303,0.7545487860023975
1759485825320074200,9.46307421875,0.5701370982423425,-0.009516016364097594,0.689909578961879
1759485825330129400,9.47312939453125,0.518304765804857,0.4917138421297073,0.3868568987302482
1759485825340184600,9.4831845703125,0.37179318511113524,0.5942530101060867,0.1340674019232392
1759485825350239500,9.493239501953125,0.062257280340045684,0.21676994279026984,-0.059483139451593156
1759485825360294400,9.50329443359375,-0.10000029714852571,-0.19439853650629518,-0.11532982209697365
1759485825370349300,9.513349365234374,-0.1617763698428869,-0.49009530101716514,-0.04964753574430942
1759485825380404500,9.523404541015625,-0.11260185843780636,-0.4970692316830158,0.07535802332311868
1759485825390459600,9.533459716796875,0.08528612761944532,-0.2837660882204771,0.1955138042718172
1759485825400514300,9.543514404296875,0.26955314621180293,-0.08979717530310154,0.32022593335062266
1759485825410569500,9.553569580078126,0.19822467066571114,-0.03337736894488334,0.4792755085781216
1759485825420624400,9.563624267578126,0.04304273065179586,-0.1264239014327526,0.5064712662786245
1759485825430679300,9.57367919921875,0.03436374963372946,-0.2429272973537445,0.3781543907061219
1759485825440734500,9.583734375,0.10208616351187229,-0.17193009958863256,0.2852732779130339
1759485825450789400,9.593789306640625,0.20551614284813402,-0.017432196316123007,0.14025895003974437
1759485825460844500,9.603844482421875,0.17228768085464835,0.0869406168282032,-0.008609422913193701
1759485825470899500,9.6138994140625,0.1433990016311407,0.12368074020445347,0.03642828094810247
1759485825480955400,9.623955322265624,0.04571706442758441,0.10204875411093234,0.0126768184825778
1759485825491010300,9.63401025390625,-0.0761480046570301,0.07050035415887833,-0.0061129299223423
1759485825501065500,9.6440654296875,-0.052379152665287254,0.03428454691767693,-0.02998509615808725
1759485825511120400,9.654120361328125,0.022936931212246416,-0.06336275736391545,-0.00963818143904209
1759485825521175300,9.66417529296875,0.10326923581659793,-0.007791092267632484,-0.022772388300299644
1759485825531230500,9.67423046875,0.24719986010640857,0.10580839890539645,-0.003283990106731653
1759485825541285600,9.68428564453125,0.2214250751197338,0.0985042133718729,0.06075929686725139
1759485825551340300,9.69434033203125,0.1898565091624856,0.08582827167212963,0.13566753059625625
1759485825561395500,9.7043955078125,0.20879940230250357,0.16277414870858192,0.08963672404438257
1759485825571450400,9.714450439453126,0.14180588722079993,0.2193985377281904,-0.07957038032114505
1759485825581505500,9.724505615234374,-0.0376557769164443,0.2024456493616104,-0.23552461988180876
1759485825591560400,9.734560546875,-0.1778393236324191,0.12705927672684192,-0.21798443314656615
1759485825601615400,9.744615478515625,-0.17772212699353693,-0.02988017447888851,-0.07956424284130334
1759485825611670500,9.75467041015625,-0.053878597442805765,-0.12567220628261566,0.08293693414479493
1759485825621725400,9.764725341796876,0.13011837203651666,-0.09054594784379005,0.14261749586462974
1759485825631780400,9.7747802734375,0.21187691005170345,0.05010463186204433,0.1647244059935212
1759485825641835500,9.78483544921875,0.20797171930670738,0.06995791784524917,0.21625702483206985
1759485825651890400,9.794890380859375,0.206752698905766,-0.05162146616578102,0.21252426804453134
1759485825661946600,9.804946533203125,0.06976561014354228,-0.06954407634735107,0.13506371948421
1759485825672001300,9.815001220703126,0.027061902187764643,-0.110206926125288,0.13059446511566639
1759485825682056400,9.825056396484374,0.0263797651425004,-0.1579822382569313,0.2202626072116196
1759485825692111600,9.835111572265625,-0.040701428222656245,-0.12153145321607589,0.2524852531634271
1759485825702166300,9.845166259765625,-0.03126052292138338,-0.04877016838788986,0.30071590784713625
1759485825712221400,9.855221435546875,-0.08178221115171909,-0.04865384853184223,0.25929975548386575
1759485825722276400,9.8652763671875,-0.18138941732943056,0.04098550586104393,0.12068418873697519
1759485825732331500,9.87533154296875,-0.41337475716918703,0.19670622892677783,-0.010996171919256448
1759485825742386400,9.885386474609374,-0.20261223810017107,0.15484861640632153,-0.13421689339652657
1759485825752441300,9.89544140625,0.10412380681931972,-0.02213116778731346,-0.14024535990580916
1759485825762496500,9.90549658203125,0.39211628056317566,-0.027871172744035718,-0.010456804345548153
1759485825772551400,9.915551513671875,0.5506026689499617,-0.05851005663573742,0.0967941945835948
1759485825782606300,9.9256064453125,0.37446956471353765,-0.08521803081929682,0.09931830623373389
1759485825792661500,9.93566162109375,0.020048224033415316,-0.03306698782145977,0.009135346483439206
1759485825802716400,9.94571630859375,-0.214319042506814,-0.038459786775708195,-0.06848024650812148
