seconds_elapsed,acc_z,acc_y,acc_x,grav_z,grav_y,grav_x,gyro_z,gyro_y,gyro_x
2.05,-0.9085966074198484,-4.447231921827793,-3.605643150275946,-0.0736246396422735,-8.137664648377894,-5.471972736467421,-0.533973217010498,0.4446985572576523,-0.0959467068314552
2.06,-0.13988953220546252,-3.6673522952139375,-3.308777341985702,-0.10663858438553285,-8.169132092048226,-5.424297962100804,-0.6362991631031036,0.44147065281867975,-0.1241841912269592
2.07,1.0310767396628855,-2.9214871664047237,-2.9240917959451673,-0.14267816741014827,-8.20668762346059,-5.366430002760887,-0.7511906921863556,0.48089487850666046,-0.14430928230285645
2.08,2.0771897204160688,-3.2047751157194373,-3.5539088713854543,-0.1810568335073534,-8.248113566565513,-5.3013455361709,-0.7998216152191162,0.5525881350040436,-0.11042353510856626
2.09,2.9252888967752453,-3.3749700620785354,-3.919461262410879,-0.2174471387989353,-8.290928625941277,-5.23274955432862,-0.8199047446250916,0.6091901063919067,-0.0174826495349407
2.1,2.9595424640327694,-3.0676167620435355,-4.035099565935135,-0.24616374025801194,-8.33372147348523,-5.163049410636723,-0.8104791045188904,0.5859803259372711,0.08226959034800525
2.11,2.4201392344892025,-2.5327532217562196,-4.238504123456776,-0.26393574472144243,-8.374480184853077,-5.0958141957536345,-0.7486444413661957,0.48739612102508545,0.1534253433346748
2.12,2.1373609882622953,-1.86985512996912,-4.306413292078674,-0.26943460699920535,-8.410846798741817,-5.035312673039734,-0.6568513512611389,0.3594213873147964,0.23425104469060895
2.13,2.2897657186478373,-1.108824288471043,-4.153214488705993,-0.25925854669064274,-8.442021104684471,-4.983433724981547,-0.5504955649375916,0.2338800430297851,0.3714084923267364
2.14,2.4167191969126463,-0.44624359207004305,-4.010875517521798,-0.2284192174565512,-8.467219551087915,-4.942017134226859,-0.41185255348682404,0.06902871839702131,0.5342647582292557
2.15,2.5410896729469297,0.01363601890355351,-3.577622778319567,-0.17561839161335951,-8.48521902589798,-4.913188660757989,-0.26535043120384216,-0.07753082178533069,0.6939366459846497
2.16,2.7667145378440616,0.33760902982801194,-2.7521329086534676,-0.1043623351327958,-8.496299807360767,-4.895994364850968,-0.14061326161026955,-0.1315887980163097,0.851053386926651
2.17,2.698132000005245,0.5092588511705398,-2.16721018308103,-0.0180477857725753,-8.501028297187387,-4.888800800085068,-0.0283101759850979,-0.19024749845266342,0.9843297898769379
2.18,2.520056237268448,0.5440671297013759,-2.0297490470662707,0.0828900228382146,-8.498950614130496,-4.891662911517917,0.0988681316375732,-0.2776823192834854,1.1102567315101624
2.19,2.525778706568479,0.3985416374355555,-2.1286939899429678,0.19979548191269852,-8.488847737789154,-4.905694651740789,0.24133547395467755,-0.39092643558979034,1.2437020540237427
2.2,2.495696872037649,0.061937400735914694,-2.2382354378968476,0.3341745618673041,-8.469999537195264,-4.930752228368819,0.3750339448451996,-0.5314472913742065,1.3740182518959045
2.21,2.49025877263695,-0.41583764015138147,-2.169147580884397,0.48565899907015264,-8.442633391363918,-4.9648245938405395,0.4826037436723709,-0.62136310338974,1.5124440789222717
2.22,2.3736033279594033,-0.9563611058965324,-1.9499410585969685,0.6510216481682845,-8.406836978578568,-5.006336169402301,0.5805194675922394,-0.6321721374988556,1.6393672823905945
2.23,1.68658198125232,-1.4720447294175623,-1.5511056989118455,0.8247109942480921,-8.362885900910198,-5.054046599604189,0.6574839353561401,-0.6255618929862976,1.7197158336639404
2.24,0.6259860824426635,-1.9329703423127533,-1.106983336779475,1.0040910445164888,-8.312267182046174,-5.104772285974025,0.6928715407848358,-0.6944137811660767,1.7618346810340881
2.25,-0.2852352839902043,-2.321203059440851,-0.7781506108641624,1.1923385475797579,-8.25690360674262,-5.153783569641412,0.6891826093196869,-0.8693921566009521,1.7938545942306519
2.26,-0.4535145329210907,-2.516782622425258,-0.3592918693259358,1.3929393362596632,-8.198092521333693,-5.197051633481681,0.6513693630695343,-1.034975290298462,1.853632390499115
2.27,0.0048712592981755565,-2.460786886698007,0.17925211303979155,1.6053038106326012,-8.136696972389519,-5.232064494673908,0.5980692505836487,-1.131468951702118,1.9280171394348145
2.28,0.1712376603450626,-2.287442536397278,0.35792291906028983,1.8258255071718246,-8.072491918982564,-5.259077881544829,0.5639145970344543,-1.1790984272956848,1.9819912910461426
2.29,0.18841909677051005,-2.004156048387289,0.17045915025323627,2.0499349260047075,-8.00360659880489,-5.281705308416486,0.552634596824646,-1.139512836933136,2.0295363664627075
2.3,0.015080518623441452,-1.6206860156163572,0.30382044973373407,2.271606304035708,-7.930532010243832,-5.301266917976736,0.5280507802963257,-1.0642080903053284,2.031806230545044
2.31,-1.0379084123138338,-1.3380080148935316,0.45714492531269785,2.4869239291258154,-7.8559505242511625,-5.315727989527582,0.4837392419576645,-1.0948918461799622,1.9493250250816345
2.32,-2.4325271530278028,-1.133880696055293,0.39477234802991146,2.6977596595615148,-7.781826426637172,-5.321963961307704,0.4502563774585724,-1.202667415142059,1.8493537902832031
2.33,-2.1575442368522286,-1.5532921030402183,0.03392535821646453,2.9052830505788325,-7.703289188756049,-5.326980620425939,0.5671557933092117,-1.1829040050506592,1.8408876061439514
2.34,-2.3202397673666475,-2.051988935925066,-0.9950058938503265,3.1093536707937717,-7.610859326861799,-5.344540827035903,0.8356449604034424,-1.2085766196250916,1.7866578698158264
2.35,-3.2188214689895513,-1.591713311371207,-1.315441086037457,3.307332403874397,-7.502961554461717,-5.378148789866268,1.098671853542328,-1.238034963607788,1.6764307618141174
2.36,-2.730324689210206,-1.393422443601489,-1.4416954761222005,3.4955716870985922,-7.379680919490754,-5.4293643055796625,1.3695040345191956,-1.1563559770584106,1.6271130442619324
2.37,-2.334845800346136,-1.7143118092969059,-2.146496188615263,3.675972970173508,-7.238506023649871,-5.499686088301241,1.6408947110176086,-1.08291757106781,1.6111764907836914
2.38,-1.9096970187529922,-2.05993697232008,-2.491279055595398,3.849524095092714,-7.0794789525151245,-5.587131439781189,1.869576871395111,-0.9853171408176422,1.6089754700660706
2.39,-1.5916569050088523,-2.5690000086575746,-2.389130348241329,4.016384636332095,-6.905754078464209,-5.686137757456303,2.0455591082572937,-0.9986536204814913,1.544710099697113
2.4,-2.0119537165261803,-2.952841797350347,-1.93919579269886,4.184841214591264,-6.722875591620803,-5.782927275864779,2.1433180570602417,-1.3117250204086304,1.4460684657096863
2.41,-2.411371260013431,-2.6922864888474347,-1.4180240931555628,4.370426768436283,-6.535340803404153,-5.859974567449092,2.1566797494888306,-1.7771280407905579,1.410984218120575
2.42,-2.2734467442706228,-2.110955796417594,-0.8778411114111542,4.577791315630078,-6.3456637424618005,-5.9097954139336935,2.109993815422058,-2.1312434673309326,1.4054716229438782
2.43,-2.5099910625889894,-1.868301470786333,-0.6924386590480804,4.8003443718664345,-6.156613581246138,-5.933065522623062,2.0621691942214966,-2.4343854188919067,1.3448253870010376
2.44,-3.276930251348018,-1.638458403672278,-0.9784820445507765,5.032852712666989,-5.970613455250859,-5.930435758641362,2.0363274812698364,-2.7050845623016357,1.2414727807044983
2.45,-3.4296289962440722,-1.2370143227934838,-1.2408271590799091,5.269797428479791,-5.787722693447768,-5.9058647964864965,2.0386544466018677,-2.8617254495620728,1.1530773639678955
2.46,-2.9602620104789734,-0.7135293778717519,-0.982949545353651,5.504923988954722,-5.605217716091871,-5.867310317164659,2.0438424348831177,-2.867354154586792,1.1266077160835266
2.47,-3.085342096087336,0.021374211940169308,0.0329161811739207,5.735049672402441,-5.423066959001124,-5.81790594252646,1.9929074048995972,-2.8508377075195312,1.1159669160842896
2.48,-3.784746210233867,0.36992139988988637,0.9871744695723057,5.960851062910258,-5.243917137292027,-5.754852981764078,1.9130355715751646,-2.859488368034363,1.110245943069458
2.49,-4.369759098307789,0.1661760661065578,1.6213126230821011,6.183366855876147,-5.068752878087759,-5.676491684971749,1.836487054824829,-2.8970389366149902,1.0970723628997803
2.5,-4.971976803682745,0.212600402020663,2.1325044881418345,6.404083490465581,-4.89895073043853,-5.58000494890213,1.7644855380058289,-3.0098990201950073,1.0491778254508972
2.51,-5.3216243540897965,0.5332074436433614,2.303658342660963,6.623321869195998,-4.7351807025603945,-5.464228698211908,1.7056388854980469,-3.0812571048736572,1.0043675601482391
2.52,-5.149565075163543,0.8864996341630815,2.7655159757092593,6.836055688337982,-4.579256127485633,-5.3336716424971815,1.6047082543373108,-3.063190221786499,0.9414350092411041
2.53,-4.823605274336039,1.4901066019393503,3.363580360797047,7.036745433942974,-4.435498229414225,-5.192451446209848,1.4419024586677551,-2.962226152420044,0.8659558594226837
2.54,-4.467862037402391,2.158181657972932,3.749922441872954,7.221343584185838,-4.306229459944367,-5.046008546838164,1.261727511882782,-2.7806813716888428,0.7972121238708496
2.55,-4.444700942045451,2.567079854249954,4.012260249878466,7.387922970396279,-4.191545680665969,-4.899536421371996,1.1034808158874512,-2.586092233657837,0.7169961035251617
2.56,-4.534556277276575,2.7314126305773856,4.034285619203747,7.536660410445927,-4.090047107783704,-4.756960280431062,0.9832327961921692,-2.348475456237793,0.6426800489425659
2.57,-4.325887807877361,2.6808804209530352,4.155191633997857,7.664751368308067,-4.000160062240063,-4.627298127729446,0.8962595760822296,-2.033739149570465,0.5456620752811432
2.58,-4.22431222423613,2.523877110730856,4.430339677607268,7.769301876106858,-3.923437472565472,-4.517653219401091,0.8289648592472076,-1.6790698170661926,0.4035461246967315
2.59,-3.8979789139211176,2.5318590493954716,4.76217626151368,7.848710928386449,-3.8618380716122687,-4.432973679372668,0.7634617388248444,-1.2589287161827087,0.25446105003356934
2.6,-3.2446322020724416,2.71102772193551,5.147519540810585,7.901578595221042,-3.81423080952391,-4.380177908730507,0.7049419581890106,-0.7895842790603637,0.12762868404388425
2.61,-2.800006274332106,2.755039736010879,5.330157496896386,7.929582746694981,-3.7783361970610914,-4.360730134808271,0.6649838984012604,-0.36367872357368464,0.016962833702564253
2.62,-2.316584167468548,2.757833896774053,5.331312512150406,7.935550715188682,-3.752100808825344,-4.3725097121901815,0.6243892014026642,0.043884307146072415,-0.0675141513347625
2.63,-1.7754063294678928,2.7626949269391594,5.236238857749104,7.921172353485226,-3.73316960612312,-4.414504102832824,0.5769340693950653,0.42703595757484436,-0.12204264104366294
2.64,-1.53102064999938,2.4935984384536742,4.893904552964866,7.88979580296874,-3.720551970481872,-4.480755128984153,0.528995007276535,0.7140967845916748,-0.1765409335494041
2.65,-1.2178899356067179,2.0499461780510844,4.302710199777037,7.845339406126737,-3.7134672729179257,-4.563827818337828,0.4869459420442581,0.9099243581295013,-0.22333243489265442
2.66,-0.8582748256757855,1.8164233995109795,3.626549306312948,7.790985007865727,-3.7109849545828997,-4.657926490227133,0.4462905973196029,1.0379273295402527,-0.2673332244157791
2.67,-0.71162120616287,1.9109056638903912,3.009197598561644,7.72835290286392,-3.7147121584124863,-4.758161911305785,0.38196013867855066,1.1356875896453857,-0.33551299571990967
2.68,-0.6999845443829893,2.259444084011763,2.3640347776904695,7.657235293589531,-3.7285112589232625,-4.861187109233439,0.29663462936878204,1.2153503894805908,-0.4452051520347595
2.69,-0.5140580681458116,2.725321912486851,1.6083835834041234,7.57642923399359,-3.7548286263540387,-4.966326230575144,0.21256399899721146,1.2795870900154114,-0.5740286409854889
2.7,0.026014438961446285,3.265384044330567,1.0528694692760705,7.485793269778788,-3.79367960440442,-5.0730333318859335,0.09722321573644875,1.3559130430221558,-0.6673164963722229
2.71,0.5730158685490488,3.8436698161065577,0.9057076079800725,7.387031282253563,-3.8461386904381216,-5.177187826104461,-0.07575876172631979,1.4077115654945374,-0.7591947317123413
2.72,1.1997481297165153,4.182631429587304,0.9642585811480879,7.279840489079058,-3.914705300055444,-5.276589865098893,-0.27508547157049174,1.4610209465026855,-0.8634259700775146
2.73,1.5995792224407195,4.189464052086324,0.976716788443923,7.163572363218664,-4.000995490150899,-5.370076542569697,-0.4471591114997864,1.485522985458374,-0.9822010099887848
2.74,2.7279464157715436,3.71366601036042,0.3754819566264749,7.047503559322655,-4.097935084554553,-5.450066609607637,-0.4690493643283844,1.2323160767555237,-0.964931070804596
2.75,7.0207096604213115,2.755386795882881,-1.1794593749254942,6.970331472314894,-4.175896568374336,-5.4904868828013536,-0.3659582734107971,0.3474283814430237,-0.5867926925420761
2.76,8.871455600772798,1.2988985320374369,-1.7851339427560569,6.953993208715319,-4.231720893057435,-5.468399261894822,-0.46872398257255554,-0.38812100887298584,-0.446058914065361
2.77,3.9035722038835288,-1.338060767994076,-2.647760533900559,6.942161316624284,-4.3106089902028435,-5.421447248844802,-0.7105883359909058,-0.12375802546739578,-0.9513832926750183
2.78,-1.3887851391896606,-3.8875117343120276,-5.305070109651983,6.880036576622724,-4.437650877403467,-5.397684680463374,-0.8263725936412811,0.3365998491644859,-1.454888939857483
2.79,0.32663755395859484,-4.357699388810246,-5.534444097949564,6.7931199251919985,-4.589207466527075,-5.381020545910299,-0.8921727240085602,0.2606331445276737,-1.5551268458366394
2.8,2.788225820167362,-4.713950867526978,-4.071590390725433,6.710619628898799,-4.747934093410522,-5.3466006821751595,-1.0601617991924286,0.08785295113921165,-1.6207144856452942
2.81,0.6007333120360969,-5.6467997265413405,-2.881654337710142,6.620253713797032,-4.924049661990255,-5.299482957169413,-1.3322163820266724,0.2480132058262825,-1.7265676856040955
2.82,-0.697670714482665,-5.53068503767699,-1.275574647334218,6.514084664885699,-5.111766090384125,-5.253039770424365,-1.4563540816307068,0.508528009057045,-1.6702971458435059
2.83,-0.014528583829104935,-4.5044165750786656,0.04384060303121806,6.398218690085411,-5.290487165287137,-5.2185336897104975,-1.3634822368621826,0.7148028612136841,-1.5198581218719482
2.84,0.38054128584265706,-3.3325288044512265,1.4798837524801494,6.278631356674432,-5.449178428596258,-5.200622769966721,-1.2066667079925537,0.9043309092521667,-1.3558931350708008
2.85,-0.3811421743452549,-2.4122905668154355,2.9951465691164136,6.151617088133096,-5.589654820778966,-5.2033486877992745,-1.0580238699913025,1.2119259238243103,-1.2613996863365173
2.86,-1.2721435038417577,-1.518642522202432,4.2102214473024,6.006602467998862,-5.717532428151369,-5.233593019415437,-0.9220655262470245,1.6243848204612732,-1.235861361026764
2.87,-2.0333166764199735,-0.6900605317398905,5.03559850424379,5.838675758832693,-5.836907287855446,-5.29132916906923,-0.8250872492790222,2.0043071508407593,-1.2283011674880981
2.88,-2.358068562762439,-0.14769991369545454,5.48337880436182,5.65181667792052,-5.949658345505595,-5.36793339306116,-0.7844581305980682,2.282477021217346,-1.1852247714996338
2.89,-2.235093340478837,0.0290028071224689,5.387798661743105,5.453274173477292,-6.055732409609854,-5.45393848260492,-0.7640688121318817,2.4594002962112427,-1.1038252711296082
2.9,-2.2610317915946245,0.021152385883033198,4.785006079089641,5.2499681078940625,-6.1545735998511315,-5.542097535312175,-0.7453624606132507,2.5250452756881714,-1.019161969423294
2.91,-2.631672153408825,-0.0637079175397754,4.015284566135705,5.047571266110241,-6.247631822776794,-5.625459709131718,-0.7499556541442871,2.482372283935547,-0.9576675593852997
2.92,-2.903898902744055,-0.3163756876632571,3.170466311143339,4.849711190973222,-6.3377838028669355,-5.698294059196114,-0.7850529849529266,2.3898308277130127,-0.9121116101741791
2.93,-2.9613715791560713,-0.8153755951479076,2.082024008704722,4.6578876195214685,-6.426934496960044,-5.758245546811819,-0.8278549909591675,2.2839375734329224,-0.8744172751903534
2.94,-2.849506948951632,-1.6189368338614702,0.6694295393824578,4.472102013059705,-6.515288195456565,-5.806114090184867,-0.8601070046424866,2.2068454027175903,-0.8332416415214539
2.95,-2.457682490941882,-2.855324841450155,-0.8949073970243333,4.290069767782091,-6.601846534968912,-5.845593283136188,-0.8772843778133392,2.1947959661483765,-0.7835612595081329
2.96,-2.0650722893819213,-4.116958933976292,-2.1231325564235446,4.108972026875614,-6.686876057478786,-5.878962468774616,-0.92606121301651,2.238397717475891,-0.7298681735992432
2.97,-1.8524334550470114,-4.763717499606312,-2.7933260659158226,3.927083720113337,-6.77244392464906,-5.905257185982167,-0.9915178120136261,2.273329257965088,-0.6935274004936218
2.98,-1.8401397906631232,-4.710918806354701,-3.2111738768458364,3.746373224958778,-6.858611511278152,-5.9232291882634165,-1.0333359241485596,2.2320116758346558,-0.6499123275279999
2.99,-1.8383327412411572,-3.6778470934823146,-3.12837927378118,3.575550502090156,-6.944850994099676,-5.928436693778634,-1.1040886044502258,2.038670301437378,-0.5873388350009918
3.0,-1.9617220972836018,-2.051351807065308,-2.7493051378816364,3.4233820646785196,-7.033895012947917,-5.9133653813749545,-1.1958416104316711,1.6683427095413208,-0.599356085062027
3.01,-2.3759556632392105,-0.8435144789174198,-2.809729211445153,3.291513341843337,-7.128503972446918,-5.874863509023189,-1.2430720925331116,1.1863941848278046,-0.7280436158180237
3.02,-2.321561663620174,-0.15779636029601096,-3.0430513528466223,3.1757677785523235,-7.226894204050302,-5.818113447797298,-1.1974895596504211,0.7776471078395844,-0.8926815092563629
3.03,-1.3324910050377248,0.06428074899166816,-2.8150907384783026,3.0660422062031927,-7.322751702305673,-5.756823989576102,-1.0582512021064758,0.6368735432624817,-1.0019056499004364
3.04,-0.4430591168150305,0.09424714044928545,-2.0112422072559593,2.9531548088222745,-7.409430745588242,-5.704745427292586,-0.8841584026813507,0.6795751452445984,-1.019661545753479
3.05,-0.5142362011916936,0.41559214095771313,-1.0781018179491162,2.8378837311752143,-7.484621887911855,-5.665017228016257,-0.7341741323471069,0.7399745285511017,-0.97163987159729
3.06,-0.95984397957623,0.7823366643771529,-0.41468408620208497,2.72399665523246,-7.549622183349728,-5.634640502192079,-0.622347503900528,0.7309249937534332,-0.928858071565628
3.07,-1.7538574916131795,0.9026786155477167,-0.382956530290842,2.6154705218009653,-7.607040937617421,-5.608832107196748,-0.5272796303033829,0.5730905085802078,-0.944316864013672
3.08,-2.6418082013674082,0.9055983023867011,-0.9763234052121639,2.5143914895050226,-7.6593413259580725,-5.583863670156896,-0.42812359333038325,0.3269963786005974,-1.0372795760631561
3.09,-2.7248177623569965,0.8255693646430968,-1.5933634166657924,2.416938319556042,-7.707776563303172,-5.560211576412618,-0.33621241152286524,0.1465382389724254,-1.1467870473861694
3.1,-1.9727825666107237,0.8714306598469614,-1.9900404292732476,2.318370539428666,-7.752142066991329,-5.540471979936957,-0.251285970211029,0.12125411257147783,-1.2040576934814453
3.11,-0.9418106024965643,1.3298168173924088,-1.9169211247876285,2.212757590030134,-7.7910948979809875,-5.528971804018319,-0.1451559737324714,0.26083018630743027,-1.2415448427200317
3.12,-0.0756532068774104,1.8008391691491008,-1.2519693153411149,2.092318973552063,-7.822780076055228,-5.53102844428718,-0.011591877788305296,0.5270853936672211,-1.2754210233688354
3.13,0.5159693085946142,2.1144661426261067,-0.4113505578652024,1.9543976726796477,-7.84566060090512,-5.548939364030957,0.1228188388049602,0.797509104013443,-1.2763174176216125
3.14,0.823811926516518,2.262541611635685,0.11214432392865419,1.805769684353843,-7.859062518791854,-5.580201348257065,0.24020321667194366,0.9668858051300049,-1.2167478799819946
3.15,0.888882072320208,2.2005358218386766,0.14478987146764988,1.6575009577944875,-7.862672818243503,-5.6210021452009675,0.3560558706521988,0.9981938302516937,-1.1244515776634216
3.16,1.0700020981237293,1.9750214315786958,-0.12137246326208115,1.5172321439478544,-7.85585378587842,-5.6699768962502475,0.4927966296672821,0.963904082775116,-1.0137870609760284
3.17,1.3487772461891172,1.5877105054706333,-0.3930979850769043,1.3886183312553912,-7.83680100262314,-5.729025297546387,0.6581557393074036,0.8909459114074707,-0.890092134475708
3.18,0.9577464227750896,1.5661030692964792,-0.36947862455844876,1.2763429282929748,-7.806888971701264,-5.795665469145774,0.7461494207382202,0.6729812026023865,-0.811922699213028
3.19,0.7265057638227939,1.6876342302516103,0.1501359086707234,1.1811490815781056,-7.774742313595116,-5.858810492105782,0.6600638329982758,0.5007510930299759,-0.763110339641571
3.2,0.9386652902081608,1.657967698523402,0.7750660888522862,1.0910938398607075,-7.749340161313116,-5.909730824264884,0.4901108592748642,0.5709611624479294,-0.7605880498886108
3.21,0.8861903855508193,1.6162150076821444,1.0501417978778482,0.9889932459646835,-7.7324270204350345,-5.94965074672103,0.3555603474378586,0.8285576403141022,-0.8084926009178162
3.22,0.9240042391058058,1.2281108853697777,1.4853352958843113,0.8671579144312068,-7.722756398031115,-5.98104687872082,0.2173861116170883,1.0778368413448334,-0.843421459197998
3.23,0.9738949359562248,0.5080056362390518,2.390463934932649,0.73653762075454,-7.722258093120157,-5.999198621483147,0.01592666655778885,1.0600439012050629,-0.8219388127326965
3.24,1.1540434498464687,-0.2306380168840289,3.1617528433337805,0.6203590180748142,-7.733149197229743,-5.998432313285768,-0.19030531495809555,0.7630751132965088,-0.7224553227424622
3.25,1.5007915159523488,-0.6807482212543488,2.9076325363144275,0.534653897858318,-7.751928716501593,-5.982535071451961,-0.2932208329439163,0.4094238728284836,-0.5749190151691437
3.26,1.89551739449203,-0.4926970079481601,1.756486232681572,0.47915650357464323,-7.7719369007855645,-5.961302313809096,-0.28091575205326075,0.17743993923068047,-0.4108651578426361
3.27,2.2332132258206605,-0.02052490163445475,0.49271746621429924,0.44642203564317895,-7.7879387720376245,-5.9429673234343525,-0.19654817134141916,0.04663644544780255,-0.2595789432525635
3.28,2.0755273401618006,0.3869768718481063,-0.48223465064466,0.43239889885187144,-7.797853724591433,-5.93100829783231,-0.11341923102736465,-0.09744237177073949,-0.13230657950043676
3.29,1.807559709575772,0.7972352505624294,-1.0899556296110153,0.43865032392945136,-7.804239918497204,-5.922137009112536,-0.09989465773105616,-0.2719099819660186,0.012987442314624745
3.3,1.9558359618544574,1.0988926770433782,-1.6381497761145232,0.4665721856811083,-7.809914164741336,-5.912488598540425,-0.10540821775794025,-0.3923717439174652,0.18570671603083605
3.31,2.091160378101468,1.3742489565759897,-2.1788097277209157,0.5105136918035336,-7.814351562666893,-5.90296732147932,-0.08136975765228266,-0.3853762000799179,0.3248031288385391
3.32,1.7498007635682822,1.7369164398148653,-2.578890995813906,0.5611274422314949,-7.815868396970629,-5.896358132472634,-0.03491986542940135,-0.3271982967853546,0.40279223024845123
3.33,1.3065955528134479,2.276224392290413,-2.825053621827066,0.6118332183244638,-7.814162469835579,-5.893581653496623,0.010542722418904301,-0.2650074362754822,0.4275085926055908
3.34,0.9633718614414333,2.808400008668005,-2.94108647762686,0.6577271919552237,-7.809587709265947,-5.89471474917978,0.050657549872994395,-0.17891085147857666,0.3994809240102768
3.35,0.5140653016041964,3.17435192040503,-2.72864433490783,0.6945576604960486,-7.803390315930545,-5.898711125339568,0.07133660092949864,-0.11221434548497194,0.3161342293024063
3.36,-0.1027876263121143,3.212515354582667,-2.1492115850538016,0.7189951324643566,-7.7979349731341,-5.903012037403881,0.0487884189933538,-0.06895751692354675,0.16331538185477257
3.37,-0.7070727856108918,2.740426834899187,-1.3657137679427862,0.726525564501807,-7.796905630086362,-5.9034562740400425,-0.0377211440354586,-0.02552836731774735,-0.05300430580973624
3.38,-1.0627543920177964,1.8314628554716705,-0.7810477936103939,0.7119289569377898,-7.80432175156176,-5.895407699880004,-0.1725385822355747,0.052757835306692806,-0.3054749444127083
3.39,-1.0854685838574543,0.8210629931345581,-0.6692258335039019,0.6714961165234445,-7.821633244107663,-5.877120055778325,-0.31272751092910767,0.1841960065066814,-0.547314465045929
3.4,-0.8428142216935752,0.12117986329942942,-0.7293687520384788,0.6045912661058828,-7.848166446246206,-5.848849946844577,-0.4465646594762802,0.35022012889385223,-0.7475398480892181
3.41,-0.5992036182507872,-0.44263007774800056,-0.5797630047217012,0.5133865438261068,-7.8827572826340795,-5.810810139046609,-0.5806775987148285,0.5165895521640778,-0.9079395234584808
3.42,-0.39473787950472905,-1.0765370528504252,-0.18157003459334373,0.40229452369567,-7.924164521038532,-5.76293312010616,-0.68527951836586,0.647034227848053,-1.0232716798782349
3.43,-0.2050143490721471,-1.9679796963736416,-0.11795330246835947,0.27856127698584454,-7.968779907834529,-5.708411256323755,-0.7160305976867676,0.7141492962837219,-1.08038729429245
3.44,-0.0350385801553726,-3.0917735904395576,-0.4844365446031093,0.1494367245925357,-8.010513601714372,-5.65459607950598,-0.6563201546669006,0.7667534947395325,-1.068476378917694
3.45,-0.33252018225640056,-4.018625400996208,-0.9303893370330333,0.022620540473144497,-8.046354730424284,-5.605481627725064,-0.5890173316001892,0.7037785351276398,-1.028088092803955
3.46,-0.7787953385084867,-4.486152896374464,-1.3857064623966813,-0.094265699019283,-8.0793647273615,-5.5571039657861,-0.6102551221847534,0.555966705083847,-0.987438976764679
3.47,-0.19469837796939538,-4.551149100159108,-1.648066482234001,-0.2033378352612489,-8.114176805284618,-5.503189127986133,-0.6976046860218048,0.5708166062831879,-0.9351305663585662
3.48,1.073074071181286,-4.68638613038361,-1.8132661045238374,-0.3117929355834145,-8.152894073952734,-5.440491264271736,-0.79201540350914,0.7019644677639008,-0.8557592630386353
3.49,2.126533889299631,-5.198837640115618,-2.279393377715349,-0.41617607832550996,-8.194775359609721,-5.370155453024804,-0.8489478528499603,0.7467614710330963,-0.7018952369689941
3.5,2.6322557985156774,-5.937523963336647,-3.1947634247928853,-0.5016405399202368,-8.237122216951846,-5.297694027926028,-0.8261716365814209,0.6211622655391693,-0.45514822006225586
3.51,2.702212547317147,-6.401330684626102,-4.331804046183825,-0.553716033463832,-8.276397411763668,-5.231011478489638,-0.709247499704361,0.3858264535665512,-0.14627564884722236
3.52,2.7829455416768787,-5.988689210167527,-5.038075415751338,-0.5646430308707058,-8.309408870005607,-5.177309991179406,-0.5430566817522049,0.08169116452336314,0.18293081782758236
3.53,2.7677240071475504,-5.004451963090896,-5.0518192789435385,-0.5407673575036228,-8.331401700945694,-5.144387672525644,-0.40645260612169903,-0.21942965686321253,0.4356843829154968
3.54,2.6682068173408506,-4.506105551078915,-4.914244453421235,-0.5223041376393288,-8.338786745340625,-5.134319867497682,-0.35650484760602313,-0.34893820434808726,0.5245957970619202
3.55,2.50932733798325,-3.262566502691805,-4.481960705381631,-0.45682334694182497,-8.353875788241623,-5.115870018571615,-0.2362055107951164,-0.644219383597374,0.7201813161373138
3.56,2.458327803108096,-1.9267849316760897,-3.872902340331674,-0.3467914211904164,-8.365813478794694,-5.104830153641104,-0.1062437295913696,-0.9419373571872711,0.9182590842247009
3.57,2.4445184734642504,-0.8392021686762571,-3.1757667556390166,-0.20751112062421156,-8.371291617944838,-5.103232947577536,-0.007851602509617847,-1.1675128936767578,1.0959378480911255
3.58,2.4127079154446722,0.11842325806766746,-2.468322250638902,-0.04424392541839045,-8.371386602751912,-5.106932386617363,0.054665612056851304,-1.3005717396736145,1.268791913986206
3.59,2.6139205158799887,0.8626265911445021,-1.9140309563040732,0.13754095293545388,-8.36642927260548,-5.113250483722984,0.10882129147648806,-1.2862228155136108,1.4659748673439026
3.6,2.9091791812345384,1.318681967654824,-1.5428569260045886,0.3332431079697795,-8.355165535791219,-5.122525092546642,0.18245667219161987,-1.1627331376075745,1.6866933107376099
3.61,2.8214877460390326,1.636051927052438,-1.2883297917500136,0.5399712204235606,-8.33517693299055,-5.137332785578072,0.2878652587532997,-1.042480081319809,1.8805364966392517
3.62,2.221761565218866,1.8848109992995856,-1.0936176592499016,0.755203633181937,-8.30426420059353,-5.160111895880103,0.41285137832164764,-0.9847001731395721,2.0080204606056213
3.63,1.4145420962586999,1.950057670713961,-1.1151125749602913,0.9769660870298743,-8.26124835794866,-5.191738621765374,0.5540881007909775,-0.9858696162700652,2.0786972045898438
3.64,1.0927370039578528,1.4692515915676951,-1.5145114137470723,1.201656264892779,-8.20496299162507,-5.233620491944253,0.7082549333572388,-0.895014226436615,2.1442900896072388
3.65,1.269188380363211,0.33419776007980107,-1.8992010514408353,1.4213704809740184,-8.135104734762013,-5.287368741005659,0.836705356836319,-0.6178916096687317,2.2181894779205322
3.66,1.1808540441542863,-0.986826971308887,-1.997535753464699,1.6273948656052348,-8.053603678639233,-5.352438302287459,0.9172939360141754,-0.2613245062530041,2.2587671279907227
3.67,0.5603349584132433,-2.028199479536712,-1.7815698205336927,1.8137405171025542,-7.9641507867291566,-5.426024347501993,0.9403577148914338,0.07421372458338739,2.242303252220154
3.68,-0.10526084802523256,-2.709195538072288,-1.2410796725362538,1.9795469461791217,-7.87070736387819,-5.5039852467998855,0.9139167070388794,0.3176477774977684,2.2092443704605103
3.69,-0.5283653373744338,-3.204839413127303,-0.6377607279211283,2.1328546167537565,-7.775867518232762,-5.581028446730971,0.8509967923164368,0.3618364930152893,2.1920121908187866
3.7,-0.7505391119696199,-3.826097042275965,0.18047873222529887,2.285745961612463,-7.681258558733761,-5.65107930355668,0.7649945020675659,0.2821086719632148,2.2221027612686157
3.71,-0.8977451777335255,-4.431769564279914,1.1166714948400853,2.4456711506307123,-7.586972255317866,-5.711143896158039,0.6727552115917206,0.1375498045235872,2.265162229537964
3.72,-1.6172751842595634,-4.783550035062432,1.656473952834308,2.6180511859439313,-7.49197020484805,-5.759836030873656,0.632038950920105,-0.21806020103394982,2.2367204427719116
3.73,-2.772365987734496,-4.8896276062980295,1.6340557847991586,2.8116457125909626,-7.394871474359929,-5.793756712915004,0.6530656814575195,-0.8247755318880081,2.1293543577194214
3.74,-2.7926019894249734,-4.305751321038604,1.5917995283499358,3.0316482075616715,-7.29527829670757,-5.8088119509667155,0.6580872535705566,-1.3837841153144836,2.049342155456543
3.75,-1.4686638548076152,-3.5742087320923805,1.3337319450095295,3.2694775972545145,-7.191020049853622,-5.809691948671638,0.6889066100120544,-1.6242343187332153,2.0381985902786255
3.76,-1.3906142543129623,-2.4612737934321167,0.800071058510244,3.5100061629034576,-7.082014023950695,-5.8032788667589426,0.718061774969101,-1.720119595527649,1.9180887937545776
3.77,-2.2839169926196337,-1.0231865709349512,0.6920443990334868,3.7373470379382367,-6.974868531222641,-5.7913198411569,0.7146223783493042,-1.6826353073120117,1.6753809452056885
3.78,-2.1516490413337945,-0.4592380981996655,0.2859615524381399,3.9363765952460463,-6.871358180126547,-5.783497184707224,0.7810851633548737,-1.3915929198265076,1.4627183675765991
3.79,-1.8976032608553766,-0.23725509693622585,-0.7237395139798521,4.1028871540039775,-6.76556001035422,-5.792678562289477,0.9357446134090424,-1.0828300714492798,1.3218878507614136
3.8,-2.652676070731878,-0.15744623168408867,-1.8783821352958678,4.247962564414739,-6.651738108602165,-5.819874027729035,1.1412681937217712,-0.9811666011810303,1.2204322814941406
3.81,-3.2107880923986434,-0.3003542349278926,-2.5159891339600082,4.3864908912695935,-6.527310349422693,-5.857805991238355,1.3228594660758972,-1.049014389514923,1.1808680295944214
3.82,-2.6118632910892368,-0.5400996873751283,-2.5215447222605345,4.5332102694950995,-6.391712669192254,-5.895346032820642,1.437906563282013,-1.3088182210922241,1.2163106203079224
3.83,-2.133675431617349,-0.8215554528266191,-2.6632594240665437,4.700783196787536,-6.2465016497030845,-5.919504322521388,1.5045728087425232,-1.6826204061508179,1.2546640634536743
3.84,-2.0166813295699653,-0.9332613853380083,-2.6198519517555834,4.888002343183755,-6.0957403026103965,-5.924903843477368,1.510293960571289,-1.9554322957992554,1.260267972946167
3.85,-2.253499642524123,-0.7491668007031083,-2.1936378790184854,5.0841190817847846,-5.943599191597103,-5.9144005696415896,1.5066882967948914,-2.0800806283950806,1.2160658836364746
3.86,-2.877849684730172,-0.5303112838104367,-1.3908715900748967,5.276315432071685,-5.793747360564768,-5.894832822601497,1.494204044342041,-2.0804837942123413,1.1066330075263977
3.87,-3.6418560349076983,-0.41431233028024433,-0.15302257002294062,5.459204732570052,-5.65124764586091,-5.866673188304901,1.4296467304229736,-2.1039628982543945,0.971830815076828
3.88,-4.14845443469733,-0.21732202371507878,0.958486135226488,5.638171891188621,-5.517688777981698,-5.824401734286546,1.3600260019302368,-2.2180681228637695,0.8908058404922485
3.89,-4.2603257869035005,-0.0524880198672414,1.700216063927114,5.820222987297177,-5.388858984450996,-5.765570482872427,1.3219501376152039,-2.3765093088150024,0.8784641325473785
3.9,-4.496965382289886,0.10001695602238168,2.194874727337062,6.008978257219493,-5.260718342228234,-5.689660670885443,1.3097581267356873,-2.550130605697632,0.8783368766307831
3.91,-4.695556694310904,0.39512218438088886,2.6678751011684536,6.2027811659201975,-5.132872883559763,-5.59762945291996,1.2890464663505554,-2.642331838607788,0.8837392330169678
3.92,-4.39915791901052,0.736065619328618,3.0096789523378016,6.395996922382713,-5.004627611918748,-5.495383714932203,1.2734645009040833,-2.62556254863739,0.9110807180404663
3.93,-4.2258281817570325,1.133860237789154,3.275647810322046,6.5839674716681245,-4.875847502748668,-5.388156389139592,1.2344966530799866,-2.5751148462295532,0.9243529438972473
3.94,-4.498770970407128,1.6743744973145425,3.5151273053094743,6.765182701474428,-4.750923630615324,-5.274117337505519,1.1393840312957764,-2.5274240970611572,0.8995334208011627
3.95,-4.264593381220102,2.0639739727512003,3.647958735696971,6.935699719394743,-4.633850179721415,-5.155632412378489,1.0138939321041107,-2.3792744874954224,0.8574836850166321
3.96,-3.887176072616875,2.2794724343009287,3.8465330965831876,7.089121517868341,-4.526655002632737,-5.0411646139383315,0.8834022879600525,-2.107840895652771,0.7971251308917999
3.97,-3.8125527933090924,2.3938009704008696,4.041716061465442,7.221596389903128,-4.4311916182614866,-4.9371470439724625,0.7791141867637634,-1.8127586841583252,0.7017547488212585
3.98,-3.434556223513186,2.3569847130484876,4.132594748394936,7.332166304121911,-4.34634169010222,-4.84905930293575,0.7220248878002167,-1.4955666065216064,0.6152579188346863
3.99,-2.836959163676202,2.4007686174564062,4.441011001486331,7.421555775406956,-4.268993954266607,-4.781511222711206,0.6756990551948547,-1.1432440280914307,0.5524921715259552
4.0,-2.4358716411501167,2.6188721469379956,4.961707046341896,7.489432503063976,-4.199419190520048,-4.737250494571775,0.6252801716327667,-0.7664528787136078,0.47554656863212585
4.01,-2.2356717248886824,2.7439728369429703,4.988134011626989,7.535835357798636,-4.136575050202756,-4.719010635134577,0.6367740631103516,-0.4094303697347641,0.40570375323295593
4.02,-2.0776102839156985,2.7317886242829257,4.736175120425225,7.563325130009651,-4.076207529132068,-4.7275709582090375,0.6845462322235107,-0.09255124628543854,0.35640062391757965
4.03,-1.8698668204069138,2.7238001097470517,4.607845823762566,7.574277024395764,-4.01801545240432,-4.759727991578728,0.7042966187000275,0.1850193440914154,0.2961372584104538
4.04,-1.545860491734743,2.598746473754197,4.186493365712463,7.569372593480349,-3.9647131935447453,-4.811903730626404,0.7000488042831421,0.4415115416049957,0.21208059042692184
