time,seconds_elapsed,z,y,x
1759336381499983400,0.0669833984375,8.561393737792969,-1.7112396955490112,4.465929985046387
1759336381509984300,0.076984375,8.492276191711426,-1.7263675928115845,4.590344429016113
1759336381539984100,0.106984130859375,8.274491310119629,-1.7842247486114502,4.951733589172363
1759336381549984300,0.116984375,8.198487281799316,-1.8067195415496826,5.068620204925537
1759336381559984000,0.126984130859375,8.064035415649414,-1.777815341949463,5.289710521697998
1759336381569983200,0.136983154296875,7.8828535079956055,-1.7388468980789185,5.568426132202148
1759336381579983400,0.1469833984375,7.648960113525391,-1.6913527250289917,5.899414539337158
1759336381589983200,0.156983154296875,7.3679938316345215,-1.6602705717086792,6.255115032196045
1759336381599983400,0.1669833984375,7.077764511108398,-1.6702100038528442,6.57920503616333
1759336381609982500,0.176982421875,6.79804801940918,-1.7194600105285645,6.855678558349609
1759336381619982300,0.186982421875,6.538233280181885,-1.7862392663955688,7.087394714355469
1759336381629982500,0.196982421875,6.298771858215332,-1.8531837463378906,7.2843337059021
1759336381639982300,0.206982421875,6.086846351623535,-1.9291695356369019,7.4430365562438965
1759336381649982500,0.216982421875,5.90091609954834,-2.0361881256103516,7.563292503356934
1759336381659982300,0.226982421875,5.715892314910889,-2.198169469833374,7.659430980682373
1759336381669982500,0.236982421875,5.508298397064209,-2.4167914390563965,7.74519681930542
1759336381679982300,0.246982421875,5.2768473625183105,-2.6635236740112305,7.825004577636719
1759336381689982500,0.256982421875,5.023234844207764,-2.9015023708343506,7.9068756103515625
1759336381699982300,0.266982421875,4.758885383605957,-3.088674545288086,7.998958110809326
1759336381709983200,0.276983154296875,4.489999294281006,-3.243297576904297,8.092658996582031
1759336381719983400,0.2869833984375,4.191666603088379,-3.3847365379333496,8.194129943847656
1759336381729983200,0.296983154296875,3.852454662322998,-3.5382542610168457,8.295148849487305
1759336381739983400,0.3069833984375,3.4951088428497314,-3.7206220626831055,8.373252868652344
1759336381749983200,0.316983154296875,3.141648054122925,-3.9181015491485596,8.423099517822266
1759336381759983400,0.3269833984375,2.8155887126922607,-4.106342315673828,8.448699951171875
1759336381769982500,0.336982421875,2.5293221473693848,-4.279847145080566,8.453145027160645
1759336381779982300,0.346982421875,2.2898197174072266,-4.444916248321533,8.436202049255371
1759336381789982500,0.356982421875,2.094123125076294,-4.596055507659912,8.406013488769531
1759336381799982300,0.366982421875,1.9446637630462646,-4.742589473724365,8.360400199890137
1759336381809981400,0.3769814453125,1.8370810747146606,-4.890317916870117,8.299403190612793
1759336381819981600,0.386981689453125,1.7913469076156616,-5.045063018798828,8.216351509094238
1759336381829981400,0.3969814453125,1.776955008506775,-5.209169864654541,8.11647891998291
1759336381839981600,0.406981689453125,1.7800936698913574,-5.370974063873291,8.009624481201172
1759336381849981400,0.4169814453125,1.7660703659057617,-5.514363765716553,7.91472864151001
1759336381859981600,0.426981689453125,1.70525324344635,-5.647425174713135,7.833828926086426
1759336381869982500,0.436982421875,1.5807517766952515,-5.779356956481934,7.763395309448242
1759336381879982300,0.446982421875,1.4107327461242676,-5.909326076507568,7.698031425476074
1759336381889982500,0.456982421875,1.214673638343811,-6.0365681648254395,7.632465362548828
1759336381899982300,0.466982421875,1.0226534605026245,-6.152716636657715,7.567584037780762
1759336381909983200,0.476983154296875,0.860209584236145,-6.265587329864502,7.494837284088135
1759336381919983400,0.4869833984375,0.7504758238792419,-6.386600971221924,7.403933525085449
1759336381929983200,0.496983154296875,0.7006161212921143,-6.5158772468566895,7.295383453369141
1759336381939983400,0.5069833984375,0.6656535267829895,-6.653862476348877,7.173072814941406
1759336381949983200,0.516983154296875,0.6625555753707886,-6.795671463012695,7.039170265197754
1759336381959983400,0.5269833984375,0.7000561356544495,-6.931581974029541,6.901679039001465
1759336381969983200,0.536983154296875,0.7427969574928284,-7.060116291046143,6.765585422515869
1759336381979983400,0.5469833984375,0.7705062627792358,-7.178889274597168,6.636265277862549
1759336381989983200,0.556983154296875,0.8043196797370911,-7.287782192230225,6.5124006271362305
1759336381999983400,0.5669833984375,0.7975526452064514,-7.416910171508789,6.365799427032471
1759336382009982500,0.576982421875,0.7571399807929993,-7.581419944763184,6.174046993255615
1759336382019982600,0.586982666015625,0.6987795829772949,-7.775508403778076,5.934937477111816
1759336382029982500,0.596982421875,0.6303513646125793,-8.00086784362793,5.635504245758057
1759336382039982600,0.606982666015625,0.5715793967247009,-8.250967025756836,5.269237041473389
1759336382049982500,0.616982421875,0.5729466080665588,-8.521341323852539,4.819600582122803
1759336382059982600,0.626982666015625,0.6065765023231506,-8.77437973022461,4.3373332023620605
1759336382069983500,0.6369833984375,0.6545552015304565,-8.997647285461426,3.8450212478637695
1759336382079983400,0.6469833984375,0.7001099586486816,-9.187835693359375,3.356153964996338
1759336382089983500,0.6569833984375,0.7385130524635315,-9.345767974853516,2.8777194023132324
1759336382099983400,0.6669833984375,0.7683522701263428,-9.473678588867188,2.4143314361572266
1759336382109984300,0.676984375,0.7912304997444153,-9.5725736618042,1.9773651361465454
1759336382119984400,0.686984375,0.8040338158607483,-9.643187522888184,1.5913749933242798
1759336382129984300,0.696984375,0.7639449834823608,-9.68785572052002,1.3160682916641235
1759336382139984400,0.706984375,0.7099538445472717,-9.707778930664062,1.1938520669937134
1759336382149984300,0.716984375,0.6683773994445801,-9.707169532775879,1.2223674058914185
1759336382159984400,0.726984375,0.6637392044067383,-9.687636375427246,1.3708549737930298
1759336382169984300,0.736984375,0.6770131587982178,-9.662622451782227,1.5314836502075195
1759336382179984400,0.746984375,0.6995412111282349,-9.637412071228027,1.6735705137252808
1759336382189984300,0.756984375,0.7415508031845093,-9.615774154663086,1.7767667770385742
1759336382199984400,0.766984375,0.7940309047698975,-9.602972030639648,1.8227895498275757
1759336382209983500,0.7769833984375,0.8389052748680115,-9.603937149047852,1.797423005104065
1759336382219983400,0.7869833984375,0.8612287044525146,-9.614490509033203,1.729140043258667
1759336382229983500,0.7969833984375,0.847481906414032,-9.634200096130371,1.6229770183563232
1759336382239983400,0.8069833984375,0.847314178943634,-9.659794807434082,1.463087558746338
1759336382249983500,0.8169833984375,0.879669189453125,-9.683083534240723,1.2783806324005127
1759336382259983400,0.8269833984375,0.9338444471359253,-9.699843406677246,1.1005399227142334
1759336382269983500,0.8369833984375,0.9855249524116516,-9.710247993469238,0.9539105296134949
1759336382279983400,0.8469833984375,0.9902128577232361,-9.71609115600586,0.8871215581893921
1759336382289983500,0.8569833984375,0.9504507184028625,-9.720165252685547,0.8860957622528076
1759336382299983400,0.8669833984375,0.8723077774047852,-9.722712516784668,0.9371218681335449
1759336382309984300,0.876984375,0.7743716835975647,-9.724593162536621,1.0012749433517456
1759336382319984000,0.886984130859375,0.677194356918335,-9.727060317993164,1.0467115640640259
1759336382329984300,0.896984375,0.5972878336906433,-9.730770111083984,1.0608315467834473
1759336382339984100,0.906984130859375,0.5445271730422974,-9.735047340393066,1.0499475002288818
1759336382349984300,0.916984375,0.518089234828949,-9.73879623413086,1.028374195098877
1759336382359984000,0.926984130859375,0.5122025012969971,-9.741174697875977,1.0085721015930176
1759336382369984300,0.936984375,0.5224433541297913,-9.741695404052734,0.9981810450553894
1759336382379984100,0.946984130859375,0.5443348288536072,-9.740636825561523,0.9967752695083618
1759336382389984300,0.956984375,0.5711439251899719,-9.739104270935059,0.9968737363815308
1759336382399984000,0.966984130859375,0.5900924205780029,-9.7377290725708,0.9991714954376221
1759336382409983200,0.976983154296875,0.595554769039154,-9.73715591430664,1.001664161682129
1759336382419983400,0.9869833984375,0.5858078598976135,-9.737682342529297,1.0022834539413452
1759336382429983200,0.996983154296875,0.5631482601165771,-9.73922061920166,1.0001450777053833
1759336382439983400,1.0069833984375,0.530900776386261,-9.741584777832031,0.9947887659072876
1759336382449983200,1.016983154296875,0.49463412165641785,-9.744335174560547,0.9866756200790405
1759336382459983400,1.0269833984375,0.45915713906288147,-9.74709415435791,0.9764552116394043
1759336382469983200,1.036983154296875,0.4277724027633667,-9.749638557434082,0.9651613831520081
1759336382479983400,1.0469833984375,0.40307754278182983,-9.751766204833984,0.9543451070785522
1759336382489983200,1.056983154296875,0.3851718604564667,-9.753378868103027,0.9451646208763123
1759336382499983400,1.0669833984375,0.37267187237739563,-9.754657745361328,0.9370324611663818
1759336382509984300,1.076984375,0.3673825263977051,-9.75554370880127,0.9297548532485962
1759336382519984000,1.086984130859375,0.36653321981430054,-9.756050109863281,0.9247577786445618
1759336382529984300,1.096984375,0.36988312005996704,-9.756083488464355,0.9230924844741821
1759336382539984100,1.106984130859375,0.37613049149513245,-9.755667686462402,0.9249132871627808
1759336382549984300,1.116984375,0.3827461004257202,-9.754935264587402,0.9300079345703125
1759336382559984000,1.126984130859375,0.38787469267845154,-9.754281997680664,0.9346393942832947
1759336382569984300,1.136984375,0.3883914351463318,-9.754071235656738,0.9366241693496704
1759336382579984100,1.146984130859375,0.3836585581302643,-9.754194259643555,0.9372361302375793
1759336382589984300,1.156984375,0.37591713666915894,-9.754440307617188,0.9378381967544556
1759336382599984000,1.166984130859375,0.3673299252986908,-9.754476547241211,0.940940260887146
1759336382609983200,1.176983154296875,0.3629132807254791,-9.753962516784668,0.947905421257019
1759336382619983400,1.1869833984375,0.3687795400619507,-9.75256633758545,0.9599167704582214
1759336382629983200,1.196983154296875,0.3793494403362274,-9.750280380249023,0.9788181781768799
1759336382639983000,1.206983154296875,0.3919885754585266,-9.747513771057129,1.0011223554611206
1759336382649983200,1.216983154296875,0.4063292145729065,-9.74421501159668,1.027144432067871
1759336382659983400,1.2269833984375,0.42576807737350464,-9.740063667297363,1.0583189725875854
1759336382669983200,1.236983154296875,0.44805416464805603,-9.735258102416992,1.0927221775054932
1759336382679983000,1.246983154296875,0.46924716234207153,-9.730074882507324,1.1293641328811646
1759336382689983200,1.256983154296875,0.49004387855529785,-9.724560737609863,1.1674007177352905
1759336382699983400,1.2669833984375,0.5103934407234192,-9.718462944030762,1.2087442874908447
1759336382709984000,1.27698388671875,0.530422031879425,-9.711663246154785,1.253993272781372
1759336382719984000,1.286984130859375,0.5513520240783691,-9.704182624816895,1.3018792867660522
1759336382729984000,1.29698388671875,0.5724111795425415,-9.696168899536133,1.3515733480453491
1759336382739984100,1.306984130859375,0.5906371474266052,-9.688210487365723,1.3998980522155762
1759336382749984000,1.31698388671875,0.605658233165741,-9.680459976196289,1.4463696479797363
1759336382759984000,1.326984130859375,0.6197434067726135,-9.672513961791992,1.4928081035614014
1759336382769984300,1.336984375,0.6360936760902405,-9.66400146484375,1.540299654006958
1759336382789984300,1.356984375,0.6807371377944946,-9.644356727600098,1.641067385673523
1759336382799984000,1.366984130859375,0.7010661959648132,-9.63454532623291,1.6893928050994873
1759336382809983200,1.376983154296875,0.7165998816490173,-9.626017570495605,1.7310645580291748
1759336382819983400,1.3869833984375,0.7262304425239563,-9.618715286254883,1.767194151878357
1759336382829983200,1.396983154296875,0.7323001623153687,-9.612308502197266,1.7992405891418457
1759336382839983400,1.4069833984375,0.7377128005027771,-9.606694221496582,1.8268250226974487
1759336382849983200,1.416983154296875,0.7432903051376343,-9.602140426635742,1.8483541011810303
1759336382859983400,1.4269833984375,0.748836874961853,-9.597891807556152,1.8681164979934692
1759336382869983200,1.436983154296875,0.7538666725158691,-9.593917846679688,1.8864158391952515
1759336382879983400,1.4469833984375,0.7581810355186462,-9.59094524383545,1.8998034000396729
1759336382889983200,1.456983154296875,0.761677622795105,-9.58970832824707,1.9046040773391724
1759336382899983400,1.4669833984375,0.7676882743835449,-9.590222358703613,1.899545669555664
1759336382909984300,1.476984375,0.7786667346954346,-9.592275619506836,1.8846818208694458
1759336382919984000,1.486984130859375,0.7930050492286682,-9.595403671264648,1.8625980615615845
1759336382929984300,1.496984375,0.8066682815551758,-9.598976135253906,1.8381904363632202
1759336382939984100,1.506984130859375,0.8156541585922241,-9.603293418884277,1.811489462852478
1759336382949984300,1.516984375,0.8213379979133606,-9.608851432800293,1.7791893482208252
1759336382959984000,1.526984130859375,0.8258955478668213,-9.615219116210938,1.7423224449157715
1759336382969983700,1.536983642578125,0.8309791088104248,-9.622066497802734,1.7015117406845093
1759336382979916800,1.546916748046875,0.8384352922439575,-9.629055976867676,1.6578096151351929
1759336382989916700,1.556916748046875,0.8459843993186951,-9.636091232299805,1.612499475479126
1759336382999916800,1.566916748046875,0.8531465530395508,-9.643156051635742,1.5658713579177856
1759336383009916000,1.576916015625,0.8604437112808228,-9.649927139282227,1.5193705558776855
1759336383019916000,1.586916015625,0.8647013902664185,-9.656170845031738,1.4767028093338013
1759336383029916000,1.596916015625,0.860616147518158,-9.661832809448242,1.4416741132736206
1759336383039916000,1.606916015625,0.8445253968238831,-9.66707706451416,1.4158800840377808
1759336383049916000,1.616916015625,0.8154799342155457,-9.672607421875,1.394896388053894
1759336383059916000,1.626916015625,0.7703852653503418,-9.679150581359863,1.3749685287475586
1759336383069916000,1.636916015625,0.7056494355201721,-9.687056541442871,1.3538570404052734
1759336383079916000,1.646916015625,0.6156079173088074,-9.696640014648438,1.329016923904419
1759336383089915400,1.656915283203125,0.5126789212226868,-9.70694637298584,1.2970809936523438
1759336383099915500,1.66691552734375,0.39515551924705505,-9.717972755432129,1.2549477815628052
1759336383109916400,1.67691650390625,0.2587035596370697,-9.729026794433594,1.2038087844848633
1759336383119916300,1.686916259765625,0.10001461952924728,-9.73887825012207,1.1465160846710205
1759336383129916400,1.69691650390625,-0.07964403182268143,-9.745943069458008,1.0863553285598755
1759336383139916300,1.706916259765625,-0.27364858984947205,-9.749048233032227,1.0253177881240845
1759336383149916400,1.71691650390625,-0.47548985481262207,-9.747014045715332,0.9695102572441101
1759336383159916300,1.726916259765625,-0.6815916895866394,-9.73880672454834,0.9278793931007385
1759336383169916400,1.73691650390625,-0.8964707255363464,-9.722935676574707,0.9114645719528198
1759336383179916300,1.746916259765625,-1.1282944679260254,-9.69713020324707,0.9287331104278564
1759336383189916400,1.75691650390625,-1.3753198385238647,-9.660163879394531,0.9797118902206421
1759336383199916300,1.766916259765625,-1.6136709451675415,-9.616470336914062,1.043833613395691
1759336383209915400,1.776915283203125,-1.840204119682312,-9.569866180419922,1.0960291624069214
1759336383219915500,1.78691552734375,-2.0607354640960693,-9.520641326904297,1.1317343711853027
1759336383229915400,1.796915283203125,-2.2814176082611084,-9.466435432434082,1.1625187397003174
1759336383239915500,1.80691552734375,-2.5049872398376465,-9.405052185058594,1.1999748945236206
1759336383249915400,1.816915283203125,-2.7366952896118164,-9.333322525024414,1.2528364658355713
1759336383259915500,1.82691552734375,-2.975741386413574,-9.250575065612793,1.3198305368423462
1759336383269916000,1.836916015625,-3.2108495235443115,-9.161519050598145,1.3881735801696777
1759336383279915800,1.846915771484375,-3.4305343627929688,-9.071832656860352,1.450283408164978
1759336383289916000,1.856916015625,-3.632927417755127,-8.983701705932617,1.5049445629119873
1759336383299915800,1.866915771484375,-3.8238089084625244,-8.896615982055664,1.5486494302749634
1759336383309916700,1.876916748046875,-4.018002510070801,-8.805265426635742,1.5787739753723145
1759336383319916500,1.88691650390625,-4.21961784362793,-8.706559181213379,1.6000818014144897
1759336383329916700,1.896916748046875,-4.428764820098877,-8.600409507751465,1.608940839767456
1759336383339916500,1.90691650390625,-4.643901824951172,-8.487639427185059,1.601230502128601
1759336383349916700,1.916916748046875,-4.861774444580078,-8.36858081817627,1.5811107158660889
1759336383359916500,1.92691650390625,-5.074418067932129,-8.247364044189453,1.5495121479034424
1759336383369916700,1.936916748046875,-5.27555513381958,-8.127344131469727,1.5116323232650757
1759336383379916500,1.94691650390625,-5.463192939758301,-8.010191917419434,1.4698638916015625
1759336383389917000,1.9569169921875,-5.639410495758057,-7.894870758056641,1.4274903535842896
1759336383399917000,1.9669169921875,-5.803845405578613,-7.779728889465332,1.4003359079360962
1759336383409916200,1.976916259765625,-5.954339981079102,-7.665975570678711,1.3958920240402222
1759336383419916300,1.986916259765625,-6.088083267211914,-7.5572638511657715,1.4116535186767578
1759336383429916200,1.996916259765625,-6.194558620452881,-7.467249870300293,1.4273638725280762
1759336383439916300,2.006916259765625,-6.287644386291504,-7.388710975646973,1.4291194677352905
1759336383449916200,2.016916259765625,-6.370110511779785,-7.319248676300049,1.4213212728500366
1759336383459916300,2.026916259765625,-6.443662643432617,-7.25661563873291,1.4109480381011963
1759336383469916200,2.036916259765625,-6.51089334487915,-7.199220657348633,1.3962172269821167
1759336383479916300,2.046916259765625,-6.571228504180908,-7.148390769958496,1.3746223449707031
1759336383499916300,2.066916259765625,-6.659646034240723,-7.073355674743652,1.3366427421569824
1759336383509917200,2.076917236328125,-6.679723262786865,-7.054624080657959,1.335389494895935
1759336383519917000,2.0869169921875,-6.682603359222412,-7.0485615730285645,1.3530216217041016
1759336383529917200,2.096917236328125,-6.670915126800537,-7.053061485290527,1.3866496086120605
1759336383539917000,2.1069169921875,-6.6446309089660645,-7.068729877471924,1.432420015335083
1759336383549917200,2.116917236328125,-6.612750053405762,-7.088410377502441,1.4817754030227661
1759336383559917000,2.1269169921875,-6.578554153442383,-7.109467029571533,1.5323400497436523
1759336383569916700,2.136916748046875,-6.540639400482178,-7.133940696716309,1.5800832509994507
1759336383579916800,2.146916748046875,-6.494399070739746,-7.165802478790283,1.6259520053863525
1759336383589916700,2.156916748046875,-6.432644367218018,-7.209524154663086,1.6774226427078247
1759336383599916800,2.166916748046875,-6.347116947174072,-7.270013332366943,1.7409546375274658
1759336383609916000,2.176916015625,-6.235897064208984,-7.346035003662109,1.8217604160308838
1759336383619915800,2.186915771484375,-6.1076507568359375,-7.429836750030518,1.9141484498977661
1759336383629916000,2.196916015625,-5.992970943450928,-7.499110221862793,2.0044052600860596
1759336383639915800,2.206915771484375,-5.930752754211426,-7.529621601104736,2.073812961578369
1759336383649916000,2.216916015625,-5.886344909667969,-7.559197425842285,2.092651128768921
1759336383659915800,2.226915771484375,-5.779574871063232,-7.658987045288086,2.0263564586639404
1759336383669916000,2.236916015625,-5.605145454406738,-7.79352331161499,2.003316879272461
1759336383679915800,2.246915771484375,-5.369182109832764,-7.935178279876709,2.091618537902832
1759336383689916000,2.256916015625,-5.12343168258667,-8.067212104797363,2.200103521347046
1759336383699915800,2.266915771484375,-4.8952460289001465,-8.200725555419922,2.2258856296539307
1759336383709916700,2.276916748046875,-4.727190971374512,-8.313373565673828,2.170574188232422
1759336383719916500,2.28691650390625,-4.617163181304932,-8.395513534545898,2.0897789001464844
1759336383729916700,2.296916748046875,-4.519765377044678,-8.465070724487305,2.020935297012329
1759336383739916500,2.30691650390625,-4.408275127410889,-8.53256607055664,1.9829760789871216
1759336383749916700,2.316916748046875,-4.27642297744751,-8.600470542907715,1.978339672088623
1759336383759916500,2.32691650390625,-4.127357006072998,-8.670084953308105,1.9911268949508667
1759336383769916700,2.336916748046875,-3.9657602310180664,-8.7415771484375,2.0068717002868652
1759336383779916800,2.346916748046875,-3.799790382385254,-8.812920570373535,2.015937089920044
1759336383789916700,2.356916748046875,-3.6317250728607178,-8.882954597473145,2.0182483196258545
1759336383799916800,2.366916748046875,-3.4641778469085693,-8.949673652648926,2.018103837966919
1759336383809916000,2.376916015625,-3.2990691661834717,-9.011699676513672,2.018746852874756
1759336383819915800,2.386915771484375,-3.1346120834350586,-9.070006370544434,2.0196237564086914
1759336383829916000,2.396916015625,-2.967421770095825,-9.126667022705078,2.017085313796997
1759336383839915800,2.406915771484375,-2.7966771125793457,-9.182747840881348,2.00642466545105
1759336383849916000,2.416916015625,-2.6238913536071777,-9.23819351196289,1.9852038621902466
1759336383859915800,2.426915771484375,-2.4519729614257812,-9.292400360107422,1.9516576528549194
1759336383869916200,2.436916259765625,-2.282583713531494,-9.344748497009277,1.9067189693450928
1759336383879916300,2.446916259765625,-2.1225697994232178,-9.392313957214355,1.857223391532898
1759336383889916200,2.456916259765625,-1.9764410257339478,-9.434264183044434,1.8051371574401855
1759336383899916300,2.466916259765625,-1.8439754247665405,-9.471494674682617,1.749528408050537
1759336383909917200,2.476917236328125,-1.72112238407135,-9.506021499633789,1.686180830001831
1759336383919917000,2.4869169921875,-1.6030869483947754,-9.539203643798828,1.6136174201965332
1759336383929917200,2.496917236328125,-1.488479733467102,-9.570855140686035,1.5339807271957397
1759336383939917000,2.5069169921875,-1.3809984922409058,-9.59941291809082,1.4540060758590698
1759336383949917200,2.516917236328125,-1.277967095375061,-9.623917579650879,1.3846379518508911
1759336383959917000,2.5269169921875,-1.1649521589279175,-9.643081665039062,1.3505080938339233
1759336383969917700,2.536917724609375,-1.0358078479766846,-9.657546997070312,1.3523074388504028
1759336383979917600,2.54691748046875,-0.8969494104385376,-9.668150901794434,1.3756483793258667
1759336383989917700,2.556917724609375,-0.761550784111023,-9.675419807434082,1.4058237075805664
1759336383999917600,2.56691748046875,-0.6572913527488708,-9.681617736816406,1.4156997203826904
1759336384009916700,2.576916748046875,-0.5779694318771362,-9.687200546264648,1.4121224880218506
1759336384019916800,2.586916748046875,-0.5084089636802673,-9.690694808959961,1.414945125579834
1759336384029916700,2.596916748046875,-0.4323766827583313,-9.691816329956055,1.4323729276657104
1759336384039916800,2.606916748046875,-0.3475590646266937,-9.691264152526855,1.4590044021606445
1759336384049916700,2.616916748046875,-0.26336920261383057,-9.689432144165039,1.4884412288665771
1759336384059916800,2.626916748046875,-0.1893821656703949,-9.68640422821045,1.519155502319336
1759336384069916700,2.636916748046875,-0.1311357319355011,-9.6828031539917,1.5479841232299805
1759336384079916800,2.646916748046875,-0.08925006538629532,-9.67949104309082,1.5714818239212036
1759336384089916700,2.656916748046875,-0.06071721389889717,-9.677363395690918,1.5858880281448364
1759336384099916800,2.666916748046875,-0.04480360448360443,-9.677051544189453,1.5882790088653564
1759336384109917700,2.676917724609375,-0.036722004413604736,-9.67817211151123,1.5816832780838013
1759336384119917600,2.68691748046875,-0.030244916677474976,-9.679641723632812,1.5727213621139526
1759336384129917700,2.696917724609375,-0.023382045328617096,-9.68140983581543,1.5619845390319824
1759336384139917600,2.70691748046875,-0.01145136822015047,-9.683320999145508,1.5502450466156006
1759336384149917700,2.716917724609375,0.010982582345604897,-9.685541152954102,1.5362740755081177
1759336384159917600,2.72691748046875,0.04251052439212799,-9.688139915466309,1.5192948579788208
1759336384169917700,2.736917724609375,0.07775953412055969,-9.690863609313965,1.5003653764724731
1759336384179917600,2.74691748046875,0.11014438420534134,-9.693968772888184,1.4780869483947754
1759336384189917700,2.756917724609375,0.14019231498241425,-9.698647499084473,1.4444375038146973
1759336384199917600,2.76691748046875,0.16882336139678955,-9.705368995666504,1.3954098224639893
1759336384209916700,2.776916748046875,0.19764438271522522,-9.713961601257324,1.330412745475769
1759336384219916800,2.786916748046875,0.22572189569473267,-9.724013328552246,1.250109076499939
1759336384229916700,2.796916748046875,0.24891923367977142,-9.735881805419922,1.1491984128952026
1759336384239916800,2.806916748046875,0.26625147461891174,-9.747992515563965,1.0371909141540527
1759336384249916700,2.816916748046875,0.27046236395835876,-9.759729385375977,0.9189660549163818
1759336384259916800,2.826916748046875,0.24780163168907166,-9.771208763122559,0.7951111197471619
1759336384269916200,2.836916259765625,0.18986791372299194,-9.782083511352539,0.6669663786888123
1759336384279916300,2.846916259765625,0.09825053066015244,-9.791254997253418,0.54008948802948
1759336384289916200,2.856916259765625,-0.021070260554552078,-9.79775333404541,0.41643065214157104
1759336384299916300,2.866916259765625,-0.15866613388061523,-9.800931930541992,0.29414838552474976
1759336384309917200,2.876917236328125,-0.3027805984020233,-9.800467491149902,0.17110008001327515
1759336384319917000,2.8869169921875,-0.44280806183815,-9.796537399291992,0.04310118407011032
1759336384329917200,2.896917236328125,-0.5771353244781494,-9.789224624633789,-0.09052636474370956
1759336384339917000,2.9069169921875,-0.7161036133766174,-9.777856826782227,-0.22512860596179962
1759336384349917200,2.916917236328125,-0.87153559923172,-9.76148796081543,-0.35220015048980713
1759336384359917000,2.9269169921875,-1.0531260967254639,-9.739028930664062,-0.4606672525405884
1759336384369917200,2.936917236328125,-1.2614257335662842,-9.710328102111816,-0.5370461344718933
1759336384379917000,2.9469169921875,-1.4950001239776611,-9.675420761108398,-0.5668927431106567
1759336384389917200,2.956917236328125,-1.7506980895996094,-9.633594512939453,-0.5468254685401917
1759336384399917000,2.9669169921875,-2.0163989067077637,-9.58402156829834,-0.5006362795829773
1759336384409916200,2.976916259765625,-2.2805817127227783,-9.527409553527832,-0.44410455226898193
1759336384419916300,2.986916259765625,-2.5322048664093018,-9.466837882995605,-0.37004005908966064
1759336384429916200,2.996916259765625,-2.769599676132202,-9.403389930725098,-0.27480918169021606
1759336384439916300,3.006916259765625,-2.997406005859375,-9.335624694824219,-0.1781882792711258
1759336384449916200,3.016916259765625,-3.2179129123687744,-9.263198852539062,-0.09182722121477127
1759336384459916300,3.026916259765625,-3.4293415546417236,-9.187461853027344,-0.00947977602481842
1759336384469916200,3.036916259765625,-3.635456085205078,-9.107532501220703,0.0797334611415863
1759336384479916300,3.046916259765625,-3.8386411666870117,-9.022503852844238,0.170706108212471
1759336384489916200,3.056916259765625,-4.035863399505615,-8.934148788452148,0.25050854682922363
1759336384499916300,3.066916259765625,-4.220430374145508,-8.846879005432129,0.3006894588470459
1759336384509917200,3.076917236328125,-4.392900466918945,-8.76224136352539,0.3086071014404297
1759336384519917000,3.0869169921875,-4.562838077545166,-8.676279067993164,0.2689443826675415
1759336384529917200,3.096917236328125,-4.737249374389648,-8.58457088470459,0.183280348777771
1759336384539917000,3.1069169921875,-4.927088260650635,-8.478796005249023,0.061670273542404175
1759336384549917200,3.116917236328125,-5.1363654136657715,-8.353521347045898,-0.07751110941171646
1759336384559917000,3.1269169921875,-5.367002487182617,-8.204852104187012,-0.21329087018966675
1759336384569917200,3.136917236328125,-5.633570671081543,-8.021468162536621,-0.29777970910072327
1759336384579917000,3.1469169921875,-5.899919033050537,-7.825006484985352,-0.36058542132377625
1759336384589917200,3.156917236328125,-6.1420416831970215,-7.633899688720703,-0.4108198285102844
1759336384599917000,3.1669169921875,-6.346808910369873,-7.462012767791748,-0.4542182385921478
1759336384609916200,3.176916259765625,-6.514471054077148,-7.313971519470215,-0.4872910678386688
1759336384619916300,3.186916259765625,-6.651760578155518,-7.188359260559082,-0.5011655688285828
1759336384629916200,3.196916259765625,-6.7669782638549805,-7.080468654632568,-0.4944736659526825
1759336384639916300,3.206916259765625,-6.867852210998535,-6.984580993652344,-0.4673626720905304
1759336384649916200,3.216916259765625,-6.958058834075928,-6.897191047668457,-0.42885056138038635
1759336384659916300,3.226916259765625,-7.04025936126709,-6.815885543823242,-0.3854793310165405
1759336384669916200,3.236916259765625,-7.116382122039795,-6.738646507263184,-0.34276920557022095
1759336384679916300,3.246916259765625,-7.184659004211426,-6.66766357421875,-0.30439767241477966
1759336384689916200,3.256916259765625,-7.23687219619751,-6.612415313720703,-0.27081921696662903
1759336384699916300,3.266916259765625,-7.278823375701904,-6.567378044128418,-0.24014614522457123
1759336384709917000,3.2769169921875,-7.308902263641357,-6.535085678100586,-0.20608605444431305
1759336384719917000,3.2869169921875,-7.324306011199951,-6.519012451171875,-0.1641957014799118
1759336384729917000,3.2969169921875,-7.323266983032227,-6.521190166473389,-0.11733312904834747
1759336384739917000,3.3069169921875,-7.30559778213501,-6.541664123535156,-0.06837473809719086
1759336384749917000,3.3169169921875,-7.271938800811768,-6.579392910003662,-0.02287292666733265
1759336384759917000,3.3269169921875,-7.223660945892334,-6.6323747634887695,0.02012450434267521
1759336384769917200,3.336917236328125,-7.160600185394287,-6.7000885009765625,0.06662117689847946
1759336384779917000,3.3469169921875,-7.08380651473999,-6.7804179191589355,0.12362433224916458
1759336384789917200,3.356917236328125,-6.997689247131348,-6.8675971031188965,0.19669805467128754
1759336384799917000,3.3669169921875,-6.9152679443359375,-6.9474196434021,0.28708645701408386
1759336384809916200,3.376916259765625,-6.8480305671691895,-7.009576320648193,0.3742717206478119
1759336384819916300,3.386916259765625,-6.781731605529785,-7.07132625579834,0.41769203543663025
1759336384829916200,3.396916259765625,-6.684811592102051,-7.162637710571289,0.42404288053512573
1759336384839916300,3.406916259765625,-6.553009510040283,-7.281839370727539,0.4507809579372406
1759336384849916200,3.416916259765625,-6.406439304351807,-7.406665802001953,0.5183382630348206
1759336384859916300,3.426916259765625,-6.2674126625061035,-7.518434047698975,0.6019120216369629
1759336384869916200,3.436916259765625,-6.137572288513184,-7.622673034667969,0.6283432245254517
1759336384879916300,3.446916259765625,-6.0087432861328125,-7.72715950012207,0.5966013073921204
1759336384889916200,3.456916259765625,-5.882736682891846,-7.825229644775391,0.5734040141105652
1759336384899916300,3.466916259765625,-5.756526470184326,-7.9182868003845215,0.5769371390342712
1759336384909917200,3.476917236328125,-5.613998889923096,-8.018533706665039,0.5965393781661987
1759336384919917000,3.4869169921875,-5.432713031768799,-8.141051292419434,0.615504801273346
1759336384929917200,3.496917236328125,-5.2360429763793945,-8.26832103729248,0.6230363249778748
1759336384939917000,3.5069169921875,-5.033939838409424,-8.393458366394043,0.6159940361976624
1759336384949917200,3.516917236328125,-4.83040189743042,-8.513092041015625,0.6036754846572876
1759336384959917000,3.5269169921875,-4.629178524017334,-8.625017166137695,0.5914210081100464
1759336384969917200,3.536917236328125,-4.432930946350098,-8.728423118591309,0.577737033367157
1759336384979917000,3.5469169921875,-4.2454915046691895,-8.8222017288208,0.5610460638999939
1759336384989917200,3.556917236328125,-4.0688886642456055,-8.906232833862305,0.5414724349975586
1759336384999917000,3.5669169921875,-3.899976968765259,-8.982863426208496,0.5181128978729248
1759336385009916200,3.576916259765625,-3.733591079711914,-9.05469799041748,0.4923384189605713
1759336385019916300,3.586916259765625,-3.567793607711792,-9.122803688049316,0.4641834497451782
1759336385029916200,3.596916259765625,-3.3982577323913574,-9.188785552978516,0.4334568977355957
1759336385039916300,3.606916259765625,-3.2265381813049316,-9.251992225646973,0.4001666009426117
1759336385049916200,3.616916259765625,-3.051701784133911,-9.312643051147461,0.3628796637058258
1759336385059916300,3.626916259765625,-2.871593475341797,-9.371170997619629,0.324020653963089
1759336385069916200,3.636916259765625,-2.684297561645508,-9.427875518798828,0.28239303827285767
1759336385079916300,3.646916259765625,-2.4935190677642822,-9.481371879577637,0.23630817234516144
1759336385089916200,3.656916259765625,-2.3075387477874756,-9.5294828414917,0.18492460250854492
1759336385099916300,3.666916259765625,-2.1359243392944336,-9.570317268371582,0.12947160005569458
1759336385109917200,3.676917236328125,-1.985396385192871,-9.603278160095215,0.07194090634584427
1759336385119917000,3.6869169921875,-1.8568507432937622,-9.629219055175781,0.01155249122530222
1759336385129917200,3.696917236328125,-1.744435429573059,-9.650090217590332,-0.051769059151411057
1759336385139917000,3.7069169921875,-1.6343659162521362,-9.668777465820312,-0.11765315383672714
1759336385149917200,3.716917236328125,-1.5084551572799683,-9.688143730163574,-0.1850491166114807
1759336385159917000,3.7269169921875,-1.3718559741973877,-9.707104682922363,-0.24554215371608734
1759336385169916700,3.736916748046875,-1.2339063882827759,-9.724227905273438,-0.2950064539909363
1759336385179916800,3.746916748046875,-1.1033072471618652,-9.738628387451172,-0.3344578742980957
1759336385189916700,3.756916748046875,-0.9841004610061646,-9.750238418579102,-0.3665662407875061
1759336385199916800,3.766916748046875,-0.8779284954071045,-9.7593412399292,-0.3930886387825012
1759336385209916000,3.776916015625,-0.7801111340522766,-9.766803741455078,-0.4132145941257477
1759336385219915800,3.786915771484375,-0.6877496242523193,-9.773219108581543,-0.42563921213150024
1759336385229916000,3.796916015625,-0.6014449596405029,-9.778847694396973,-0.4272252917289734
1759336385239915800,3.806915771484375,-0.5181313157081604,-9.784210205078125,-0.4130985736846924
1759336385249916000,3.816916015625,-0.4375280737876892,-9.789253234863281,-0.3862289786338806
1759336385259915800,3.826915771484375,-0.3650719225406647,-9.793540954589844,-0.3512728214263916
1759336385269916000,3.836916015625,-0.29622459411621094,-9.797043800354004,-0.31661155819892883
1759336385279915800,3.846915771484375,-0.2290191799402237,-9.799836158752441,-0.284664511680603
1759336385289916000,3.856916015625,-0.16350655257701874,-9.801834106445312,-0.25971242785453796
1759336385299915800,3.866915771484375,-0.10167524963617325,-9.803058624267578,-0.24466624855995178
1759336385309916700,3.876916748046875,-0.04550093784928322,-9.80351448059082,-0.24306759238243103
1759336385319916800,3.886916748046875,0.004331307485699654,-9.803333282470703,-0.25470277667045593
1759336385329916700,3.896916748046875,0.04711012542247772,-9.802664756774902,-0.2751081585884094
1759336385339916800,3.906916748046875,0.08407821506261826,-9.801758766174316,-0.2974766492843628
1759336385349916700,3.916916748046875,0.1176397055387497,-9.800765037536621,-0.31805619597435
1759336385359916500,3.92691650390625,0.15205635130405426,-9.799598693847656,-0.33909517526626587
1759336385369916700,3.936916748046875,0.19232115149497986,-9.797771453857422,-0.3700134754180908
1759336385379916800,3.946916748046875,0.23890110850334167,-9.794861793518066,-0.4165332317352295
1759336385389916700,3.956916748046875,0.2845025956630707,-9.791316032409668,-0.4681885838508606
1759336385399916500,3.96691650390625,0.32672902941703796,-9.787130355834961,-0.524774432182312
1759336385409916000,3.976916015625,0.3639882206916809,-9.782358169555664,-0.5855512619018555
1759336385419915800,3.986915771484375,0.39409634470939636,-9.777307510375977,-0.6473389863967896
1759336385429916000,3.996916015625,0.40793082118034363,-9.772699356079102,-0.7056085467338562
1759336385439915800,4.006915771484375,0.39140522480010986,-9.769698143005371,-0.7549196481704712
1759336385449916000,4.016916015625,0.33083823323249817,-9.769152641296387,-0.790132462978363
1759336385459915800,4.026915771484375,0.2243950366973877,-9.770392417907715,-0.8119125962257385
1759336385469916200,4.036916259765625,0.08421499282121658,-9.771608352661133,-0.8238394856452942
1759336385479916300,4.046916259765625,-0.0708756148815155,-9.770978927612305,-0.8325207829475403
1759336385489916200,4.056916259765625,-0.22248423099517822,-9.766733169555664,-0.8552318215370178
1759336385499916300,4.066916259765625,-0.3720078468322754,-9.759317398071289,-0.8873723149299622
1759336385509917200,4.076917236328125,-0.5259510278701782,-9.749080657958984,-0.9214502573013306
1759336385519917000,4.0869169921875,-0.6911351680755615,-9.735783576965332,-0.9522887468338013
1759336385529917200,4.096917236328125,-0.8735492825508118,-9.718456268310547,-0.9789730310440063
1759336385539917000,4.1069169921875,-1.0766863822937012,-9.695524215698242,-1.0037599802017212
1759336385549917200,4.116917236328125,-1.2992740869522095,-9.666316986083984,-1.021973729133606
1759336385559917000,4.1269169921875,-1.5383155345916748,-9.630802154541016,-1.0253028869628906
1759336385569917200,4.136917236328125,-1.7932243347167969,-9.588555335998535,-1.0069854259490967
1759336385579917000,4.1469169921875,-2.0663046836853027,-9.538092613220215,-0.9618629217147827
1759336385589917000,4.1569169921875,-2.3493151664733887,-9.480484008789062,-0.8781918287277222
1759336385599917000,4.1669169921875,-2.624952793121338,-9.418352127075195,-0.7577259540557861
1759336385609916200,4.176916259765625,-2.8755974769592285,-9.35425853729248,-0.6315197944641113
1759336385619916300,4.186916259765625,-3.1050357818603516,-9.287391662597656,-0.5224921703338623
1759336385629916200,4.196916259765625,-3.322256565093994,-9.216347694396973,-0.43730947375297546
1759336385639916300,4.206916259765625,-3.533076047897339,-9.14063835144043,-0.3690621554851532
1759336385649916200,4.216916259765625,-3.736222505569458,-9.061861038208008,-0.30488091707229614
1759336385659916300,4.226916259765625,-3.9282641410827637,-8.982378005981445,-0.23540405929088593
1759336385669916200,4.236916259765625,-4.107377529144287,-8.903575897216797,-0.15984086692333221
1759336385679916300,4.246916259765625,-4.276710510253906,-8.824477195739746,-0.09025032818317413
1759336385689916200,4.256916259765625,-4.450606822967529,-8.738454818725586,-0.037032678723335266
1759336385699916300,4.266916259765625,-4.621025562286377,-8.649616241455078,-0.019382892176508904
1759336385709917000,4.2769169921875,-4.7813568115234375,-8.561890602111816,-0.04884820431470871
1759336385719917000,4.2869169921875,-4.956768989562988,-8.46048641204834,-0.14303162693977356
1759336385729917000,4.2969169921875,-5.148996353149414,-8.342391014099121,-0.24943740665912628
1759336385739917000,4.3069169921875,-5.352466583251953,-8.20958137512207,-0.35172173380851746
1759336385749917000,4.3169169921875,-5.572075843811035,-8.057647705078125,-0.44272857904434204
1759336385759917000,4.3269169921875,-5.799551010131836,-7.890729904174805,-0.5212476849555969
1759336385769917200,4.336917236328125,-6.0129194259643555,-7.724460601806641,-0.5894292593002319
1759336385779917000,4.3469169921875,-6.196153163909912,-7.572970867156982,-0.6540279984474182
1759336385789917200,4.356917236328125,-6.346157550811768,-7.4418721199035645,-0.7172822952270508
1759336385799917000,4.3669169921875,-6.4698100090026855,-7.328659534454346,-0.7758517265319824
1759336385809916200,4.376916259765625,-6.576361656188965,-7.227231979370117,-0.8298355340957642
1759336385819916300,4.386916259765625,-6.672158718109131,-7.132903575897217,-0.8796244859695435
1759336385829916200,4.396916259765625,-6.760061740875244,-7.04359245300293,-0.9268099069595337
1759336385839916300,4.406916259765625,-6.837606906890869,-6.963205814361572,-0.9648320078849792
1759336385849916200,4.416916259765625,-6.9056878089904785,-6.891233444213867,-0.9960513114929199
1759336385859916300,4.426916259765625,-6.964895248413086,-6.827710151672363,-1.020821213722229
1759336385869916200,4.436916259765625,-7.0166754722595215,-6.771480560302734,-1.04075026512146
1759336385879916300,4.446916259765625,-7.061861038208008,-6.722214698791504,-1.0545799732208252
1759336385889916200,4.456916259765625,-7.100444316864014,-6.680437088012695,-1.0607571601867676
1759336385899916300,4.466916259765625,-7.131725788116455,-6.6478753089904785,-1.0554943084716797
1759336385909917200,4.476917236328125,-7.153744697570801,-6.627346515655518,-1.0354914665222168
1759336385919917000,4.4869169921875,-7.164738655090332,-6.621020317077637,-0.9992012977600098
1759336385929917200,4.496917236328125,-7.164003372192383,-6.629097938537598,-0.9496139883995056
1759336385939917000,4.5069169921875,-7.150115966796875,-6.651805400848389,-0.8937282562255859
1759336385949917200,4.516917236328125,-7.1164774894714355,-6.695127964019775,-0.8369779586791992
1759336385959917000,4.5269169921875,-7.071832180023193,-6.749127388000488,-0.7800397872924805
1759336385969917200,4.536917236328125,-7.022864818572998,-6.80740213394165,-0.7131840586662292
1759336385979917000,4.5469169921875,-6.977510452270508,-6.862288475036621,-0.6272083520889282
1759336385989917200,4.556917236328125,-6.938847541809082,-6.9103827476501465,-0.5186598896980286
1759336385999917000,4.5669169921875,-6.904313087463379,-6.9520955085754395,-0.41060954332351685
1759336386009916200,4.576916259765625,-6.863152027130127,-6.9960551261901855,-0.34917423129081726
1759336386019916300,4.586916259765625,-6.7829813957214355,-7.073933124542236,-0.3473573923110962
1759336386029916200,4.596916259765625,-6.650424957275391,-7.198179721832275,-0.357321172952652
1759336386039916300,4.606916259765625,-6.491217613220215,-7.343436241149902,-0.32807666063308716
1759336386049916200,4.616916259765625,-6.328087329864502,-7.487390518188477,-0.25351810455322266
1759336386059916300,4.626916259765625,-6.158376693725586,-7.629659175872803,-0.1800277829170227
1759336386069916200,4.636916259765625,-5.962669372558594,-7.783947944641113,-0.16244769096374512
1759336386079916300,4.646916259765625,-5.768317699432373,-7.929247856140137,-0.1528393179178238
1759336386089916200,4.656916259765625,-5.589720726013184,-8.056621551513672,-0.12432780861854553
1759336386099916300,4.666916259765625,-5.41778039932251,-8.173766136169434,-0.08358107507228851
1759336386109917200,4.676917236328125,-5.2447309494018555,-8.286187171936035,-0.04286021366715431
1759336386119917000,4.6869169921875,-5.076863765716553,-8.39018440246582,-0.0018172785639762878
1759336386129917200,4.696917236328125,-4.918818473815918,-8.483716011047363,0.0401085764169693
1759336386139917000,4.7069169921875,-4.764857769012451,-8.570878982543945,0.07772373408079147
1759336386149917200,4.716917236328125,-4.605756759643555,-8.65709400177002,0.10686536133289337
1759336386159917000,4.7269169921875,-4.436154365539551,-8.744976997375488,0.12560118734836578
1759336386169917200,4.736917236328125,-4.2567315101623535,-8.833568572998047,0.1353321671485901
1759336386179917000,4.7469169921875,-4.072383880615234,-8.920112609863281,0.13201689720153809
1759336386189917200,4.756917236328125,-3.8917346000671387,-9.0006742477417,0.11094839125871658
1759336386199917000,4.7669169921875,-3.718280076980591,-9.074097633361816,0.07125087827444077
1759336386209916200,4.776916259765625,-3.553128480911255,-9.140305519104004,0.014876666478812695
1759336386219916300,4.786916259765625,-3.3948874473571777,-9.200104713439941,-0.05418328195810318
1759336386229916200,4.796916259765625,-3.2409908771514893,-9.254687309265137,-0.12944719195365906
1759336386239916300,4.806916259765625,-3.088425397872925,-9.305360794067383,-0.20455212891101837
1759336386249916200,4.816916259765625,-2.9336512088775635,-9.353466033935547,-0.27663376927375793
1759336386259916300,4.826916259765625,-2.7730000019073486,-9.400144577026367,-0.3432447016239166
1759336386269916200,4.836916259765625,-2.611556053161621,-9.443873405456543,-0.4036172032356262
1759336386279916300,4.846916259765625,-2.4585628509521484,-9.482416152954102,-0.45757514238357544
1759336386289916200,4.856916259765625,-2.319092273712158,-9.515074729919434,-0.5052446722984314
1759336386299916300,4.866916259765625,-2.197103261947632,-9.541899681091309,-0.5430689454078674
1759336386309917200,4.876917236328125,-2.0781168937683105,-9.566585540771484,-0.5759820342063904
1759336386319917000,4.8869169921875,-1.9573627710342407,-9.590113639831543,-0.6070379614830017
1759336386329917200,4.896917236328125,-1.8335206508636475,-9.612579345703125,-0.6374645233154297
1759336386339917000,4.9069169921875,-1.705104112625122,-9.634116172790527,-0.6681560277938843
1759336386349917200,4.916917236328125,-1.5734353065490723,-9.654202461242676,-0.7005889415740967
1759336386359917000,4.9269169921875,-1.442079782485962,-9.672403335571289,-0.7313793897628784
1759336386369917200,4.936917236328125,-1.3156477212905884,-9.688319206237793,-0.7586773037910461
1759336386379917000,4.9469169921875,-1.199713110923767,-9.701310157775879,-0.7844148278236389
1759336386389917200,4.956917236328125,-1.0962228775024414,-9.711769104003906,-0.8062000870704651
1759336386399917000,4.9669169921875,-1.0034773349761963,-9.720854759216309,-0.8174810409545898
1759336386409916200,4.976916259765625,-0.9163830280303955,-9.730459213256836,-0.8052639365196228
1759336386419916300,4.986916259765625,-0.8291758894920349,-9.740321159362793,-0.7800412774085999
1759336386429916200,4.996916259765625,-0.7426964640617371,-9.749899864196777,-0.7469589114189148
1759336386439916300,5.006916259765625,-0.6577759385108948,-9.758878707885742,-0.7082833051681519
1759336386449916200,5.016916259765625,-0.5772042870521545,-9.76707935333252,-0.6641674041748047
1759336386459916300,5.026916259765625,-0.5023217797279358,-9.774397850036621,-0.6156631708145142
1759336386469916200,5.036916259765625,-0.4338759779930115,-9.780573844909668,-0.5676182508468628
1759336386479916300,5.046916259765625,-0.37272390723228455,-9.785318374633789,-0.5279495120048523
1759336386489916200,5.056916259765625,-0.3165992796421051,-9.788697242736816,-0.5012891888618469
1759336386499916300,5.066916259765625,-0.26019057631492615,-9.790980339050293,-0.4886798858642578
1759336386509917200,5.076917236328125,-0.19956336915493011,-9.792376518249512,-0.48973801732063293
1759336386519917000,5.0869169921875,-0.13683365285396576,-9.7929105758667,-0.5002154111862183
1759336386529917200,5.096917236328125,-0.07896540313959122,-9.792550086975098,-0.5193408131599426
1759336386539917000,5.1069169921875,-0.02346796914935112,-9.791577339172363,-0.5426797866821289
1759336386549917200,5.116917236328125,0.030195817351341248,-9.789902687072754,-0.5717827081680298
1759336386559917000,5.1269169921875,0.0806201845407486,-9.787198066711426,-0.6118355989456177
1759336386569917200,5.136917236328125,0.12861761450767517,-9.783041954040527,-0.6676045060157776
1759336386579917000,5.1469169921875,0.17736907303333282,-9.777207374572754,-0.7379693984985352
1759336386589917000,5.1569169921875,0.2297726422548294,-9.769845008850098,-0.8170733451843262
1759336386599917000,5.1669169921875,0.28719958662986755,-9.76136589050293,-0.8963801264762878
1759336386609916200,5.176916259765625,0.3415449261665344,-9.752412796020508,-0.971558690071106
1759336386619916300,5.186916259765625,0.37502750754356384,-9.744123458862305,-1.0399861335754395
1759336386629916200,5.196916259765625,0.3691951334476471,-9.738112449645996,-1.0968011617660522
1759336386639916300,5.206916259765625,0.30290859937667847,-9.736858367919922,-1.1278201341629028
1759336386649916200,5.216916259765625,0.20975042879581451,-9.73735523223877,-1.1445327997207642
1759336386659916300,5.226916259765625,0.10157646238803864,-9.737624168395996,-1.1569647789001465
1759336386669916200,5.236916259765625,-0.01644727773964405,-9.736310005187988,-1.1722058057785034
1759336386679916300,5.246916259765625,-0.1459270566701889,-9.732747077941895,-1.192641258239746
1759336386689916200,5.256916259765625,-0.2939028739929199,-9.726401329040527,-1.2168327569961548
1759336386699916300,5.266916259765625,-0.46670040488243103,-9.716813087463379,-1.239323377609253
1759336386709917000,5.2769169921875,-0.6661217212677002,-9.70307445526123,-1.2556240558624268
1759336386719917000,5.2869169921875,-0.8916203379631042,-9.683398246765137,-1.2676161527633667
1759336386729917000,5.2969169921875,-1.142563819885254,-9.65610122680664,-1.274511694908142
1759336386739917000,5.3069169921875,-1.403007984161377,-9.621856689453125,-1.2734124660491943
1759336386749917000,5.3169169921875,-1.653283953666687,-9.584365844726562,-1.2556524276733398
1759336386759917000,5.3269169921875,-1.8930922746658325,-9.544849395751953,-1.2174261808395386
1759336386769917200,5.336917236328125,-2.1296191215515137,-9.503907203674316,-1.144745111465454
1759336386779917000,5.3469169921875,-2.361114740371704,-9.46207046508789,-1.0316162109375
1759336386789917200,5.356917236328125,-2.5951409339904785,-9.413604736328125,-0.9051800966262817
1759336386799917000,5.3669169921875,-2.833981990814209,-9.354260444641113,-0.7977361083030701
1759336386809916200,5.376916259765625,-3.077573776245117,-9.283926010131836,-0.7122436761856079
1759336386819916300,5.386916259765625,-3.326777696609497,-9.202832221984863,-0.6405853033065796
1759336386829916200,5.396916259765625,-3.5806543827056885,-9.111557006835938,-0.5727973580360413
1759336386839916300,5.406916259765625,-3.8267626762390137,-9.015140533447266,-0.5030465126037598
1759336386849916200,5.416916259765625,-4.057578086853027,-8.917436599731445,-0.43082231283187866
1759336386859916300,5.426916259765625,-4.270540237426758,-8.820371627807617,-0.3651571273803711
1759336386869916200,5.436916259765625,-4.458322048187256,-8.728604316711426,-0.3237037658691406
1759336386879916300,5.446916259765625,-4.634979724884033,-8.636369705200195,-0.3162400722503662
1759336386889916200,5.456916259765625,-4.804322242736816,-8.541882514953613,-0.3529568910598755
1759336386899916300,5.466916259765625,-4.979806423187256,-8.436795234680176,-0.4379429519176483
1759336386909917200,5.476917236328125,-5.169179439544678,-8.315176010131836,-0.5543816089630127
1759336386919917000,5.4869169921875,-5.382354736328125,-8.169062614440918,-0.6832390427589417
1759336386929917200,5.496917236328125,-5.632038593292236,-7.988088130950928,-0.8004267811775208
1759336386939917000,5.5069169921875,-5.919206619262695,-7.768614768981934,-0.8838653564453125
1759336386949917200,5.516917236328125,-6.213216304779053,-7.529148101806641,-0.9368290305137634
1759336386959917000,5.5269169921875,-6.4648871421813965,-7.306807041168213,-0.992804765701294
1759336386969917200,5.536917236328125,-6.658623218536377,-7.120554447174072,-1.063225269317627
1759336386979917000,5.5469169921875,-6.794360160827637,-6.981297969818115,-1.1259335279464722
1759336386989917200,5.556917236328125,-6.905368804931641,-6.8633599281311035,-1.1746715307235718
1759336386999917000,5.5669169921875,-6.998571395874023,-6.762550354003906,-1.2074058055877686
1759336387009916200,5.576916259765625,-7.081225395202637,-6.6734209060668945,-1.221205711364746
1759336387019916300,5.586916259765625,-7.158405780792236,-6.5904622077941895,-1.2218258380889893
1759336387029916200,5.596916259765625,-7.231147766113281,-6.511338233947754,-1.2178598642349243
1759336387039916300,5.606916259765625,-7.300073146820068,-6.434956073760986,-1.2125741243362427
1759336387049916200,5.616916259765625,-7.362451553344727,-6.364706993103027,-1.2062020301818848
1759336387059916300,5.626916259765625,-7.415945053100586,-6.303943157196045,-1.1975648403167725
1759336387069916200,5.636916259765625,-7.458157062530518,-6.256560325622559,-1.1837153434753418
1759336387079916000,5.646916015625,-7.487602233886719,-6.225031852722168,-1.1639539003372192
1759336387089916200,5.656916259765625,-7.502830982208252,-6.211431503295898,-1.1380988359451294
1759336387099916000,5.666916015625,-7.496401786804199,-6.225481033325195,-1.1033488512039185
1759336387109917000,5.6769169921875,-7.476650714874268,-6.256059646606445,-1.063623309135437
1759336387119917000,5.6869169921875,-7.445183277130127,-6.300709247589111,-1.0199304819107056
1759336387129917000,5.6969169921875,-7.402307033538818,-6.358273506164551,-0.9738376140594482
1759336387139917000,5.7069169921875,-7.348214149475098,-6.427601337432861,-0.9270210266113281
1759336387149917000,5.7169169921875,-7.282879829406738,-6.509024143218994,-0.8730459809303284
1759336387159917000,5.7269169921875,-7.211481094360352,-6.596607208251953,-0.8057620525360107
1759336387169917000,5.7369169921875,-7.14682674407959,-6.67540979385376,-0.7290289402008057
1759336387179917000,5.7469169921875,-7.088204383850098,-6.7462477684021,-0.6447184681892395
1759336387189917000,5.7569169921875,-7.033514499664307,-6.809704303741455,-0.5722671151161194
1759336387199917000,5.7669169921875,-6.955849647521973,-6.892208576202393,-0.5323705077171326
1759336387209916200,5.776916259765625,-6.817221641540527,-7.0295610427856445,-0.5297556519508362
1759336387219916000,5.786916015625,-6.657481670379639,-7.183015823364258,-0.5020342469215393
1759336387229916200,5.796916259765625,-6.490535259246826,-7.339099884033203,-0.4248890280723572
1759336387239916000,5.806916015625,-6.3138346672058105,-7.495678424835205,-0.346873939037323
1759336387249916200,5.816916259765625,-6.108814239501953,-7.665111064910889,-0.3136281371116638
1759336387259916000,5.826916015625,-5.895629405975342,-7.830665111541748,-0.30383703112602234
1759336387269916200,5.836916259765625,-5.714339256286621,-7.96496057510376,-0.275433212518692
1759336387279916000,5.846916015625,-5.557492256164551,-8.07666301727295,-0.22766456007957458
1759336387289916200,5.856916259765625,-5.395792484283447,-8.1865873336792,-0.18701514601707458
1759336387299916000,5.866916015625,-5.220705509185791,-8.299882888793945,-0.1614818423986435
1759336387309917200,5.876917236328125,-5.03926420211792,-8.41158676147461,-0.14409582316875458
1759336387319917000,5.8869169921875,-4.859750270843506,-8.516791343688965,-0.13006116449832916
1759336387329917000,5.8969169921875,-4.687122821807861,-8.613097190856934,-0.12276727706193924
1759336387339917000,5.9069169921875,-4.515377521514893,-8.704350471496582,-0.12422018498182297
1759336387349917000,5.9169169921875,-4.337952136993408,-8.79395580291748,-0.13542865216732025
1759336387359917000,5.9269169921875,-4.152841567993164,-8.882526397705078,-0.15630412101745605
1759336387369917000,5.9369169921875,-3.964381217956543,-8.967658996582031,-0.18589024245738983
1759336387379917000,5.9469169921875,-3.780364513397217,-9.045902252197266,-0.22423601150512695
1759336387389917000,5.9569169921875,-3.6061296463012695,-9.115575790405273,-0.26907235383987427
1759336387399917000,5.9669169921875,-3.443171739578247,-9.17684555053711,-0.3159050941467285
1759336387409916200,5.976916259765625,-3.289421558380127,-9.231253623962402,-0.36560922861099243
1759336387419916000,5.986916015625,-3.1390743255615234,-9.281105041503906,-0.42136090993881226
1759336387429916200,5.996916259765625,-2.9825668334960938,-9.32968807220459,-0.48079827427864075
1759336387439916000,6.006916015625,-2.8073933124542236,-9.38086986541748,-0.5363612771034241
1759336387449916200,6.016916259765625,-2.6260640621185303,-9.430143356323242,-0.588361382484436
1759336387459916000,6.026916015625,-2.452031373977661,-9.473751068115234,-0.6369016170501709
1759336387469916200,6.036916259765625,-2.296358585357666,-9.50968074798584,-0.6801537275314331
1759336387479916000,6.046916015625,-2.159931182861328,-9.539081573486328,-0.7146269083023071
1759336387489916200,6.056916259765625,-2.0321319103240967,-9.56503677368164,-0.7421405911445618
1759336387499916000,6.066916015625,-1.900335669517517,-9.59029483795166,-0.7648980021476746
1759336387509917000,6.0769169921875,-1.7583407163619995,-9.61600399017334,-0.7815373539924622
1759336387519917000,6.0869169921875,-1.6078964471817017,-9.641814231872559,-0.7876419425010681
1759336387529917000,6.0969169921875,-1.4565590620040894,-9.665611267089844,-0.7901572585105896
1759336387539917000,6.1069169921875,-1.312277913093567,-9.685667991638184,-0.7973898649215698
1759336387549917000,6.1169169921875,-1.1803998947143555,-9.70162582397461,-0.809589147567749
1759336387559917000,6.1269169921875,-1.0744582414627075,-9.713050842285156,-0.8198065757751465
1759336387569917000,6.1369169921875,-0.9799813628196716,-9.722575187683105,-0.8252471089363098
1759336387579917000,6.1469169921875,-0.8926993608474731,-9.73101806640625,-0.8247683048248291
1759336387589917000,6.1569169921875,-0.8081120252609253,-9.739176750183105,-0.8157377243041992
1759336387599917000,6.1669169921875,-0.7264116406440735,-9.746827125549316,-0.8011177778244019
1759336387609916200,6.176916259765625,-0.6505763530731201,-9.75360107421875,-0.7835865020751953
1759336387619916000,6.186916015625,-0.5821049213409424,-9.759502410888672,-0.7636816501617432
1759336387629916200,6.196916259765625,-0.5199024081230164,-9.76476001739502,-0.741158664226532
1759336387639916300,6.206916259765625,-0.461168497800827,-9.76956844329834,-0.7162660956382751
1759336387649916200,6.216916259765625,-0.405665785074234,-9.773886680603027,-0.690398633480072
1759336387659916300,6.226916259765625,-0.3527238965034485,-9.777551651000977,-0.6671377420425415
1759336387669916200,6.236916259765625,-0.30196285247802734,-9.780394554138184,-0.6501378417015076
1759336387679916300,6.246916259765625,-0.2528098225593567,-9.782580375671387,-0.6381005048751831
1759336387689916200,6.256916259765625,-0.20558394491672516,-9.784231185913086,-0.6298938989639282
1759336387699916300,6.266916259765625,-0.16490064561367035,-9.785338401794434,-0.6247089505195618
1759336387709917000,6.2769169921875,-0.13298282027244568,-9.78593921661377,-0.6227584481239319
1759336387729917000,6.2969169921875,-0.09040624648332596,-9.785699844360352,-0.6339931488037109
1759336387739917000,6.3069169921875,-0.07109832018613815,-9.785014152526855,-0.6469272375106812
1759336387749917000,6.3169169921875,-0.04938742518424988,-9.783720970153809,-0.6683042049407959
1759336387759917000,6.3269169921875,-0.024250060319900513,-9.78122329711914,-0.7052364945411682
1759336387769917000,6.3369169921875,0.010238485410809517,-9.777490615844727,-0.7555423974990845
1759336387779917000,6.3469169921875,0.06396247446537018,-9.772997856140137,-0.8090708255767822
1759336387789917200,6.356917236328125,0.1530851125717163,-9.768098831176758,-0.8548905253410339
1759336387799917000,6.3669169921875,0.23789924383163452,-9.763227462768555,-0.8904986381530762
1759336387809916200,6.376916259765625,0.2849713861942291,-9.759663581848145,-0.9152964353561401
1759336387819916300,6.386916259765625,0.2766255736351013,-9.758442878723145,-0.9308752417564392
1759336387829916200,6.396916259765625,0.22193127870559692,-9.758822441101074,-0.9414300918579102
1759336387839916300,6.406916259765625,0.1463783085346222,-9.759228706359863,-0.9519529342651367
1759336387849916200,6.416916259765625,0.06849661469459534,-9.758979797363281,-0.9631655216217041
1759336387859916300,6.426916259765625,-0.004671499133110046,-9.75768756866455,-0.9785711169242859
1759336387869916200,6.436916259765625,-0.07883446663618088,-9.755608558654785,-0.995975136756897
1759336387879916300,6.446916259765625,-0.16816578805446625,-9.752777099609375,-1.0124890804290771
1759336387889916200,6.456916259765625,-0.2869885563850403,-9.74787425994873,-1.03288996219635
1759336387899916300,6.466916259765625,-0.46181321144104004,-9.737874984741211,-1.0633039474487305
1759336387909917200,6.476917236328125,-0.6683388352394104,-9.722904205322266,-1.0901436805725098
1759336387919917000,6.4869169921875,-0.8966086506843567,-9.702714920043945,-1.1061546802520752
1759336387929917200,6.496917236328125,-1.1316852569580078,-9.677290916442871,-1.113299012184143
1759336387939917000,6.5069169921875,-1.3702415227890015,-9.646039009094238,-1.1163924932479858
1759336387949917200,6.516917236328125,-1.6187200546264648,-9.60753345489502,-1.1158348321914673
1759336387959917000,6.5269169921875,-1.885372519493103,-9.560338020324707,-1.1023342609405518
1759336387969917200,6.536917236328125,-2.168401002883911,-9.505814552307129,-1.0524307489395142
1759336387979917000,6.5469169921875,-2.4507501125335693,-9.447006225585938,-0.958067774772644
1759336387989917200,6.556917236328125,-2.7219197750091553,-9.384505271911621,-0.8320825099945068
1759336387999917000,6.5669169921875,-2.983877420425415,-9.31446647644043,-0.7123380899429321
1759336388009916200,6.576916259765625,-3.2340989112854004,-9.237434387207031,-0.6167320013046265
1759336388019916300,6.586916259765625,-3.466433525085449,-9.157094955444336,-0.5490209460258484
1759336388029916200,6.596916259765625,-3.690279722213745,-9.073073387145996,-0.48077285289764404
1759336388039916300,6.606916259765625,-3.9115333557128906,-8.983417510986328,-0.4098298251628876
1759336388049916200,6.616916259765625,-4.129729747772217,-8.888100624084473,-0.3424924910068512
1759336388059916300,6.626916259765625,-4.34018611907959,-8.789033889770508,-0.29259949922561646
1759336388069916200,6.636916259765625,-4.533947467803955,-8.691157341003418,-0.2777138948440552
1759336388079916300,6.646916259765625,-4.71233606338501,-8.594612121582031,-0.31113216280937195
1759336388089916200,6.656916259765625,-4.893336296081543,-8.489527702331543,-0.3914112150669098
1759336388099916300,6.666916259765625,-5.092350482940674,-8.36600399017334,-0.49793168902397156
1759336388109917000,6.6769169921875,-5.317141532897949,-8.218222618103027,-0.5988001823425293
1759336388119917000,6.6869169921875,-5.5692572593688965,-8.044124603271484,-0.6673358082771301
1759336388129917000,6.6969169921875,-5.835378646850586,-7.849292755126953,-0.7121438384056091
1759336388139917000,6.7069169921875,-6.079296588897705,-7.65733003616333,-0.7596990466117859
1759336388149917000,6.7169169921875,-6.2857136726379395,-7.483377933502197,-0.8115764856338501
1759336388159917000,6.7269169921875,-6.454716205596924,-7.332456111907959,-0.8610329031944275
1759336388169917000,6.7369169921875,-6.593600273132324,-7.20303201675415,-0.9003514051437378
1759336388179917000,6.7469169921875,-6.706977367401123,-7.094432830810547,-0.9250852465629578
1759336388189917000,6.7569169921875,-6.801537036895752,-7.0024261474609375,-0.9353960752487183
1759336388199917000,6.7669169921875,-6.8832597732543945,-6.922086715698242,-0.9356200098991394
1759336388209916200,6.776916259765625,-6.955631732940674,-6.849950313568115,-0.9312658905982971
1759336388219916300,6.786916259765625,-7.022648811340332,-6.781335353851318,-0.9302757382392883
1759336388229916200,6.796916259765625,-7.084904193878174,-6.715567588806152,-0.9355493187904358
1759336388239916300,6.806916259765625,-7.1378984451293945,-6.657893657684326,-0.9448109865188599
1759336388249916200,6.816916259765625,-7.169549942016602,-6.622556686401367,-0.9536675214767456
1759336388259916300,6.826916259765625,-7.185151100158691,-6.604753017425537,-0.9597693085670471
1759336388269916200,6.836916259765625,-7.186455249786377,-6.603041648864746,-0.9615373015403748
1759336388279916300,6.846916259765625,-7.175521373748779,-6.615641117095947,-0.9566358923912048
1759336388289916200,6.856916259765625,-7.1533708572387695,-6.641369819641113,-0.9440932273864746
1759336388299916300,6.866916259765625,-7.122119426727295,-6.6781792640686035,-0.9204585552215576
1759336388309917200,6.876917236328125,-7.083689212799072,-6.723920822143555,-0.8833858966827393
1759336388319917000,6.8869169921875,-7.037020683288574,-6.778700828552246,-0.8362383842468262
1759336388329917000,6.8969169921875,-6.982050895690918,-6.841992378234863,-0.779829204082489
1759336388339917000,6.9069169921875,-6.919165134429932,-6.912338733673096,-0.7174711227416992
1759336388349917000,6.9169169921875,-6.847836494445801,-6.989709377288818,-0.6487849950790405
1759336388359917000,6.9269169921875,-6.76785135269165,-7.075961589813232,-0.5449269413948059
1759336388369917000,6.9369169921875,-6.676438331604004,-7.16955041885376,-0.43881553411483765
1759336388379917000,6.9469169921875,-6.563201427459717,-7.276732921600342,-0.37887218594551086
1759336388389917000,6.9569169921875,-6.418965816497803,-7.40472936630249,-0.36972931027412415
1759336388399917000,6.9669169921875,-6.260469913482666,-7.53926420211792,-0.3685254156589508
1759336388409916200,6.976916259765625,-6.103298187255859,-7.668916702270508,-0.32797881960868835
1759336388419916300,6.986916259765625,-5.944994926452637,-7.794753074645996,-0.2618879973888397
1759336388429916200,6.996916259765625,-5.7710041999816895,-7.925240993499756,-0.23692800104618073
1759336388439916300,7.006916259765625,-5.587593078613281,-8.054899215698242,-0.25950053334236145
1759336388449916200,7.016916259765625,-5.427324295043945,-8.16292953491211,-0.2844921350479126
1759336388459916300,7.026916259765625,-5.297420501708984,-8.247658729553223,-0.2888064384460449
1759336388469916200,7.036916259765625,-5.176120758056641,-8.324872970581055,-0.2728969156742096
1759336388479916300,7.046916259765625,-5.02947473526001,-8.414831161499023,-0.25520408153533936
1759336388499916300,7.066916259765625,-4.685591220855713,-8.611538887023926,-0.23803569376468658
1759336388509917200,7.076917236328125,-4.500098705291748,-8.710062980651855,-0.2322096973657608
1759336388519917000,7.0869169921875,-4.311540603637695,-8.805013656616211,-0.22885319590568542
1759336388529917200,7.096917236328125,-4.124173641204834,-8.894303321838379,-0.22978918254375458
1759336388539917000,7.1069169921875,-3.9416613578796387,-8.976487159729004,-0.23655791580677032
1759336388549917200,7.116917236328125,-3.766688823699951,-9.05098819732666,-0.24867381155490875
1759336388559917000,7.1269169921875,-3.5995092391967773,-9.118300437927246,-0.2648596167564392
1759336388569917200,7.136917236328125,-3.4410247802734375,-9.178765296936035,-0.28203970193862915
1759336388579917000,7.1469169921875,-3.2921605110168457,-9.232762336730957,-0.29668891429901123
1759336388589917000,7.1569169921875,-3.153120994567871,-9.280808448791504,-0.30730247497558594
1759336388599917000,7.1669169921875,-3.013946294784546,-9.326504707336426,-0.3198517858982086
1759336388609916200,7.176916259765625,-2.869938850402832,-9.371224403381348,-0.33745282888412476
1759336388619916300,7.186916259765625,-2.719597339630127,-9.415000915527344,-0.36292174458503723
1759336388629916200,7.196916259765625,-2.5628175735473633,-9.457595825195312,-0.39511916041374207
1759336388639916300,7.206916259765625,-2.4043776988983154,-9.497632026672363,-0.4289078116416931
1759336388649916200,7.216916259765625,-2.253817558288574,-9.533075332641602,-0.4590971767902374
1759336388659916300,7.226916259765625,-2.11736798286438,-9.563085556030273,-0.4840262830257416
1759336388669916200,7.236916259765625,-1.9923796653747559,-9.58880615234375,-0.5051111578941345
1759336388679916300,7.246916259765625,-1.873306155204773,-9.61152172088623,-0.5285641551017761
1759336388689916200,7.256916259765625,-1.760047435760498,-9.63119888305664,-0.5588304996490479
1759336388699916300,7.266916259765625,-1.6524317264556885,-9.648104667663574,-0.5945888161659241
1759336388709917000,7.2769169921875,-1.543794870376587,-9.663509368896484,-0.6348930597305298
1759336388719917000,7.2869169921875,-1.4324188232421875,-9.678009986877441,-0.674111008644104
1759336388739917000,7.3069169921875,-1.2048118114471436,-9.704096794128418,-0.7409148216247559
1759336388749917000,7.3169169921875,-1.0971580743789673,-9.714874267578125,-0.7664565443992615
1759336388759917000,7.3269169921875,-1.0012047290802002,-9.723694801330566,-0.7858994603157043
1759336388769917000,7.3369169921875,-0.9182236790657043,-9.731122016906738,-0.795140266418457
1759336388779917000,7.3469169921875,-0.8451672196388245,-9.738101959228516,-0.7906084060668945
1759336388789917000,7.3569169921875,-0.7770698666572571,-9.74512004852295,-0.7738656997680664
1759336388799917000,7.3669169921875,-0.7103092670440674,-9.752008438110352,-0.7509018182754517
1759336388809916200,7.376916259765625,-0.6426777243614197,-9.758540153503418,-0.7265958786010742
1759336388819916000,7.386916015625,-0.5726344585418701,-9.76485824584961,-0.6999511122703552
1759336388829916200,7.396916259765625,-0.5028513073921204,-9.77060604095459,-0.6726005673408508
1759336388839916000,7.406916015625,-0.43651512265205383,-9.775394439697266,-0.648955225944519
1759336388849916200,7.416916259765625,-0.37543433904647827,-9.779111862182617,-0.6308873891830444
1759336388859916000,7.426916015625,-0.3169599175453186,-9.78211498260498,-0.6163442134857178
1759336388869916200,7.436916259765625,-0.2582394480705261,-9.784714698791504,-0.60234534740448
1759336388879916000,7.446916015625,-0.1984492838382721,-9.786880493164062,-0.5898191928863525
1759336388889916200,7.456916259765625,-0.13637655973434448,-9.788372039794922,-0.5824238061904907
1759336388899916000,7.466916015625,-0.07330431044101715,-9.788848876953125,-0.5857943892478943
1759336388909917000,7.4769169921875,-0.013492519035935402,-9.78805923461914,-0.6032212376594543
1759336388919917000,7.4869169921875,0.03791150450706482,-9.786094665527344,-0.6333772540092468
1759336388929917000,7.4969169921875,0.08557166904211044,-9.782915115356445,-0.6762358546257019
1759336388939917000,7.5069169921875,0.1343342363834381,-9.778064727783203,-0.7358367443084717
1759336388949917000,7.5169169921875,0.1821574866771698,-9.772257804870605,-0.7999545931816101
1759336388959917000,7.5269169921875,0.22769641876220703,-9.766048431396484,-0.8618419766426086
1759336388969917000,7.5369169921875,0.27141106128692627,-9.760156631469727,-0.9142739176750183
1759336388979917000,7.5469169921875,0.31207916140556335,-9.755127906799316,-0.9540548920631409
1759336388989917000,7.5569169921875,0.34244975447654724,-9.750664710998535,-0.9886574149131775
1759336388999917000,7.5669169921875,0.3488093614578247,-9.746990203857422,-1.0220471620559692
1759336389009916200,7.576916259765625,0.31831133365631104,-9.744987487792969,-1.050678014755249
1759336389019916000,7.586916015625,0.25152212381362915,-9.745256423950195,-1.06625235080719
1759336389029916200,7.596916259765625,0.16338381171226501,-9.747054100036621,-1.0670058727264404
1759336389039916000,7.606916015625,0.07184767723083496,-9.74923324584961,-1.0570706129074097
1759336389049916200,7.616916259765625,-0.012757190503180027,-9.751255989074707,-1.0407078266143799
1759336389059916000,7.626916015625,-0.10010755807161331,-9.751755714416504,-1.031190037727356
1759336389069916200,7.636916259765625,-0.20029869675636292,-9.749452590942383,-1.038282871246338
1759336389079916300,7.646916259765625,-0.3276870548725128,-9.743378639221191,-1.0627332925796509
1759336389089916200,7.656916259765625,-0.493681937456131,-9.732478141784668,-1.097862958908081
1759336389099916300,7.666916259765625,-0.7004197239875793,-9.715727806091309,-1.1332279443740845
1759336389109917000,7.6769169921875,-0.9383721947669983,-9.692784309387207,-1.157402753829956
1759336389119917000,7.6869169921875,-1.191511631011963,-9.66408634185791,-1.164310336112976
1759336389129917000,7.6969169921875,-1.4476128816604614,-9.630331993103027,-1.15377676486969
1759336389139917000,7.7069169921875,-1.6957499980926514,-9.593404769897461,-1.1230450868606567
1759336389149917000,7.7169169921875,-1.9443740844726562,-9.553911209106445,-1.0547202825546265
1759336389159917000,7.7269169921875,-2.1939632892608643,-9.511844635009766,-0.9388903975486755
1759336389169917000,7.7369169921875,-2.4404730796813965,-9.465181350708008,-0.7901549339294434
1759336389179917000,7.7469169921875,-2.6960785388946533,-9.40546703338623,-0.66203773021698
1759336389189917000,7.7569169921875,-2.9658002853393555,-9.330218315124512,-0.5667780041694641
1759336389199917000,7.7669169921875,-3.244176149368286,-9.241204261779785,-0.495493084192276
1759336389209916200,7.776916259765625,-3.522331953048706,-9.141600608825684,-0.4409848749637604
1759336389219916000,7.786916015625,-3.7898406982421875,-9.036092758178711,-0.3947053551673889
1759336389229916200,7.796916259765625,-4.0367817878723145,-8.930206298828125,-0.3544447422027588
1759336389239916000,7.806916015625,-4.257411956787109,-8.828045845031738,-0.3319702744483948
1759336389249916200,7.816916259765625,-4.467310905456543,-8.723480224609375,-0.33788320422172546
1759336389259916000,7.826916015625,-4.66923189163208,-8.615198135375977,-0.3827114403247833
1759336389269916200,7.836916259765625,-4.861324787139893,-8.50300407409668,-0.4862222671508789
1759336389279916300,7.846916259765625,-5.026522636413574,-8.39266300201416,-0.6836324334144592
1759336389289916200,7.856916259765625,-5.191253185272217,-8.270298957824707,-0.9071232676506042
1759336389299916300,7.866916259765625,-5.397875785827637,-8.112826347351074,-1.1022251844406128
1759336389309917000,7.8769169921875,-5.6738810539245605,-7.9044718742370605,-1.2233803272247314
1759336389319917000,7.8869169921875,-5.993222236633301,-7.655721664428711,-1.2811610698699951
1759336389329917000,7.8969169921875,-6.295324802398682,-7.400761604309082,-1.329423427581787
1759336389339917000,7.9069169921875,-6.530601501464844,-7.177649021148682,-1.4151859283447266
1759336389349917000,7.9169169921875,-6.695952415466309,-7.001384258270264,-1.5214910507202148
1759336389359917000,7.9269169921875,-6.824042797088623,-6.856447219848633,-1.6098427772521973
1759336389369917000,7.9369169921875,-6.932922840118408,-6.730288982391357,-1.6756888628005981
1759336389379917000,7.9469169921875,-7.026432991027832,-6.619661808013916,-1.7261106967926025
1759336389389917000,7.9569169921875,-7.100713729858398,-6.531475067138672,-1.7577458620071411
1759336389399917000,7.9669169921875,-7.169768810272217,-6.449483871459961,-1.7799499034881592
1759336389409916200,7.976916259765625,-7.233644962310791,-6.373941421508789,-1.793578863143921
1759336389419916300,7.986916259765625,-7.291030406951904,-6.305234432220459,-1.8040122985839844
1759336389429916200,7.996916259765625,-7.341075420379639,-6.245671272277832,-1.8082804679870605
1759336389439916300,8.006916259765624,-7.382584571838379,-6.198680400848389,-1.801077961921692
1759336389449916200,8.016916259765624,-7.413312911987305,-6.167627811431885,-1.7813529968261719
1759336389459916300,8.026916259765626,-7.430750370025635,-6.15583610534668,-1.749185562133789
1759336389469916200,8.036916259765626,-7.433019161224365,-6.165420055389404,-1.7052422761917114
1759336389479916300,8.046916259765625,-7.418378829956055,-6.198102951049805,-1.6496400833129883
1759336389489916200,8.056916259765625,-7.387251377105713,-6.252293109893799,-1.5834392309188843
1759336389499916300,8.066916259765625,-7.341388702392578,-6.324284553527832,-1.509157657623291
1759336389509917200,8.076917236328125,-7.2831315994262695,-6.411602020263672,-1.4203330278396606
1759336389519917000,8.0869169921875,-7.231085777282715,-6.492743015289307,-1.3136513233184814
1759336389529917200,8.096917236328125,-7.19935941696167,-6.551697731018066,-1.189242959022522
1759336389539917000,8.1069169921875,-7.174352169036865,-6.598780632019043,-1.0744105577468872
1759336389549917200,8.116917236328124,-7.116097450256348,-6.671210289001465,-1.0127835273742676
1759336389559917000,8.1269169921875,-7.006494998931885,-6.788333415985107,-0.9987754821777344
1759336389569917200,8.136917236328125,-6.8535051345825195,-6.947152137756348,-0.9678427577018738
1759336389579917000,8.1469169921875,-6.694401741027832,-7.110780239105225,-0.8896981477737427
1759336389589917200,8.156917236328125,-6.536386966705322,-7.269161224365234,-0.7777760624885559
1759336389599917000,8.1669169921875,-6.354313373565674,-7.437227725982666,-0.6928275227546692
1759336389609916200,8.176916259765624,-6.138045310974121,-7.620367527008057,-0.6514222025871277
1759336389619916300,8.186916259765624,-5.92765998840332,-7.787214756011963,-0.6260620951652527
1759336389629916200,8.196916259765626,-5.777758598327637,-7.90200138092041,-0.5878375172615051
1759336389639916300,8.206916259765626,-5.642197608947754,-8.00205135345459,-0.5502443909645081
1759336389649916200,8.216916259765625,-5.5013322830200195,-8.101370811462402,-0.522388219833374
1759336389659916300,8.226916259765625,-5.353800296783447,-8.200785636901855,-0.5038005113601685
1759336389669916200,8.236916259765625,-5.2064924240112305,-8.296224594116211,-0.48507434129714966
1759336389679916300,8.246916259765625,-5.0634660720825195,-8.385313034057617,-0.46680986881256104
1759336389689916200,8.256916259765624,-4.922123908996582,-8.469788551330566,-0.453197181224823
1759336389699916300,8.266916259765624,-4.774178981781006,-8.554465293884277,-0.445338636636734
1759336389709917000,8.2769169921875,-4.614291667938232,-8.64186954498291,-0.4429979622364044
1759336389719917000,8.2869169921875,-4.443192481994629,-8.730953216552734,-0.4456438422203064
1759336389729917000,8.2969169921875,-4.265288352966309,-8.818812370300293,-0.45371079444885254
1759336389739917000,8.3069169921875,-4.087403774261475,-8.901754379272461,-0.47093620896339417
1759336389749917000,8.3169169921875,-3.9134886264801025,-8.978294372558594,-0.49463632702827454
1759336389759917000,8.3269169921875,-3.745115280151367,-9.048210144042969,-0.5235133171081543
1759336389769917000,8.3369169921875,-3.580103635787964,-9.112859725952148,-0.5554829239845276
1759336389779917000,8.3469169921875,-3.414026975631714,-9.174236297607422,-0.5898697376251221
1759336389789917200,8.356917236328124,-3.244682788848877,-9.233325004577637,-0.6228082776069641
1759336389799917000,8.3669169921875,-3.06927490234375,-9.291167259216309,-0.6509274840354919
1759336389809916200,8.376916259765625,-2.8861494064331055,-9.347992897033691,-0.674420177936554
1759336389819916300,8.386916259765625,-2.699723720550537,-9.40227222442627,-0.6918898820877075
1759336389829916200,8.396916259765625,-2.519766330718994,-9.451562881469727,-0.6992343068122864
1759336389839916300,8.406916259765625,-2.3590877056121826,-9.493071556091309,-0.6972891092300415
1759336389849916200,8.416916259765625,-2.2302451133728027,-9.525049209594727,-0.6851693391799927
1759336389859916300,8.426916259765624,-2.110901355743408,-9.553147315979004,-0.6720851063728333
1759336389869916200,8.436916259765624,-1.991034746170044,-9.579423904418945,-0.6636767387390137
1759336389879916300,8.446916259765626,-1.8677877187728882,-9.604336738586426,-0.6617633104324341
1759336389889916200,8.456916259765626,-1.7455332279205322,-9.627050399780273,-0.6657215356826782
1759336389899916300,8.466916259765625,-1.6266127824783325,-9.647269248962402,-0.6740380525588989
1759336389909917200,8.476917236328125,-1.5115344524383545,-9.66498851776123,-0.6879156231880188
1759336389919917000,8.4869169921875,-1.4002841711044312,-9.680103302001953,-0.7104378342628479
1759336389929917200,8.496917236328125,-1.2940964698791504,-9.692743301391602,-0.7388673424720764
1759336389939917000,8.5069169921875,-1.1933231353759766,-9.703605651855469,-0.7654635906219482
1759336389949917200,8.516917236328124,-1.097928524017334,-9.713224411010742,-0.7860736846923828
1759336389959917000,8.5269169921875,-1.0098305940628052,-9.721674919128418,-0.7996106147766113
1759336389969917200,8.536917236328126,-0.9333481788635254,-9.729471206665039,-0.7977638244628906
1759336389979917000,8.5469169921875,-0.8612503409385681,-9.737173080444336,-0.7846964001655579
1759336389989917200,8.556917236328125,-0.7909493446350098,-9.744501113891602,-0.7676113843917847
1759336389999917000,8.5669169921875,-0.7222808599472046,-9.751104354858398,-0.7512819766998291
1759336390009916200,8.576916259765625,-0.6547089219093323,-9.757126808166504,-0.7347297668457031
1759336390019916300,8.586916259765625,-0.5887754559516907,-9.762616157531738,-0.7175400853157043
1759336390029916200,8.596916259765624,-0.5255892276763916,-9.767410278320312,-0.7010464072227478
1759336390039916300,8.606916259765624,-0.46649232506752014,-9.771425247192383,-0.6867246031761169
1759336390049916200,8.616916259765626,-0.4117068350315094,-9.774615287780762,-0.6765328645706177
1759336390059916300,8.626916259765625,-0.36179274320602417,-9.777121543884277,-0.6686344742774963
1759336390069916200,8.636916259765625,-0.31567105650901794,-9.779218673706055,-0.661413848400116
1759336390079916300,8.646916259765625,-0.2709440290927887,-9.780755996704102,-0.6583021283149719
1759336390089916200,8.656916259765625,-0.22785073518753052,-9.781526565551758,-0.6632247567176819
1759336390099916300,8.666916259765625,-0.18889175355434418,-9.781262397766113,-0.6792552471160889
1759336390109917000,8.6769169921875,-0.15314532816410065,-9.779924392700195,-0.7069101333618164
1759336390119917000,8.6869169921875,-0.11695406585931778,-9.777661323547363,-0.7442376613616943
1759336390129917000,8.6969169921875,-0.07574585825204849,-9.774519920349121,-0.789314866065979
1759336390139917000,8.7069169921875,-0.03341653198003769,-9.7705717086792,-0.8395816087722778
1759336390149917000,8.7169169921875,0.008342296816408634,-9.765907287597656,-0.892845094203949
1759336390159917000,8.7269169921875,0.05707154795527458,-9.7601318359375,-0.9521811604499817
1759336390169917000,8.7369169921875,0.10829437524080276,-9.753172874450684,-1.0168265104293823
1759336390179917000,8.7469169921875,0.15703824162483215,-9.745487213134766,-1.0820622444152832
1759336390189917000,8.7569169921875,0.20611527562141418,-9.738030433654785,-1.1395412683486938
1759336390199917000,8.7669169921875,0.25359949469566345,-9.732022285461426,-1.1804057359695435
1759336390209916200,8.776916259765626,0.28395548462867737,-9.727128982543945,-1.21344792842865
1759336390219916000,8.786916015625,0.2829805016517639,-9.723831176757812,-1.2397944927215576
1759336390229916200,8.796916259765625,0.24334348738193512,-9.722554206848145,-1.2581722736358643
1759336390239916000,8.806916015625,0.17105039954185486,-9.722779273986816,-1.2682321071624756
1759336390249916200,8.816916259765625,0.08410218358039856,-9.723345756530762,-1.272648572921753
1759336390259916000,8.826916015625,-0.00321954651735723,-9.72318172454834,-1.2766478061676025
1759336390269916200,8.836916259765625,-0.08488018065690994,-9.721951484680176,-1.2832027673721313
1759336390279916300,8.846916259765624,-0.1607183814048767,-9.71945858001709,-1.2947243452072144
1759336390289916200,8.856916259765624,-0.23920390009880066,-9.715475082397461,-1.3124459981918335
1759336390299916300,8.866916259765626,-0.3305746018886566,-9.7090425491333,-1.3398633003234863
1759336390309917000,8.8769169921875,-0.45294660329818726,-9.69787883758545,-1.3842741250991821
1759336390319917000,8.8869169921875,-0.6043272614479065,-9.682502746582031,-1.4331570863723755
1759336390329917000,8.8969169921875,-0.7911959886550903,-9.662335395812988,-1.4775581359863281
1759336390339917000,8.9069169921875,-1.0124714374542236,-9.636549949645996,-1.510610580444336
1759336390349917000,8.9169169921875,-1.2544184923171997,-9.605399131774902,-1.5273724794387817
1759336390359917000,8.9269169921875,-1.502701759338379,-9.570359230041504,-1.5232311487197876
1759336390369917000,8.9369169921875,-1.7567321062088013,-9.531006813049316,-1.4979515075683594
1759336390379917000,8.9469169921875,-2.0177087783813477,-9.487462043762207,-1.444629192352295
1759336390389917000,8.9569169921875,-2.288163661956787,-9.439811706542969,-1.3506237268447876
1759336390399917000,8.9669169921875,-2.5545973777770996,-9.389238357543945,-1.219162940979004
1759336390409916200,8.976916259765625,-2.8029065132141113,-9.335661888122559,-1.0766404867172241
1759336390419916000,8.986916015625,-3.0355122089385986,-9.276097297668457,-0.9538689255714417
1759336390429916200,8.996916259765625,-3.257603168487549,-9.208876609802246,-0.8687069416046143
1759336390439916000,9.006916015625,-3.4806292057037354,-9.133710861206055,-0.7943115830421448
1759336390449916200,9.016916259765624,-3.705782413482666,-9.050743103027344,-0.7221132516860962
1759336390459916300,9.026916259765626,-3.921247720718384,-8.964699745178223,-0.654297947883606
1759336390469916200,9.036916259765626,-4.11939001083374,-8.879569053649902,-0.594923734664917
1759336390479916300,9.046916259765625,-4.302361011505127,-8.795452117919922,-0.5474057197570801
1759336390489916200,9.056916259765625,-4.484796524047852,-8.705718040466309,-0.5167512893676758
1759336390499916300,9.066916259765625,-4.677874565124512,-8.603590965270996,-0.5155777335166931
1759336390509917200,9.076917236328125,-4.868139743804932,-8.494379997253418,-0.5627225637435913
1759336390519917000,9.0869169921875,-5.056151390075684,-8.378090858459473,-0.6424896121025085
1759336390529917200,9.096917236328125,-5.246363639831543,-8.252154350280762,-0.7401697039604187
1759336390539917000,9.1069169921875,-5.440608024597168,-8.114108085632324,-0.8550470471382141
1759336390549917200,9.116917236328124,-5.644372940063477,-7.961818218231201,-0.959381639957428
1759336390559917000,9.1269169921875,-5.861391067504883,-7.794369697570801,-1.0303456783294678
1759336390569917200,9.136917236328125,-6.075629234313965,-7.624307155609131,-1.0614471435546875
1759336390579917000,9.1469169921875,-6.265364170074463,-7.467811584472656,-1.0709445476531982
1759336390589917000,9.1569169921875,-6.423087120056152,-7.33060884475708,-1.0843663215637207
1759336390599917000,9.1669169921875,-6.552577495574951,-7.21218729019165,-1.1036403179168701
1759336390609916200,9.176916259765624,-6.664574146270752,-7.106853485107422,-1.1163028478622437
1759336390619916300,9.186916259765624,-6.7654924392700195,-7.009944438934326,-1.1220033168792725
1759336390629916200,9.196916259765626,-6.85971212387085,-6.916569232940674,-1.129393458366394
1759336390639916300,9.206916259765626,-6.947397232055664,-6.826490879058838,-1.1414122581481934
1759336390649916200,9.216916259765625,-7.026836395263672,-6.742036819458008,-1.1570290327072144
1759336390659916300,9.226916259765625,-7.090100288391113,-6.671772003173828,-1.1781268119812012
1759336390669916200,9.236916259765625,-7.141443252563477,-6.613924503326416,-1.1941312551498413
1759336390679916300,9.246916259765625,-7.1804375648498535,-6.569328308105469,-1.2062960863113403
1759336390689916200,9.256916259765624,-7.206742286682129,-6.5384674072265625,-1.217025637626648
1759336390699916300,9.266916259765624,-7.220670700073242,-6.521276950836182,-1.2267855405807495
1759336390709917200,9.276917236328124,-7.221360683441162,-6.519254207611084,-1.233312964439392
1759336390729917000,9.2969169921875,-7.182163238525391,-6.565237522125244,-1.218178391456604
1759336390739917000,9.3069169921875,-7.13944149017334,-6.615386962890625,-1.197891116142273
1759336390749917200,9.316917236328125,-7.079717636108398,-6.682209491729736,-1.1813907623291016
1759336390759917000,9.3269169921875,-7.004641056060791,-6.763793468475342,-1.1644185781478882
1759336390769917200,9.336917236328125,-6.916543006896973,-6.857599258422852,-1.14211905002594
1759336390779917000,9.3469169921875,-6.83491325378418,-6.9446187019348145,-1.1071237325668335
1759336390789917200,9.356917236328124,-6.781167030334473,-7.004673004150391,-1.0585254430770874
1759336390799917000,9.3669169921875,-6.739675045013428,-7.050544738769531,-1.018189549446106
1759336390809916200,9.376916259765625,-6.666470527648926,-7.116765022277832,-1.0392004251480103
1759336390819916300,9.386916259765625,-6.547226428985596,-7.21727180480957,-1.1022136211395264
1759336390829916200,9.396916259765625,-6.400275230407715,-7.344417095184326,-1.1250483989715576
1759336390839916300,9.406916259765625,-6.241865158081055,-7.4878644943237305,-1.0680499076843262
1759336390849916200,9.416916259765625,-6.080430030822754,-7.631105422973633,-0.982036828994751
1759336390859916300,9.426916259765624,-5.900671482086182,-7.779132843017578,-0.9150780439376831
1759336390869916200,9.436916259765624,-5.702309608459473,-7.929582118988037,-0.8804645538330078
1759336390879916300,9.446916259765626,-5.521929740905762,-8.05908203125,-0.8543184399604797
1759336390889916200,9.456916259765626,-5.38545036315918,-8.153942108154297,-0.8246074914932251
1759336390899916300,9.466916259765625,-5.252684116363525,-8.242451667785645,-0.8006812334060669
1759336390909917000,9.4769169921875,-5.112739562988281,-8.332833290100098,-0.7704578042030334
1759336390919917000,9.4869169921875,-4.963399887084961,-8.425387382507324,-0.739741861820221
1759336390929917000,9.4969169921875,-4.811489105224609,-8.515080451965332,-0.7163258790969849
1759336390939917000,9.5069169921875,-4.660434246063232,-8.600109100341797,-0.699142575263977
1759336390949917000,9.5169169921875,-4.510168075561523,-8.680837631225586,-0.6867388486862183
1759336390959917000,9.5269169921875,-4.362612724304199,-8.756392478942871,-0.6806238293647766
1759336390969917000,9.5369169921875,-4.219172477722168,-8.826534271240234,-0.6788280606269836
1759336390979917000,9.5469169921875,-4.0846123695373535,-8.889650344848633,-0.6784588694572449
1759336390989917000,9.5569169921875,-3.9625370502471924,-8.945124626159668,-0.6731732487678528
1759336390999917000,9.5669169921875,-3.8549423217773438,-8.993424415588379,-0.6539494395256042
1759336391009916200,9.576916259765625,-3.739246129989624,-9.043163299560547,-0.6394562721252441
1759336391019916000,9.586916015625,-3.635160446166992,-9.085017204284668,-0.6466132402420044
1759336391029916200,9.596916259765624,-3.5496768951416016,-9.116643905639648,-0.6756489872932434
1759336391039916300,9.606916259765624,-3.470935344696045,-9.14314079284668,-0.7250969409942627
1759336391049916200,9.616916259765626,-3.3894741535186768,-9.168045043945312,-0.7926772236824036
1759336391059916300,9.626916259765625,-3.3005614280700684,-9.193325996398926,-0.8711328506469727
1759336391069916200,9.636916259765625,-3.208592176437378,-9.217729568481445,-0.9531431794166565
1759336391079916000,9.646916015625,-3.127049446105957,-9.237446784973145,-1.0301403999328613
1759336391089916200,9.656916259765625,-3.057870864868164,-9.252922058105469,-1.09679114818573
1759336391099916000,9.666916015625,-2.978888511657715,-9.27225112915039,-1.149643063545227
1759336391109917000,9.6769169921875,-2.867065191268921,-9.302077293395996,-1.1922173500061035
1759336391119917000,9.6869169921875,-2.720987319946289,-9.343400955200195,-1.2112725973129272
1759336391129917000,9.6969169921875,-2.566331148147583,-9.386505126953125,-1.215456247329712
1759336391139917000,9.7069169921875,-2.4107553958892822,-9.428695678710938,-1.2073938846588135
1759336391149917000,9.7169169921875,-2.265249252319336,-9.466606140136719,-1.1925607919692993
1759336391159917000,9.7269169921875,-2.1386446952819824,-9.4979248046875,-1.177085518836975
1759336391169917000,9.7369169921875,-2.034386396408081,-9.522268295288086,-1.1652567386627197
1759336391179917000,9.7469169921875,-1.9536983966827393,-9.539837837219238,-1.1596059799194336
1759336391189917000,9.7569169921875,-1.888874888420105,-9.552947998046875,-1.1591410636901855
1759336391199917000,9.7669169921875,-1.8189047574996948,-9.56627082824707,-1.160972237586975
1759336391209916200,9.776916259765626,-1.7545278072357178,-9.578824996948242,-1.1566132307052612
1759336391219916000,9.786916015625,-1.6999744176864624,-9.589570999145508,-1.1489793062210083
1759336391229916200,9.796916259765625,-1.6243466138839722,-9.604328155517578,-1.1350346803665161
1759336391239916000,9.806916015625,-1.5377432107925415,-9.62134075164795,-1.1114393472671509
1759336391249916200,9.816916259765625,-1.4472522735595703,-9.6390380859375,-1.0790362358093262
1759336391259916000,9.826916015625,-1.3609925508499146,-9.655600547790527,-1.0425885915756226
1759336391269916200,9.836916259765625,-1.2853507995605469,-9.669748306274414,-1.0068520307540894
1759336391279916300,9.846916259765624,-1.2244938611984253,-9.680621147155762,-0.9777413010597229
1759336391289916200,9.856916259765624,-1.1781669855117798,-9.68820571899414,-0.9594812393188477
1759336391299916300,9.866916259765626,-1.1461398601531982,-9.692455291748047,-0.9554775357246399
1759336391309917000,9.8769169921875,-1.1216198205947876,-9.694637298583984,-0.9622047543525696
1759336391319917000,9.8869169921875,-1.0936188697814941,-9.696672439575195,-0.9739584922790527
1759336391329917000,9.8969169921875,-1.0586299896240234,-9.699288368225098,-0.9864344596862793
1759336391339917000,9.9069169921875,-1.0167559385299683,-9.70250415802002,-0.9988188743591309
1759336391349917000,9.9169169921875,-0.9651724696159363,-9.70691967010498,-1.0071094036102295
1759336391359917000,9.9269169921875,-0.9093412756919861,-9.711682319641113,-1.013013482093811
1759336391369917000,9.9369169921875,-0.8485177159309387,-9.716262817382812,-1.0218219757080078
1759336391379917000,9.9469169921875,-0.7882803678512573,-9.71973991394043,-1.0369176864624023
1759336391389917000,9.9569169921875,-0.7363526225090027,-9.72171401977539,-1.0564314126968384
1759336391399917000,9.9669169921875,-0.6953039765357971,-9.723180770874023,-1.070756435394287
1759336391409916200,9.976916259765625,-0.6598615050315857,-9.725197792053223,-1.074802041053772
1759336391419916300,9.986916259765625,-0.6256424188613892,-9.727401733398438,-1.0753378868103027
1759336391429916200,9.996916259765625,-0.586836576461792,-9.729484558105469,-1.0783077478408813
1759336391439916300,10.006916259765624,-0.541678786277771,-9.731402397155762,-1.0846186876296997
1759336391449916200,10.016916259765624,-0.4885130226612091,-9.733208656311035,-1.0936675071716309
1759336391459916300,10.026916259765626,-0.4216717481613159,-9.735304832458496,-1.1028233766555786
1759336391469916200,10.036916259765626,-0.34874796867370605,-9.73693561553955,-1.1137791872024536
1759336391479916300,10.046916259765625,-0.2751449942588806,-9.737656593322754,-1.1279618740081787
1759336391489916200,10.056916259765625,-0.19976386427879333,-9.737421035766602,-1.1457494497299194
1759336391499916300,10.066916259765625,-0.12212123721837997,-9.736665725708008,-1.162954568862915
1759336391509917200,10.076917236328125,-0.05016074702143669,-9.735383033752441,-1.1789519786834717
1759336391519917000,10.0869169921875,0.010279402136802673,-9.733585357666016,-1.1947062015533447
1759336391529917200,10.096917236328125,0.05791735276579857,-9.731976509094238,-1.2063807249069214
1759336391539917000,10.1069169921875,0.09117197245359421,-9.730978012084961,-1.2124689817428589
1759336391549917200,10.116917236328124,0.11058277636766434,-9.730692863464355,-1.213041067123413
1759336391559917000,10.1269169921875,0.11632570624351501,-9.731355667114258,-1.2072348594665527
1759336391569917200,10.136917236328125,0.11209610104560852,-9.732757568359375,-1.1962604522705078
1759336391579917000,10.1469169921875,0.10451310127973557,-9.734496116638184,-1.18264639377594
1759336391589917000,10.1569169921875,0.10117372870445251,-9.736459732055664,-1.1667304039001465
1759336391599917000,10.1669169921875,0.1006564274430275,-9.738652229309082,-1.148324728012085
1759336391609916200,10.176916259765624,0.10047873109579086,-9.74139404296875,-1.1248303651809692
1759336391619916300,10.186916259765624,0.0970066711306572,-9.744378089904785,-1.0989375114440918
1759336391629916200,10.196916259765626,0.09700258076190948,-9.747865676879883,-1.0676935911178589
1759336391639916300,10.206916259765626,0.10063304007053375,-9.752225875854492,-1.0265971422195435
1759336391649916200,10.216916259765625,0.09357436001300812,-9.757271766662598,-0.9782366156578064
1759336391659916300,10.226916259765625,0.06779343634843826,-9.762274742126465,-0.9292744994163513
1759336391669916200,10.236916259765625,0.015527823939919472,-9.766758918762207,-0.883333146572113
1759336391679916300,10.246916259765625,-0.06414835900068283,-9.77083969116211,-0.8346906900405884
1759336391689916200,10.256916259765624,-0.15714696049690247,-9.775673866271973,-0.7626093029975891
1759336391699916000,10.266916015625,-0.24505671858787537,-9.781023025512695,-0.6644616723060608
1759336391709917000,10.2769169921875,-0.3201864957809448,-9.786449432373047,-0.54139643907547
1759336391719917000,10.2869169921875,-0.3929004371166229,-9.790178298950195,-0.40975677967071533
1759336391729917000,10.2969169921875,-0.4676145911216736,-9.791193008422852,-0.2897389829158783
1759336391739917000,10.3069169921875,-0.553760290145874,-9.789379119873047,-0.17739398777484894
1759336391749917000,10.3169169921875,-0.6474199891090393,-9.785120010375977,-0.04934217408299446
1759336391759917000,10.3269169921875,-0.7458657026290894,-9.77765941619873,0.10502320528030396
1759336391769917000,10.3369169921875,-0.835679829120636,-9.767218589782715,0.27043357491493225
1759336391779917000,10.3469169921875,-0.9087392687797546,-9.754953384399414,0.43031832575798035
1759336391789917000,10.3569169921875,-0.9659960865974426,-9.74187183380127,0.5771592259407043
1759336391799917000,10.3669169921875,-1.0139256715774536,-9.728218078613281,0.7096359729766846
1759336391809916200,10.376916259765625,-1.0615344047546387,-9.713116645812988,0.8358970880508423
1759336391819916300,10.386916259765625,-1.1202858686447144,-9.694536209106445,0.9649494290351868
1759336391829916200,10.396916259765625,-1.1966384649276733,-9.67114543914795,1.098684549331665
1759336391839916300,10.406916259765625,-1.2731833457946777,-9.64586067199707,1.2273766994476318
1759336391849916200,10.416916259765625,-1.3372732400894165,-9.623993873596191,1.326939582824707
1759336391859916300,10.426916259765624,-1.3868080377578735,-9.609052658081055,1.3830846548080444
1759336391869916200,10.436916259765624,-1.43405020236969,-9.600539207458496,1.3940292596817017
1759336391879916300,10.446916259765626,-1.4626789093017578,-9.599396705627441,1.3718485832214355
1759336391889916200,10.456916259765626,-1.4718185663223267,-9.602301597595215,1.3414407968521118
1759336391899916300,10.466916259765625,-1.4992765188217163,-9.603792190551758,1.2997267246246338
1759336391909917000,10.4769169921875,-1.5359423160552979,-9.601563453674316,1.2732350826263428
1759336391919917000,10.4869169921875,-1.5372265577316284,-9.601964950561523,1.2685344219207764
1759336391929917000,10.4969169921875,-1.484611988067627,-9.605772018432617,1.3018940687179565
1759336391939917000,10.5069169921875,-1.3718010187149048,-9.613941192626953,1.3639637231826782
1759336391949917000,10.5169169921875,-1.2226742506027222,-9.625396728515625,1.4236735105514526
1759336391959917000,10.5269169921875,-1.0904741287231445,-9.630369186401367,1.4956635236740112
1759336391969917200,10.536917236328126,-0.9571242332458496,-9.627762794494629,1.6000351905822754
1759336391989917200,10.556917236328125,-0.5881979465484619,-9.619169235229492,1.81534743309021
1759336391999917000,10.5669169921875,-0.39569559693336487,-9.609743118286133,1.914790153503418
1759336392009916200,10.576916259765625,-0.24423779547214508,-9.600264549255371,1.9862806797027588
1759336392019916300,10.586916259765625,-0.12370529025793076,-9.595871925354004,2.018397331237793
1759336392029916200,10.596916259765624,0.07218027114868164,-9.591897010803223,2.039721727371216
1759336392039916300,10.606916259765624,0.25572481751441956,-9.596514701843262,2.0028927326202393
1759336392049916200,10.616916259765626,0.42519643902778625,-9.597604751586914,1.9685641527175903
1759336392059916300,10.626916259765625,0.594268798828125,-9.598307609558105,1.9208121299743652
1759336392069916200,10.636916259765625,0.7790080904960632,-9.601279258728027,1.8381530046463013
1759336392079916000,10.646916015625,0.984320878982544,-9.601200103759766,1.7372815608978271
1759336392089916200,10.656916259765625,1.1934300661087036,-9.599370002746582,1.6118215322494507
1759336392099916000,10.666916015625,1.4025760889053345,-9.595355987548828,1.4601374864578247
1759336392109917000,10.6769169921875,1.6591951847076416,-9.580864906311035,1.2743746042251587
1759336392119917000,10.6869169921875,1.8593180179595947,-9.567395210266113,1.085379719734192
1759336392129917000,10.6969169921875,1.977620005607605,-9.561004638671875,0.9199120998382568
1759336392139917000,10.7069169921875,2.0914344787597656,-9.552112579345703,0.7436761260032654
1759336392149917000,10.7169169921875,2.2482197284698486,-9.53176212310791,0.5110080242156982
1759336392159917000,10.7269169921875,2.4078876972198486,-9.503891944885254,0.21973025798797607
1759336392169917000,10.7369169921875,2.5613322257995605,-9.465654373168945,-0.10614771395921707
1759336392179917000,10.7469169921875,2.6717689037323,-9.42697525024414,-0.40481647849082947
1759336392189917000,10.7569169921875,2.7648091316223145,-9.386253356933594,-0.6514268517494202
1759336392199917000,10.7669169921875,2.8664188385009766,-9.337827682495117,-0.8709665536880493
1759336392209916200,10.776916259765626,2.969700336456299,-9.282279968261719,-1.0910712480545044
1759336392219916000,10.786916015625,3.0652403831481934,-9.224390029907227,-1.298069715499878
1759336392229916200,10.796916259765625,3.1806182861328125,-9.159189224243164,-1.4707555770874023
1759336392239916000,10.806916015625,3.3353707790374756,-9.08482551574707,-1.5847241878509521
1759336392249916200,10.816916259765625,3.525212526321411,-9.005414009094238,-1.6264909505844116
1759336392259916000,10.826916015625,3.754635810852051,-8.918338775634766,-1.5925220251083374
1759336392269916200,10.836916259765625,3.997159719467163,-8.835411071777344,-1.458911418914795
1759336392279916000,10.846916015625,4.245145320892334,-8.744165420532227,-1.299431324005127
1759336392289916200,10.856916259765624,4.49930477142334,-8.64323902130127,-1.1049401760101318
1759336392299916000,10.866916015625,4.755077362060547,-8.532508850097656,-0.8693299293518066
1759336392309917000,10.8769169921875,4.998488903045654,-8.41611099243164,-0.595318615436554
1759336392319917000,10.8869169921875,5.22398042678833,-8.293927192687988,-0.3017328381538391
1759336392329917000,10.8969169921875,5.438510894775391,-8.160442352294922,-0.010790274478495121
1759336392339917000,10.9069169921875,5.652771949768066,-8.00885009765625,0.2732958495616913
1759336392349917000,10.9169169921875,5.866415023803711,-7.8392205238342285,0.5496174693107605
1759336392359917000,10.9269169921875,6.077857494354248,-7.65146541595459,0.8276274800300598
1759336392369916200,10.936916259765624,6.283271312713623,-7.445572376251221,1.119935154914856
1759336392379916000,10.946916015625,6.478079795837402,-7.2221198081970215,1.4303028583526611
1759336392389916200,10.956916259765626,6.668701648712158,-6.978246688842773,1.7328338623046875
1759336392399916000,10.966916015625,6.863613605499268,-6.710257053375244,2.0083792209625244
1759336392409915400,10.976915283203125,7.078043460845947,-6.4043426513671875,2.2485463619232178
1759336392419915300,10.986915283203125,7.31481409072876,-6.055030822753906,2.449564218521118
1759336392429915400,10.996915283203125,7.557592391967773,-5.675532341003418,2.6156208515167236
1759336392439915300,11.006915283203124,7.798361301422119,-5.273736476898193,2.746558427810669
1759336392449915400,11.016915283203126,8.03889274597168,-4.85075044631958,2.8313910961151123
1759336392459915300,11.026915283203126,8.283106803894043,-4.407104015350342,2.852705955505371
1759336392469915400,11.036915283203125,8.5260009765625,-3.9493846893310547,2.8071372509002686
1759336392479915300,11.046915283203125,8.76360034942627,-3.4778788089752197,2.697042465209961
1759336392489915400,11.056915283203125,8.993117332458496,-3.0041418075561523,2.503866672515869
1759336392499915300,11.066915283203125,9.194242477416992,-2.5492351055145264,2.266645669937134
1759336392509916200,11.076916259765625,9.35669231414795,-2.1286590099334717,2.0227465629577637
1759336392519916300,11.086916259765625,9.477280616760254,-1.7575832605361938,1.8062214851379395
1759336392529916200,11.096916259765624,9.56173324584961,-1.4369432926177979,1.6367154121398926
1759336392539916300,11.106916259765624,9.616684913635254,-1.1472792625427246,1.5406204462051392
1759336392549916200,11.116916259765626,9.648500442504883,-0.8995017409324646,1.5058906078338623
1759336392559916300,11.126916259765625,9.666028022766113,-0.7060313820838928,1.496598482131958
1759336392569915400,11.136915283203125,9.672245025634766,-0.5496557354927063,1.5218223333358765
1759336392579915300,11.146915283203125,9.665911674499512,-0.4308646023273468,1.5983995199203491
1759336392589915400,11.156915283203125,9.67990779876709,-0.31285059452056885,1.540094256401062
1759336392599915300,11.166915283203124,9.707478523254395,-0.10375113785266876,1.3872578144073486
1759336392609914400,11.176914306640626,9.728283882141113,0.16092844307422638,1.2267745733261108
1759336392619914500,11.18691455078125,9.738239288330078,0.4129655361175537,1.0800639390945435
1759336392629914400,11.196914306640625,9.740357398986816,0.636421799659729,0.9438223838806152
1759336392639914500,11.20691455078125,9.73110580444336,0.8296964168548584,0.8874486088752747
1759336392649914400,11.216914306640625,9.715423583984375,1.0021464824676514,0.8812662959098816
1759336392659914500,11.22691455078125,9.695387840270996,1.148237705230713,0.9227077960968018
1759336392669915100,11.2369150390625,9.665336608886719,1.2608642578125,1.077906847000122
1759336392679915300,11.246915283203125,9.622872352600098,1.3220432996749878,1.3501542806625366
1759336392689915100,11.2569150390625,9.570429801940918,1.3382209539413452,1.6692556142807007
1759336392699915300,11.266915283203126,9.512722969055176,1.33027982711792,1.977081060409546
1759336392709916200,11.276916259765626,9.464227676391602,1.3247185945510864,2.2008893489837646
1759336392719916000,11.286916015625,9.444841384887695,1.3560940027236938,2.264146566390991
1759336392729916200,11.296916259765625,9.438314437866211,1.429703712463379,2.2460074424743652
1759336392739916000,11.306916015625,9.432458877563477,1.5386399030685425,2.1981091499328613
1759336392749916200,11.316916259765625,9.42077922821045,1.6659015417099,2.1550097465515137
1759336392759916000,11.326916015625,9.401410102844238,1.7961887121200562,2.1348438262939453
1759336392769915100,11.3369150390625,9.376626014709473,1.9153274297714233,2.1402742862701416
1759336392779915300,11.346915283203124,9.35213565826416,2.010326862335205,2.1602134704589844
1759336392789915400,11.356915283203126,9.332188606262207,2.0819015502929688,2.1786017417907715
1759336392799915300,11.366915283203125,9.319595336914062,2.136435031890869,2.179720640182495
1759336392809914400,11.376914306640625,9.314310073852539,2.1798508167266846,2.159228563308716
1759336392819914500,11.38691455078125,9.31225299835205,2.2176575660705566,2.12939453125
1759336392829914400,11.396914306640625,9.309422492980957,2.261507511138916,2.095377206802368
1759336392839914500,11.40691455078125,9.301429748535156,2.3256380558013916,2.060386896133423
1759336392849914400,11.416914306640624,9.289976119995117,2.402799367904663,2.0231845378875732
1759336392859914500,11.42691455078125,9.277965545654297,2.4820938110351562,1.9821537733078003
1759336392869915400,11.436915283203126,9.269998550415039,2.544059991836548,1.9404253959655762
1759336392879915300,11.446915283203126,9.266803741455078,2.5825963020324707,1.904444694519043
1759336392889915400,11.456915283203125,9.264806747436523,2.6045467853546143,1.8841657638549805
1759336392899915300,11.466915283203125,9.264114379882812,2.6164374351501465,1.8710482120513916
1759336392909916200,11.476916259765625,9.263520240783691,2.6295223236083984,1.85558021068573
1759336392919916300,11.486916259765625,9.259387016296387,2.6586108207702637,1.8346446752548218
1759336392929916200,11.496916259765625,9.249801635742188,2.706754684448242,1.8124632835388184
1759336392939916300,11.506916259765624,9.235860824584961,2.770909070968628,1.7864254713058472
1759336392949916200,11.516916259765624,9.220499992370605,2.8438308238983154,1.7508176565170288
1759336392959916300,11.526916259765626,9.20896053314209,2.907334566116333,1.7066969871520996
1759336392969916200,11.536916259765626,9.203266143798828,2.950794219970703,1.6622475385665894
1759336392999916300,11.566916259765625,9.1972017288208,3.003035545349121,1.6011326313018799
1759336393009915400,11.576915283203125,9.193999290466309,3.0204670429229736,1.5866707563400269
1759336393019915300,11.586915283203124,9.188935279846191,3.0460314750671387,1.567014217376709
1759336393029915400,11.596915283203124,9.181434631347656,3.0803427696228027,1.5437299013137817
1759336393039915300,11.606915283203126,9.172669410705566,3.1190035343170166,1.5180057287216187
1759336393049915400,11.616915283203125,9.163384437561035,3.1585419178009033,1.4921013116836548
1759336393059915300,11.626915283203125,9.154316902160645,3.1963911056518555,1.4669469594955444
1759336393069916200,11.636916259765625,9.144887924194336,3.229806661605835,1.4524916410446167
1759336393079916000,11.646916015625,9.133734703063965,3.266711950302124,1.4400827884674072
1759336393089916200,11.656916259765625,9.120749473571777,3.3089802265167236,1.4258124828338623
1759336393099916000,11.666916015625,9.107515335083008,3.3518519401550293,1.4101864099502563
1759336393109917000,11.6769169921875,9.093860626220703,3.3963840007781982,1.3916341066360474
1759336393119917000,11.6869169921875,9.081761360168457,3.4356820583343506,1.374067783355713
1759336393129917000,11.6969169921875,9.072150230407715,3.468212842941284,1.3557170629501343
1759336393139917000,11.7069169921875,9.064657211303711,3.4949326515197754,1.33708655834198
1759336393149917000,11.7169169921875,9.057212829589844,3.5212581157684326,1.318334937095642
1759336393159917000,11.7269169921875,9.04838752746582,3.551523208618164,1.2975863218307495
1759336393169917000,11.7369169921875,9.037912368774414,3.586259603500366,1.274855375289917
1759336393179917000,11.7469169921875,9.025773048400879,3.6250505447387695,1.2509219646453857
1759336393189917000,11.7569169921875,9.009539604187012,3.6748344898223877,1.2223542928695679
1759336393199917000,11.7669169921875,8.991876602172852,3.7251391410827637,1.1999388933181763
1759336393209916200,11.776916259765626,8.979379653930664,3.7611663341522217,1.1809927225112915
1759336393219916000,11.786916015625,8.975326538085938,3.77502703666687,1.1674928665161133
1759336393229916200,11.796916259765625,8.978191375732422,3.7714650630950928,1.1569355726242065
1759336393239916000,11.806916015625,8.98672866821289,3.753080368041992,1.1504108905792236
1759336393249916200,11.816916259765625,8.9992036819458,3.724656343460083,1.1452661752700806
1759336393259916000,11.826916015625,9.012238502502441,3.694021701812744,1.1419824361801147
1759336393269916200,11.836916259765625,9.024625778198242,3.6634020805358887,1.142799973487854
1759336393279916300,11.846916259765624,9.035466194152832,3.6358017921447754,1.1452661752700806
1759336393289916200,11.856916259765624,9.044002532958984,3.6142144203186035,1.146228313446045
1759336393299916300,11.866916259765626,9.050553321838379,3.5975449085235596,1.1469660997390747
1759336393309917000,11.8769169921875,9.056097984313965,3.5839507579803467,1.1457481384277344
1759336393319917000,11.8869169921875,9.06099796295166,3.5726239681243896,1.1423858404159546
1759336393329917000,11.8969169921875,9.06540298461914,3.5627732276916504,1.1381988525390625
1759336393339917000,11.9069169921875,9.068703651428223,3.5555639266967773,1.1344401836395264
1759336393349917000,11.9169169921875,9.07075309753418,3.551229953765869,1.1316180229187012
1759336393359917000,11.9269169921875,9.072160720825195,3.5489892959594727,1.127358078956604
1759336393369917000,11.9369169921875,9.072569847106934,3.549790620803833,1.1215335130691528
1759336393379917000,11.9469169921875,9.071919441223145,3.5533194541931152,1.1156013011932373
1759336393389917000,11.9569169921875,9.070235252380371,3.559697389602661,1.10893714427948
1759336393399917000,11.9669169921875,9.068758964538574,3.5651028156280518,1.1036403179168701
1759336393409916200,11.976916259765625,9.067869186401367,3.5681893825531006,1.1009759902954102
1759336393419916000,11.986916015625,9.067377090454102,3.5699806213378906,1.099212408065796
1759336393429916200,11.996916259765625,9.066821098327637,3.5718557834625244,1.0977035760879517
1759336393439916000,12.006916015625,9.066283226013184,3.57365083694458,1.0963109731674194
1759336393449916200,12.016916259765624,9.066570281982422,3.573897123336792,1.0931347608566284
1759336393459916000,12.026916015625,9.067586898803711,3.573194980621338,1.0869721174240112
1759336393469916200,12.036916259765626,9.068115234375,3.5736072063446045,1.081207513809204
1759336393479916000,12.046916015625,9.068302154541016,3.573934316635132,1.0785465240478516
1759336393489916200,12.056916259765625,9.068159103393555,3.574475049972534,1.0779516696929932
1759336393499916000,12.066916015625,9.067978858947754,3.575399160385132,1.0764092206954956
1759336393509917000,12.0769169921875,9.068039894104004,3.5767464637756348,1.071407675743103
1759336393519917000,12.0869169921875,9.06747055053711,3.580533027648926,1.063541293144226
1759336393529917000,12.0969169921875,9.066572189331055,3.585137128829956,1.0556702613830566
1759336393539917000,12.1069169921875,9.065728187561035,3.589179277420044,1.049167275428772
1759336393549917000,12.1169169921875,9.06466007232666,3.5937578678131104,1.0427048206329346
1759336393559917000,12.1269169921875,9.06314754486084,3.5999515056610107,1.034441351890564
1759336393569917000,12.1369169921875,9.061626434326172,3.6061556339263916,1.0261260271072388
1759336393579917000,12.1469169921875,9.060327529907227,3.6139237880706787,1.0101454257965088
1759336393589917000,12.1569169921875,9.059494972229004,3.619452476501465,0.9977357983589172
1759336393599917000,12.1669169921875,9.059280395507812,3.622891664505005,0.9871442317962646
1759336393609916200,12.176916259765624,9.05937385559082,3.6257176399230957,0.9758400917053223
1759336393619916000,12.186916015625,9.058687210083008,3.630953788757324,0.9626708030700684
1759336393629916200,12.196916259765626,9.056685447692871,3.6399593353271484,0.947365939617157
1759336393639916000,12.206916015625,9.05311107635498,3.6539273262023926,0.9275528192520142
1759336393649916200,12.216916259765625,9.049151420593262,3.6688742637634277,0.9069668054580688
1759336393659916000,12.226916015625,9.04416275024414,3.6856637001037598,0.8884761929512024
1759336393669916200,12.236916259765625,9.039066314697266,3.7018227577209473,0.8730173110961914
1759336393679916000,12.246916015625,9.034997940063477,3.714942693710327,0.8592869639396667
1759336393689916200,12.256916259765624,9.032613754272461,3.723219156265259,0.8484698534011841
1759336393699916000,12.266916015625,9.031157493591309,3.728743553161621,0.8396574258804321
1759336393709917000,12.2769169921875,9.029531478881836,3.7344248294830322,0.8318629264831543
1759336393719917000,12.2869169921875,9.027071952819824,3.7418041229248047,0.8253738284111023
1759336393729917000,12.2969169921875,9.023168563842773,3.7526423931121826,0.8188337683677673
1759336393739917000,12.3069169921875,9.017721176147461,3.7678442001342773,0.8089582920074463
1759336393749917000,12.3169169921875,9.009798049926758,3.789655923843384,0.7952351570129395
1759336393759917000,12.3269169921875,8.997345924377441,3.822972536087036,0.7765291333198547
1759336393769917000,12.3369169921875,8.98242473602295,3.8628969192504883,0.7512953281402588
1759336393779917000,12.3469169921875,8.965225219726562,3.9080190658569336,0.722827672958374
1759336393789917000,12.3569169921875,8.946474075317383,3.9558489322662354,0.6944097280502319
1759336393799917000,12.3669169921875,8.927818298339844,4.002342224121094,0.667584240436554
1759336393809916200,12.376916259765625,8.910414695739746,4.045045375823975,0.642256498336792
1759336393819916300,12.386916259765625,8.895166397094727,4.082232475280762,0.6178571581840515
1759336393829916200,12.396916259765625,8.882819175720215,4.112885475158691,0.5916524529457092
1759336393839916000,12.406916015625,8.873238563537598,4.138255596160889,0.5575093626976013
1759336393849916200,12.416916259765625,8.865418434143066,4.159725189208984,0.5209562182426453
1759336393859916300,12.426916259765624,8.857985496520996,4.179558753967285,0.4875994622707367
1759336393869916200,12.436916259765624,8.850532531738281,4.197958946228027,0.4642733931541443
1759336393879916000,12.446916015625,8.842782020568848,4.216029644012451,0.447954922914505
1759336393889916200,12.456916259765626,8.834123611450195,4.235440254211426,0.43552157282829285
1759336393899916300,12.466916259765625,8.824889183044434,4.255847930908203,0.42360448837280273
1759336393909917000,12.4769169921875,8.815985679626465,4.275394439697266,0.4120464324951172
1759336393919917000,12.4869169921875,8.807602882385254,4.2937493324279785,0.40026241540908813
1759336393929917000,12.4969169921875,8.800296783447266,4.309877395629883,0.3874134421348572
1759336393939917000,12.5069169921875,8.793889045715332,4.32414436340332,0.37371349334716797
1759336393949917000,12.5169169921875,8.787679672241211,4.3381547927856445,0.3570028245449066
1759336393959917000,12.5269169921875,8.781656265258789,4.352118015289307,0.33457842469215393
1759336393969917000,12.5369169921875,8.775104522705078,4.367151737213135,0.3096593916416168
1759336393979917000,12.5469169921875,8.767335891723633,4.384337902069092,0.28591567277908325
1759336393989917000,12.5569169921875,8.757866859436035,4.404342174530029,0.26810675859451294
1759336393999917000,12.5669169921875,8.747659683227539,4.425294399261475,0.25609979033470154
1759336394009916200,12.576916259765625,8.737971305847168,4.444817543029785,0.24861353635787964
1759336394019916300,12.586916259765625,8.73032283782959,4.460209369659424,0.2415783703327179
1759336394029916400,12.59691650390625,8.725730895996094,4.469648361206055,0.23281697928905487
1759336394039916300,12.606916259765624,8.723437309265137,4.474636077880859,0.22279095649719238
1759336394049916400,12.61691650390625,8.721793174743652,4.478404521942139,0.21108531951904297
1759336394059916300,12.626916259765625,8.719219207763672,4.48407506942749,0.19653306901454926
1759336394069916200,12.636916259765625,8.715213775634766,4.4926042556762695,0.17857933044433594
1759336394079916300,12.646916259765625,8.710039138793945,4.503356456756592,0.15917159616947174
1759336394089916200,12.656916259765625,8.704629898071289,4.514307022094727,0.14420433342456818
1759336394099916300,12.666916259765625,8.700517654418945,4.52251672744751,0.13481616973876953
1759336394109917200,12.676917236328125,8.69689655303955,4.529764175415039,0.12489771842956543
1759336394119917000,12.6869169921875,8.693533897399902,4.53644323348999,0.11618322879076004
1759336394129917000,12.6969169921875,8.690216064453125,4.542963981628418,0.10948095470666885
1759336394139917000,12.7069169921875,8.687630653381348,4.548015117645264,0.1047884076833725
1759336394149917200,12.716917236328126,8.686776161193848,4.54971170425415,0.10198898613452911
1759336394159917000,12.7269169921875,8.688901901245117,4.545742511749268,0.09795739501714706
1759336394169917000,12.7369169921875,8.694389343261719,4.535451412200928,0.0872650295495987
1759336394179917000,12.7469169921875,8.702177047729492,4.520764350891113,0.07187427580356598
1759336394189917200,12.756917236328125,8.710615158081055,4.504693984985352,0.0573173388838768
1759336394199917000,12.7669169921875,8.718903541564941,4.48877477645874,0.04439210146665573
1759336394209916200,12.776916259765626,8.72616195678711,4.474730014801025,0.03519625589251518
1759336394219916300,12.786916259765626,8.73108959197998,4.465135097503662,0.03151581436395645
1759336394229916200,12.796916259765625,8.734060287475586,4.459348678588867,0.02768734097480774
1759336394239916300,12.806916259765625,8.73526668548584,4.457005977630615,0.023669922724366188
1759336394249916200,12.816916259765625,8.734981536865234,4.457582473754883,0.02026902697980404
1759336394259916300,12.826916259765625,8.73352336883545,4.460454940795898,0.01619856245815754
1759336394269916200,12.836916259765625,8.730873107910156,4.465661525726318,0.010229864157736301
