time,seconds_elapsed,z,y,x
1759336381506840300,0.07384033203125,8.698433876037598,-1.721431016921997,4.639962673187256
1759336381536840200,0.103840087890625,9.112630844116211,-1.0271124839782715,3.825934410095215
1759336381546840300,0.11384033203125,9.634567260742188,-0.9888052940368652,3.5865142345428467
1759336381556840200,0.123840087890625,8.636184692382812,-1.2952631711959839,3.332728862762451
1759336381566835000,0.1338349609375,7.051223278045654,-1.194706678390503,3.5218706130981445
1759336381576835000,0.1438349609375,5.140650272369385,-1.4221558570861816,3.8546648025512695
1759336381586835000,0.1538349609375,3.7708675861358643,-2.8443117141723633,5.245995044708252
1759336381596835000,0.1638349609375,2.8179752826690674,-3.6798880100250244,7.324162483215332
1759336381606832000,0.17383203125,1.6759412288665771,-3.2537200450897217,10.091859817504883
1759336381616832300,0.183832275390625,0.5889736413955688,-1.6759412288665771,11.200374603271484
1759336381626832100,0.19383203125,0.730231523513794,-0.47884035110473633,9.850045204162598
1759336381636832300,0.203832275390625,2.209848165512085,-0.507570743560791,7.709628582000732
1759336381646832000,0.21383203125,4.177882194519043,-1.3766659498214722,6.423942565917969
1759336381656832300,0.223832275390625,5.700893402099609,-2.2673089504241943,5.863699436187744
1759336381666832100,0.23383203125,6.4742207527160645,-3.3925838470458984,6.239588737487793
1759336381676832300,0.243832275390625,5.952284812927246,-4.043806552886963,6.505345344543457
1759336381686832000,0.25383203125,5.030517101287842,-4.357447147369385,6.404788970947266
1759336381696832300,0.263832275390625,5.183745861053467,-4.886565685272217,6.335357189178467
1759336381706832100,0.27383203125,6.024110794067383,-4.027047157287598,5.861305236816406
1759336381716832300,0.283832275390625,5.516540050506592,-3.1459810733795166,5.770325183868408
1759336381726832000,0.29383203125,5.140650272369385,-2.9951462745666504,6.613084316253662
1759336381736832300,0.303832275390625,4.1874589920043945,-4.010287761688232,8.03763484954834
1759336381746832100,0.31383203125,2.612074136734009,-4.304774761199951,8.997709274291992
1759336381756832300,0.323832275390625,1.558625340461731,-3.7014358043670654,9.873987197875977
1759336381766831000,0.3338310546875,0.5363011956214905,-2.96162748336792,11.753435134887695
1759336381776831200,0.343831298828125,-1.05105459690094,-1.8531121015548706,11.681609153747559
1759336381786831000,0.3538310546875,-2.892195701599121,-2.80361008644104,11.109395027160645
1759336381796831200,0.363831298828125,-3.4787750244140625,-3.993528366088867,10.59464168548584
1759336381806830300,0.373830322265625,-1.867477297782898,-3.3423056602478027,9.613018989562988
1759336381816830200,0.383830322265625,-0.181959331035614,-3.3662476539611816,8.406341552734375
1759336381826830300,0.393830322265625,0.7493851184844971,-4.264073371887207,7.623437404632568
1759336381836830200,0.403830322265625,5.9642558097839355,-9.275436401367188,4.630385875701904
1759336381846830300,0.413830322265625,2.980781078338623,-4.015076160430908,5.035305500030518
1759336381856830200,0.423830322265625,1.1013327836990356,-3.821146011352539,7.352892875671387
1759336381866831000,0.4338310546875,2.8826189041137695,-8.875604629516602,6.933907508850098
1759336381876831000,0.4438310546875,1.2114660739898682,-10.508450508117676,7.661744594573975
1759336381886831000,0.4538310546875,-0.05985504388809204,-8.217199325561523,7.19248104095459
1759336381896831000,0.4638310546875,-1.0319008827209473,-6.699275493621826,6.902782917022705
1759336381906832000,0.473831787109375,-1.5945383310317993,-5.471050262451172,7.254730224609375
1759336381916832000,0.48383203125,-1.1540051698684692,-3.885789394378662,7.66653299331665
1759336381926831900,0.493831787109375,-1.2665326595306396,-2.5905263423919678,8.061576843261719
1759336381936832000,0.50383203125,-2.140416383743286,-1.965639591217041,8.066365242004395
1759336381946832000,0.513831787109375,-1.8363527059555054,-1.4867992401123047,7.309797286987305
1759336381956832000,0.52383203125,-0.2561795711517334,-1.8818424940109253,7.14699125289917
1759336381966831900,0.533831787109375,-0.5099649429321289,-4.005499362945557,6.579565525054932
1759336381976832000,0.54383203125,2.38462495803833,-2.695871114730835,6.359299182891846
1759336381986832000,0.553831787109375,2.535459518432617,-2.078166961669922,6.186916351318359
1759336381996832000,0.56383203125,1.745373010635376,-2.920926094055176,5.497386455535889
1759336382006831400,0.573831298828125,0.9768342971801758,-3.426102638244629,4.522646903991699
1759336382016831200,0.583831298828125,-0.2346317619085312,-4.728548526763916,3.1316158771514893
1759336382026831400,0.593831298828125,-1.357512354850769,-5.854122638702393,1.5849615335464478
1759336382036831200,0.603831298828125,-1.0678139925003052,-6.69448709487915,-0.05267243832349777
1759336382046831400,0.613831298828125,0.17956513166427612,-6.969820499420166,-0.8571242094039917
1759336382056831200,0.623831298828125,3.0573954582214355,-7.348104476928711,-1.946485996246338
1759336382066832100,0.63383203125,2.851494312286377,-7.75751256942749,-2.5091233253479004
1759336382076832000,0.64383203125,1.3623007535934448,-7.161356449127197,-1.9512743949890137
1759336382086832000,0.65383203125,0.9720458984375,-6.502951145172119,-1.7597382068634033
1759336382096832000,0.66383203125,-1.1276689767837524,-7.2427592277526855,-1.7860745191574097
1759336382106833000,0.6738330078125,-4.627991676330566,-11.949759483337402,-1.9177556037902832
1759336382116833000,0.6838330078125,0.5770025849342346,-12.153266906738281,-3.445256233215332
1759336382126833000,0.6938330078125,-1.1109095811843872,-11.492467880249023,-2.161964178085327
1759336382136833000,0.7038330078125,-0.3232172429561615,-8.399158477783203,-0.8068459630012512
1759336382146833000,0.7138330078125,0.6033388376235962,-4.958691120147705,-0.047884032130241394
1759336382156833000,0.7238330078125,1.4532804489135742,-3.31118106842041,0.2944868206977844
1759336382166833000,0.7338330078125,1.2186486721038818,-3.0334534645080566,0.5793967843055725
1759336382176833000,0.7438330078125,0.6200982332229614,-2.8395233154296875,1.1324573755264282
1759336382186833000,0.7538330078125,0.7613561153411865,-3.5218706130981445,1.623268723487854
1759336382196833000,0.7638330078125,3.268085241317749,-21.529260635375977,6.675333499908447
1759336382206832000,0.77383203125,7.087136268615723,-47.89750289916992,12.033556938171387
1759336382216832000,0.78383203125,1.45806884765625,-45.323734283447266,8.952219009399414
1759336382226832100,0.79383203125,-1.9129672050476074,-34.13024139404297,5.447108268737793
1759336382236832000,0.80383203125,-2.7293899059295654,-19.522918701171875,1.7764976024627686
1759336382246832000,0.81383203125,-3.1076738834381104,-10.518027305603027,-0.19632454216480255
1759336382256832000,0.82383203125,-2.583343744277954,-5.583577632904053,-1.316810965538025
1759336382266832100,0.83383203125,-0.8858546018600464,-4.151545524597168,-2.1954829692840576
1759336382276832000,0.84383203125,-0.1173158809542656,-4.125209331512451,-2.4229321479797363
1759336382286832000,0.85383203125,0.28730419278144836,-4.795586109161377,-2.3511061668395996
1759336382296832000,0.86383203125,0.6129156351089478,-6.196493148803711,-1.968033790588379
1759336382306833000,0.8738330078125,1.0295066833496094,-7.987356185913086,-1.482010841369629
1759336382316832800,0.883832763671875,1.259350061416626,-9.658509254455566,-0.9648633003234863
1759336382326833000,0.8938330078125,1.3000515699386597,-10.98968505859375,-0.4189853072166443
1759336382336832800,0.903832763671875,1.1061211824417114,-11.571475982666016,0.08858546614646912
1759336382346833000,0.9138330078125,0.6799532771110535,-11.681609153747559,0.5506663918495178
1759336382356832800,0.923832763671875,0.06464344263076782,-11.308114051818848,0.9888052940368652
1759336382366833000,0.9338330078125,-0.38546648621559143,-10.50126838684082,1.1420341730117798
1759336382376832800,0.943832763671875,-0.689530074596405,-10.091859817504883,1.0103530883789062
1759336382386833000,0.9538330078125,-0.9409212470054626,-9.701604843139648,0.8236053586006165
1759336382396832800,0.963832763671875,-1.1635819673538208,-9.462183952331543,0.586579442024231
1759336382406831900,0.973831787109375,-1.1444283723831177,-9.359233856201172,0.4405331015586853
1759336382416832000,0.98383203125,-0.7924807667732239,-9.280224800109863,0.4357447028160095
1759336382426832000,0.993831787109375,-0.2753331959247589,-9.277831077575684,0.5363011956214905
1759336382436832000,1.00383203125,0.304063618183136,-9.31853199005127,0.6871358752250671
1759336382446831900,1.013831787109375,0.7086837291717529,-9.44303035736084,0.8619126081466675
1759336382456832000,1.02383203125,0.9959878921508789,-9.644144058227539,1.036689281463623
1759336382466832000,1.033831787109375,1.1563993692398071,-9.833285331726074,1.2210428714752197
1759336382476832000,1.04383203125,1.1468225717544556,-9.907505989074707,1.357512354850769
1759336382486831900,1.053831787109375,1.0630255937576294,-9.864410400390625,1.4748282432556152
1759336382496832000,1.06383203125,0.9145850539207458,-9.742305755615234,1.580173134803772
1759336382506833000,1.0738330078125,0.7230489253997803,-9.62020206451416,1.6424223184585571
1759336382516832800,1.083832763671875,0.49559974670410156,-9.488520622253418,1.5969325304031372
1759336382526833000,1.0938330078125,0.2849099934101105,-9.608230590820312,1.3982137441635132
1759336382536832800,1.103832763671875,0.272938996553421,-9.572318077087402,1.290474772453308
1759336382546833000,1.1138330078125,0.14604631066322327,-9.62259578704834,1.1252747774124146
1759336382556832800,1.123832763671875,-0.31603461503982544,-10.079888343811035,1.1085153818130493
1759336382566833000,1.1338330078125,-0.38546648621559143,-10.312126159667969,1.1228805780410767
1759336382576832800,1.143832763671875,0,-10.474931716918945,1.2210428714752197
1759336382586833000,1.1538330078125,-0.1412578970193863,-10.764630317687988,1.256955862045288
1759336382596832800,1.163832763671875,-0.37828385829925537,-10.5252103805542,1.2545616626739502
1759336382606831900,1.173831787109375,-0.07661445438861847,-10.640131950378418,1.4173674583435059
1759336382616832000,1.18383203125,0.05746084079146385,-10.28818416595459,1.4532804489135742
1759336382626832000,1.193831787109375,0.2298433631658554,-9.974543571472168,1.6424223184585571
1759336382636832000,1.20383203125,0.33039984107017517,-9.62020206451416,1.7381904125213623
1759336382646831900,1.213831787109375,-0.2944868206977844,-9.431059837341309,1.7262194156646729
1759336382656832000,1.22383203125,-0.4668693244457245,-9.026439666748047,1.745373010635376
1759336382666832000,1.233831787109375,0.13168109953403473,-8.892364501953125,1.7142484188079834
1759336382676832000,1.24383203125,0.8307880163192749,-9.059958457946777,1.8076223134994507
1759336382686831900,1.253831787109375,0.7757213711738586,-9.38317584991455,1.9728221893310547
1759336382696832000,1.26383203125,0.26815059781074524,-9.684844970703125,2.078166961669922
1759336382706833000,1.2738330078125,-0.14604631066322327,-9.957783699035645,2.185906171798706
1759336382716832800,1.283832763671875,-0.42377370595932007,-10.065523147583008,2.274491548538208
1759336382726833000,1.2938330078125,-0.44532153010368347,-9.998485565185547,2.4396915435791016
1759336382736832800,1.303832763671875,-0.2561795711517334,-9.948206901550293,2.6240451335906982
1759336382746833000,1.3138330078125,-0.035913024097681046,-9.725546836853027,2.7748796939849854
1759336382756832800,1.323832763671875,0.028730420395731926,-9.5531644821167,2.8203697204589844
1759336382766833000,1.3338330078125,-0.05506663769483566,-9.44303035736084,2.7916390895843506
1759336382776832800,1.343832763671875,-0.2513911724090576,-9.20361042022705,2.7078421115875244
1759336382786833000,1.3538330078125,-0.4884171485900879,-8.947430610656738,2.537853717803955
1759336382796832800,1.363832763671875,-0.5530605912208557,-8.782231330871582,2.5091233253479004
1759336382806831900,1.373831787109375,-0.49559974670410156,-8.834903717041016,2.6623523235321045
1759336382816832000,1.38383203125,-0.3208230137825012,-8.918700218200684,2.7437551021575928
1759336382826832000,1.393831787109375,-0.1149216815829277,-9.074323654174805,2.786850690841675
1759336382836832000,1.40383203125,0.19393034279346466,-9.162909507751465,2.8658595085144043
1759336382846831900,1.413831787109375,0.36152446269989014,-9.1940336227417,2.9257144927978516
1759336382856832000,1.42383203125,0.29209262132644653,-9.265859603881836,2.8155810832977295
1759336382866832000,1.433831787109375,0.019153613597154617,-9.107842445373535,2.583343744277954
1759336382876832000,1.44383203125,-0.43335050344467163,-9.014469146728516,2.3104045391082764
1759336382886831900,1.453831787109375,-0.9145850539207458,-9.13657283782959,2.126051187515259
1759336382896832000,1.46383203125,-1.0558429956436157,-9.402329444885254,2.142810583114624
1759336382906833000,1.4738330078125,-0.8643068075180054,-9.65372085571289,2.4899697303771973
1759336382916832800,1.483832763671875,-0.8403648138046265,-9.847650527954102,2.7509377002716064
1759336382926833000,1.4938330078125,-1.036689281463623,-10.19720458984375,2.7964274883270264
1759336382936832800,1.503832763671875,-0.8690952062606812,-10.647314071655273,2.7054479122161865
1759336382946833000,1.5138330078125,-0.5386953949928284,-11.032780647277832,2.5474305152893066
1759336382956832800,1.523832763671875,-0.3711012601852417,-11.430217742919922,2.2864625453948975
1759336382966832600,1.53383251953125,-0.3423708379268646,-11.806107521057129,2.126051187515259
1759336382979916800,1.546916748046875,-0.5027823448181152,-12.280159950256348,2.056619167327881
1759336382989916700,1.556916748046875,-0.6823474764823914,-12.885892868041992,1.9967641830444336
1759336382999916800,1.566916748046875,-0.7876923680305481,-13.704710006713867,2.1739351749420166
1759336383009916000,1.576916015625,-1.0845733880996704,-14.475643157958984,2.7748796939849854
1759336383019916000,1.586916015625,-1.4652514457702637,-14.827889442443848,3.7660791873931885
1759336383029916000,1.596916015625,-1.381454348564148,-14.600141525268555,4.005499362945557
1759336383039916000,1.606916015625,-0.5410895943641663,-14.372692108154297,3.7253777980804443
1759336383049916000,1.616916015625,0.31364041566848755,-14.501978874206543,3.1699230670928955
1759336383059916000,1.626916015625,0.8379706144332886,-15.158289909362793,2.4372973442077637
1759336383069916000,1.636916015625,0.26096799969673157,-15.486294746398926,1.434126853942871
1759336383079916000,1.646916015625,-0.49320554733276367,-14.554651260375977,0.5650315880775452
1759336383089915400,1.656915283203125,-1.1563993692398071,-13.199533462524414,-0.16519992053508759
1759336383099915500,1.66691552734375,-1.8411411046981812,-12.031163215637207,-0.7086837291717529
1759336383109916400,1.67691650390625,-2.382230758666992,-11.542745590209961,-0.9528923034667969
1759336383119916300,1.686916259765625,-2.8395233154296875,-11.492467880249023,-1.1276689767837524
1759336383129916400,1.69691650390625,-3.07415509223938,-12.05271053314209,-1.158793568611145
1759336383139916300,1.706916259765625,-3.0334534645080566,-12.823643684387207,-1.0319008827209473
1759336383149916400,1.71691650390625,-2.9281086921691895,-13.72625732421875,-0.6967126727104187
1759336383159916300,1.726916259765625,-2.9520506858825684,-14.159607887268066,-0.3902548849582672
1759336383169916400,1.73691650390625,-2.7724854946136475,-13.537116050720215,-0.09576806426048279
1759336383179916300,1.746916259765625,-0.5746083855628967,-12.105382919311523,0.043095629662275314
1759336383189916400,1.75691650390625,1.1085153818130493,-11.286565780639648,0.26336219906806946
1759336383199916300,1.766916259765625,1.335964560508728,-10.575488090515137,0.47165772318840027
1759336383209915400,1.776915283203125,0.11252748221158981,-11.04714584350586,0.9600749015808105
1759336383219915500,1.78691552734375,-0.8810662031173706,-10.352827072143555,1.9249382019042969
1759336383229915400,1.796915283203125,-1.482010841369629,-10.029610633850098,2.8203697204589844
1759336383239915500,1.80691552734375,-2.1930887699127197,-10.07270622253418,3.2393548488616943
1759336383249915400,1.816915283203125,-1.2425906658172607,-9.579500198364258,2.6431987285614014
1759336383259915500,1.82691552734375,-0.31603461503982544,-9.009679794311523,2.1499931812286377
1759336383269916000,1.836916015625,-0.5937620401382446,-8.442254066467285,1.5921441316604614
1759336383279915800,1.846915771484375,-0.9026140570640564,-7.934683799743652,1.0821791887283325
1759336383289916000,1.856916015625,-1.4532804489135742,-7.704840183258057,0.7230489253997803
1759336383299915800,1.866915771484375,-1.7142484188079834,-7.750329971313477,0.6105214357376099
1759336383309916700,1.876916748046875,-1.601720929145813,-7.90355920791626,0.6512228846549988
1759336383319916500,1.88691650390625,-1.7860745191574097,-7.7287821769714355,0.38546648621559143
1759336383329916700,1.896916748046875,-2.425326347351074,-7.834127426147461,0.21547815203666687
1759336383339916500,1.90691650390625,-2.43011474609375,-7.786243438720703,-0.06224924325942993
1759336383349916700,1.916916748046875,-2.425326347351074,-7.709628582000732,-0.13168109953403473
1759336383359916500,1.92691650390625,-2.2888567447662354,-7.106289863586426,-0.2298433631658554
1759336383369916700,1.936916748046875,-2.0853497982025146,-6.4742207527160645,0.1149216815829277
1759336383379916500,1.94691650390625,-3.155557870864868,-5.985803604125977,0.6584054827690125
1759336383389917000,1.9569169921875,-4.4723687171936035,-5.257966041564941,0.8140285611152649
1759336383399917000,1.9669169921875,-5.267542839050293,-4.968267917633057,0.6057330369949341
1759336383409916200,1.976916259765625,-5.131073474884033,-4.754884719848633,0.0454898327589035
1759336383419916300,1.986916259765625,-4.76924991607666,-4.985027313232422,-0.6368576288223267
1759336383429916200,1.996916259765625,-4.829104900360107,-5.4351372718811035,-1.1540051698684692
1759336383439916300,2.006916259765625,-4.910807132720947,-5.743988990783691,-1.53707754611969
1759336383449916200,2.016916259765625,-4.458003520965576,-5.787084579467773,-1.6879122257232666
1759336383459916300,2.026916259765625,-3.799597978591919,-5.504569053649902,-1.7741034030914307
1759336383469916200,2.036916259765625,-3.6583402156829834,-5.250783443450928,-1.5634137392044067
1759336383479916300,2.046916259765625,-3.5673606395721436,-4.793191909790039,-1.2880805730819702
1759336383499916300,2.066916259765625,-4.6471452713012695,-4.441244125366211,-0.6392518281936646
1759336383509917200,2.076917236328125,-5.241206645965576,-4.558559894561768,-0.42377370595932007
1759336383519917000,2.0869169921875,-5.775113582611084,-4.642356872558594,-0.42856210470199585
1759336383529917200,2.096917236328125,-6.182127952575684,-4.81473970413208,-0.507570743560791
1759336383539917000,2.1069169921875,-6.182127952575684,-5.186140060424805,-0.6344634294509888
1759336383549917200,2.116917236328125,-5.94749641418457,-5.528511047363281,-0.629675030708313
1759336383559917000,2.1269169921875,-5.746383190155029,-5.619490623474121,-0.22266076505184174
1759336383569916700,2.136916748046875,-5.818209171295166,-5.569212436676025,0.4620809257030487
1759336383579916800,2.146916748046875,-5.540482044219971,-5.420772075653076,1.1899182796478271
1759336383589916700,2.156916748046875,-5.933131217956543,-5.166986465454102,1.6089035272598267
1759336383599916800,2.166916748046875,-7.1565680503845215,-4.888959884643555,1.3192051649093628
1759336383609916000,2.176916015625,-9.251494407653809,-4.937143325805664,0.8020575642585754
1759336383619915800,2.186915771484375,-12.687173843383789,-6.383241176605225,0.2849099934101105
1759336383629916000,2.196916015625,-8.909123420715332,-8.432677268981934,-0.5554547905921936
1759336383639915800,2.206915771484375,-2.8562827110290527,-8.145373344421387,-1.3958195447921753
1759336383649916000,2.216916015625,-2.5737667083740234,-9.237129211425781,-0.13407529890537262
1759336383659915800,2.226915771484375,-8.37761116027832,-10.877157211303711,3.35667085647583
1759336383669916000,2.236916015625,-12.112565994262695,-11.727099418640137,4.913201332092285
1759336383679915800,2.246915771484375,-3.28963303565979,-13.048698425292969,2.7102363109588623
1759336383689916000,2.256916015625,0.2849099934101105,-14.60732364654541,0.0933738648891449
1759336383699915800,2.266915771484375,-0.10534487664699554,-15.924433708190918,-0.2322375625371933
1759336383709916700,2.276916748046875,-0.3423708379268646,-14.071022987365723,1.4700398445129395
1759336383719916500,2.28691650390625,-2.7676970958709717,-11.20276927947998,3.31118106842041
1759336383729916700,2.296916748046875,-4.350264549255371,-9.40951156616211,3.8810009956359863
1759336383739916500,2.30691650390625,-3.2154128551483154,-9.0767183303833,3.0765492916107178
1759336383749916700,2.316916748046875,-2.078166961669922,-9.47654914855957,1.9153614044189453
1759336383759916500,2.32691650390625,-1.4173674583435059,-9.917082786560059,0.9600749015808105
1759336383769916700,2.336916748046875,-1.2473790645599365,-10.479720115661621,0.524330198764801
1759336383779916800,2.346916748046875,-1.6974890232086182,-10.929829597473145,0.3495534360408783
1759336383789916700,2.356916748046875,-2.4205379486083984,-10.913070678710938,0.3519476354122162
1759336383799916800,2.366916748046875,-2.80361008644104,-10.527604103088379,0.3519476354122162
1759336383809916000,2.376916015625,-2.935291290283203,-10.089465141296387,0.3423708379268646
1759336383819915800,2.386915771484375,-2.7964274883270264,-9.617807388305664,0.20111294090747833
1759336383829916000,2.396916015625,-2.964021682739258,-9.196428298950195,0.09816227108240128
1759336383839915800,2.406915771484375,-2.779668092727661,-8.803778648376465,-0.12928688526153564
1759336383849916000,2.416916015625,-2.341529369354248,-8.399158477783203,-0.2944868206977844
1759336383859915800,2.426915771484375,-1.9033904075622559,-8.147768020629883,-0.3974374830722809
1759336383869916200,2.436916259765625,-2.1140801906585693,-7.889194011688232,-0.507570743560791
1759336383879916300,2.446916259765625,-2.5953147411346436,-7.779060363769531,-0.5554547905921936
1759336383889916200,2.456916259765625,-2.5929205417633057,-7.704840183258057,-0.45250412821769714
1759336383899916300,2.466916259765625,-2.0901381969451904,-7.750329971313477,-0.019153613597154617
1759336383909917200,2.476917236328125,-1.2665326595306396,-8.066365242004395,0.5746083855628967
1759336383919917000,2.4869169921875,-1.2952631711959839,-8.487744331359863,1.3096283674240112
1759336383929917200,2.496917236328125,-0.9289502501487732,-8.834903717041016,2.7772738933563232
1759336383939917000,2.5069169921875,-0.7110779285430908,-9.771036148071289,4.968267917633057
1759336383949917200,2.516917236328125,-1.1516109704971313,-9.47654914855957,6.218040943145752
1759336383959917000,2.5269169921875,-1.4676456451416016,-8.669703483581543,6.107907772064209
1759336383969917700,2.536917724609375,-1.721431016921997,-8.212410926818848,5.480627059936523
1759336383979917600,2.54691748046875,-0.8523358106613159,-7.563582420349121,4.2760443687438965
1759336383989917700,2.556917724609375,-0.7015010714530945,-7.293037414550781,3.2848446369171143
1759336383999917600,2.56691748046875,-0.3519476354122162,-8.588300704956055,3.0334534645080566
1759336384009916700,2.576916748046875,-0.33039984107017517,-9.110237121582031,2.8993782997131348
1759336384019916800,2.586916748046875,-0.5003881454467773,-8.983344078063965,2.7485435009002686
1759336384029916700,2.596916748046875,-0.5817909836769104,-8.664915084838867,2.497152328491211
1759336384039916800,2.606916748046875,-0.8738836050033569,-8.43507194519043,2.387019157409668
1759336384049916700,2.616916748046875,-1.3718775510787964,-8.478167533874512,2.126051187515259
1759336384059916800,2.626916748046875,-1.6519991159439087,-8.942642211914062,1.900996208190918
1759336384069916700,2.636916748046875,-1.6903064250946045,-9.146149635314941,1.742978811264038
1759336384079916800,2.646916748046875,-1.9991583824157715,-9.478943824768066,1.4772224426269531
1759336384089916700,2.656916748046875,-1.4939818382263184,-9.584288597106934,1.5394717454910278
1759336384099916800,2.666916748046875,-1.0247182846069336,-9.292196273803711,1.400607943534851
1759336384109917700,2.676917724609375,-0.7876923680305481,-8.753500938415527,1.213860273361206
1759336384119917600,2.68691748046875,-0.6751648783683777,-8.597877502441406,1.3766659498214722
1759336384129917700,2.696917724609375,-0.5506663918495178,-8.729558944702148,1.8267759084701538
1759336384139917600,2.70691748046875,-0.37828385829925537,-9.138967514038086,2.1811177730560303
1759336384149917700,2.716917724609375,-0.026336219161748886,-9.74470043182373,2.6240451335906982
1759336384159917600,2.72691748046875,0.22744916379451752,-10.477325439453125,3.0550012588500977
1759336384169917700,2.736917724609375,0.07182604819536209,-10.77660083770752,3.136404275894165
1759336384179917600,2.74691748046875,-0.40462008118629456,-10.963348388671875,3.1052796840667725
1759336384189917700,2.756917724609375,-1.0055646896362305,-11.360786437988281,2.937685489654541
1759336384199917600,2.76691748046875,-1.3934253454208374,-11.806107521057129,2.717418909072876
1759336384209916700,2.776916748046875,-1.5538369417190552,-12.371139526367188,2.3774423599243164
1759336384219916800,2.786916748046875,-1.290474772453308,-13.185168266296387,2.051830768585205
1759336384229916700,2.796916748046875,-0.8427590131759644,-14.24340534210205,1.944091796875
1759336384239916800,2.806916748046875,-0.9648633003234863,-15.227721214294434,1.8507179021835327
1759336384249916700,2.816916748046875,-0.9576807022094727,-16.33144760131836,1.6855180263519287
1759336384259916800,2.826916748046875,-0.6847416758537292,-16.81268310546875,1.5394717454910278
1759336384269916200,2.836916259765625,-0.5291185975074768,-16.21173858642578,1.0965443849563599
1759336384279916300,2.846916259765625,-0.9002198576927185,-15.163078308105469,0.3495534360408783
1759336384289916200,2.856916259765625,-1.403002142906189,-14.42297077178955,-0.12449848651885986
1759336384299916300,2.866916259765625,-2.1739351749420166,-13.374309539794922,-0.8595184087753296
1759336384309917200,2.876917236328125,-3.399766445159912,-11.976096153259277,-1.647210717201233
1759336384319917000,2.8869169921875,-4.417302131652832,-11.193192481994629,-2.31758713722229
1759336384329917200,2.896917236328125,-5.557241439819336,-10.994473457336426,-2.8371291160583496
1759336384339917000,2.9069169921875,-6.601113319396973,-11.616966247558594,-3.1914708614349365
1759336384349917200,2.916917236328125,-6.543652534484863,-12.687173843383789,-3.1435868740081787
1759336384359917000,2.9269169921875,-5.600337028503418,-13.920187950134277,-2.9712042808532715
1759336384369917200,2.936917236328125,-4.127603530883789,-14.803947448730469,-2.5115175247192383
1759336384379917000,2.9469169921875,-2.1547815799713135,-13.800477981567383,-1.6280571222305298
1759336384389917200,2.956917236328125,-0.5961562395095825,-12.744634628295898,-0.3687070608139038
1759336384399917000,2.9669169921875,0.38307225704193115,-12.134113311767578,1.2497732639312744
1759336384409916200,2.976916259765625,1.0271124839782715,-11.801319122314453,2.3702597618103027
1759336384419916300,2.986916259765625,0.9768342971801758,-11.391910552978516,2.011129379272461
1759336384429916200,2.996916259765625,0.028730420395731926,-10.726323127746582,1.5490485429763794
1759336384439916300,3.006916259765625,-0.811634361743927,-10.245088577270508,1.3934253454208374
1759336384449916200,3.016916259765625,-1.9608511924743652,-9.754277229309082,1.161187767982483
1759336384459916300,3.026916259765625,-2.363077163696289,-9.387964248657227,0.7158663272857666
1759336384469916200,3.036916259765625,-2.31758713722229,-8.985737800598145,-0.033518824726343155
1759336384479916300,3.046916259765625,-1.4221558570861816,-8.394370079040527,-1.0462661981582642
1759336384489916200,3.056916259765625,-0.5913678407669067,-7.697657585144043,-2.185906171798706
1759336384499916300,3.066916259765625,0.7565677165985107,-7.257124423980713,-2.8107926845550537
1759336384509917200,3.076917236328125,1.482010841369629,-6.584353923797607,-3.220201253890991
1759336384519917000,3.0869169921875,0.9409212470054626,-5.954679012298584,-3.6152446269989014
1759336384529917200,3.096917236328125,0.5578489899635315,-6.297049522399902,-3.112462282180786
1759336384539917000,3.1069169921875,-0.7086837291717529,-7.166144847869873,-2.2864625453948975
1759336384549917200,3.116917236328125,-3.0861260890960693,-7.75751256942749,-1.7741034030914307
1759336384559917000,3.1269169921875,-3.3423056602478027,-7.66653299331665,-1.3910311460494995
1759336384569917200,3.136917236328125,-3.4524388313293457,-7.520486831665039,-1.3024457693099976
1759336384579917000,3.1469169921875,-3.7229835987091064,-6.933907508850098,-1.4700398445129395
1759336384589917200,3.156917236328125,-4.4532151222229,-5.887641429901123,-1.7956513166427612
1759336384599917000,3.1669169921875,-5.159803867340088,-4.474762916564941,-2.1308395862579346
1759336384609916200,3.176916259765625,-5.174169063568115,-3.1316158771514893,-2.3127987384796143
1759336384619916300,3.186916259765625,-4.67827033996582,-2.7964274883270264,-2.669534921646118
1759336384629916200,3.196916259765625,-4.357447147369385,-3.136404275894165,-2.738966703414917
1759336384639916300,3.206916259765625,-4.60165548324585,-3.758896589279175,-2.6671407222747803
1759336384649916200,3.216916259765625,-5.004180908203125,-4.113238334655762,-2.63362193107605
1759336384659916300,3.226916259765625,-4.745307922363281,-4.153939723968506,-2.5306711196899414
1759336384669916200,3.236916259765625,-4.271255970001221,-3.687070608139038,-2.4899697303771973
1759336384679916300,3.246916259765625,-3.6583402156829834,-3.1316158771514893,-2.298433542251587
1759336384689916200,3.256916259765625,-3.801992416381836,-2.6575639247894287,-2.0805611610412598
1759336384699916300,3.266916259765625,-4.469974517822266,-2.209848165512085,-1.8986018896102905
1759336384709917000,3.2769169921875,-4.702212333679199,-1.9608511924743652,-1.455674648284912
1759336384719917000,3.2869169921875,-4.76924991607666,-2.2457611560821533,-1.0534487962722778
1759336384729917000,3.2969169921875,-4.876988887786865,-2.8419175148010254,-0.5147533416748047
1759336384739917000,3.3069169921875,-5.425560474395752,-3.552995204925537,-0.038307227194309235
1759336384749917000,3.3169169921875,-6.505345344543457,-4.158728122711182,0.2801215946674347
1759336384759917000,3.3269169921875,-7.9538373947143555,-4.726154327392578,0.49320554733276367
1759336384769917200,3.336917236328125,-10.307337760925293,-5.389647483825684,0.6823474764823914
1759336384779917000,3.3469169921875,-11.794137001037598,-5.923554420471191,0.8643068075180054
1759336384789917200,3.356917236328125,-12.514791488647461,-6.330568790435791,0.790086567401886
1759336384799917000,3.3669169921875,-10.398317337036133,-6.869264125823975,-0.48602294921875
1759336384809916200,3.376916259765625,-5.437531471252441,-8.487744331359863,-2.1595699787139893
1759336384819916300,3.386916259765625,-4.72376012802124,-10.168474197387695,-2.432508945465088
1759336384829916200,3.396916259765625,-8.396764755249023,-12.39029312133789,-1.0989385843276978
1759336384839916300,3.406916259765625,-13.448530197143555,-13.836390495300293,0.4357447028160095
1759336384849916200,3.416916259765625,-9.026439666748047,-13.72386360168457,-0.4572925269603729
1759336384859916300,3.426916259765625,-2.5067291259765625,-12.474090576171875,-2.604891538619995
1759336384869916200,3.436916259765625,-3.7229835987091064,-10.781389236450195,-2.542642116546631
1759336384879916300,3.446916259765625,-6.744765281677246,-9.031228065490723,-1.2210428714752197
1759336384889916200,3.456916259765625,-6.79743766784668,-8.466196060180664,-0.5267243981361389
1759336384899916300,3.466916259765625,-5.2771196365356445,-8.111854553222656,-0.5602431893348694
1759336384909917200,3.476917236328125,-3.8283286094665527,-7.793426036834717,-1.0031704902648926
1759336384919917000,3.4869169921875,-3.0789434909820557,-7.692869186401367,-1.2641384601593018
1759336384929917200,3.496917236328125,-2.7246015071868896,-8.372822761535645,-1.216254472732544
1759336384939917000,3.5069169921875,-2.7030537128448486,-9.428665161132812,-1.0055646896362305
1759336384949917200,3.516917236328125,-2.6455929279327393,-10.249876976013184,-0.8475474119186401
1759336384959917000,3.5269169921875,-2.7269957065582275,-10.963348388671875,-0.7972691655158997
1759336384969917200,3.536917236328125,-2.9688100814819336,-11.516409873962402,-0.7158663272857666
1759336384979917000,3.5469169921875,-2.9448680877685547,-11.937788963317871,-0.6224924325942993
1759336384989917200,3.556917236328125,-2.5306711196899414,-11.937788963317871,-0.5793967843055725
1759336384999917000,3.5669169921875,-2.051830768585205,-11.561899185180664,-0.48602294921875
1759336385009916200,3.576916259765625,-1.8315643072128296,-10.893917083740234,-0.3447650372982025
1759336385019916300,3.586916259765625,-1.7741034030914307,-10.264242172241211,0.035913024097681046
1759336385029916200,3.596916259765625,-2.030282974243164,-9.52922248840332,0.35913026332855225
1759336385039916300,3.606916259765625,-2.2816741466522217,-9.1940336227417,0.6200982332229614
1759336385049916200,3.616916259765625,-1.900996208190918,-9.04559326171875,0.7086837291717529
1759336385059916300,3.626916259765625,-1.5322890281677246,-9.01207447052002,0.7374141216278076
1759336385069916200,3.636916259765625,-1.800439715385437,-9.050381660461426,0.6512228846549988
1759336385079916300,3.646916259765625,-1.9919757843017578,-9.246706008911133,0.7493851184844971
1759336385089916200,3.656916259765625,-1.5083470344543457,-9.522039413452148,0.7948749661445618
1759336385099916300,3.666916259765625,-0.8331822156906128,-9.74709415435791,0.8403648138046265
1759336385109917200,3.676917236328125,-0.12210428714752197,-9.648932456970215,1.192312479019165
1759336385119917000,3.6869169921875,0.6009446382522583,-9.613018989562988,1.6759412288665771
1759336385129917200,3.696917236328125,1.3958195447921753,-9.378387451171875,2.3343467712402344
1759336385139917000,3.7069169921875,-0.019153613597154617,-8.873210906982422,2.410961151123047
1759336385149917200,3.716917236328125,-1.6711528301239014,-8.514080047607422,1.9632453918457031
1759336385159917000,3.7269169921875,-2.1787235736846924,-8.28663158416748,1.403002142906189
1759336385169916700,3.736916748046875,-1.8722656965255737,-8.001721382141113,0.5937620401382446
1759336385179916800,3.746916748046875,-1.335964560508728,-7.7742719650268555,0.05985504388809204
1759336385189916700,3.756916748046875,-0.6560112833976746,-7.695263385772705,-0.19632454216480255
1759336385199916800,3.766916748046875,-0.3974374830722809,-7.8437042236328125,-0.2825157940387726
1759336385209916000,3.776916015625,-0.7829039692878723,-8.032846450805664,-0.1364694982767105
1759336385219915800,3.786915771484375,-1.1085153818130493,-8.078335762023926,0.19632454216480255
1759336385229916000,3.796916015625,-1.6376339197158813,-7.920318603515625,0.33758243918418884
1759336385239915800,3.806915771484375,-2.0254945755004883,-7.771877765655518,0.3926490843296051
1759336385249916000,3.816916015625,-1.7477672100067139,-7.6856865882873535,0.5746083855628967
1759336385259915800,3.826915771484375,-1.6639702320098877,-7.786243438720703,0.7398083209991455
1759336385269916000,3.836916015625,-1.7142484188079834,-7.788637638092041,0.6584054827690125
1759336385279915800,3.846915771484375,-1.7190368175506592,-7.860463619232178,0.6799532771110535
1759336385299915800,3.866915771484375,-1.1755530834197998,-8.542811393737793,0.5674257874488831
1759336385309916700,3.876916748046875,-0.49559974670410156,-9.31613826751709,0.5770025849342346
1759336385319916800,3.886916748046875,-0.023942016065120697,-9.948206901550293,0.7541735172271729
1759336385329916700,3.896916748046875,-0.002394201699644327,-10.474931716918945,0.871489405632019
1759336385339916800,3.906916748046875,-0.3519476354122162,-11.11178970336914,0.950498104095459
1759336385349916700,3.916916748046875,-0.6823474764823914,-11.966519355773926,1.0534487962722778
1759336385359916500,3.92691650390625,-0.9888052940368652,-12.854767799377441,1.091755986213684
1759336385369916700,3.936916748046875,-1.5442601442337036,-13.702315330505371,0.8930372595787048
1759336385379916800,3.946916748046875,-2.140416383743286,-14.164396286010742,0.42856210470199585
1759336385389916700,3.956916748046875,-2.7078421115875244,-14.470854759216309,-0.08858546614646912
1759336385399916500,3.96691650390625,-3.2130186557769775,-14.966753005981445,-0.4165911078453064
1759336385409916000,3.976916015625,-3.5625722408294678,-15.419257164001465,-0.5530605912208557
1759336385419915800,3.986915771484375,-3.598485231399536,-15.943587303161621,-0.47405192255973816
1759336385429916000,3.996916015625,-2.832340717315674,-16.39609146118164,-0.2322375625371933
1759336385439915800,4.006915771484375,-1.9847931861877441,-15.981894493103027,-0.4118026793003082
1759336385449916000,4.016916015625,-1.1563993692398071,-15.198990821838379,-0.9552865028381348
1759336385459915800,4.026915771484375,-0.6703764796257019,-13.953706741333008,-1.7908629179000854
1759336385469916200,4.036916259765625,-0.8140285611152649,-12.711115837097168,-2.8419175148010254
1759336385479916300,4.046916259765625,-1.0319008827209473,-11.734281539916992,-3.909731388092041
1759336385489916200,4.056916259765625,-1.3886369466781616,-11.312902450561523,-4.3861775398254395
1759336385499916300,4.066916259765625,-2.054224967956543,-11.248258590698242,-4.632780075073242
1759336385509917200,4.076917236328125,-3.2824504375457764,-11.315296173095703,-4.73573112487793
1759336385519917000,4.0869169921875,-4.194641590118408,-11.188404083251953,-4.309563159942627
1759336385529917200,4.096917236328125,-4.32871675491333,-11.298537254333496,-3.426102638244629
1759336385539917000,4.1069169921875,-3.6128504276275635,-11.511621475219727,-2.2816741466522217
1759336385549917200,4.116917236328125,-3.19865345954895,-11.60020637512207,-1.4987702369689941
1759336385559917000,4.1269169921875,-2.894589900970459,-11.949759483337402,-0.9385270476341248
1759336385569917200,4.136917236328125,-2.3582887649536133,-12.026374816894531,0.10295066982507706
1759336385579917000,4.1469169921875,-1.680729627609253,-12.114959716796875,0.7733271718025208
1759336385589917000,4.1569169921875,-1.0845733880996704,-12.14129638671875,0.5961562395095825
1759336385599917000,4.1669169921875,-0.646434485912323,-12.114959716796875,0.2585737705230713
1759336385609916200,4.176916259765625,0.1628057211637497,-11.933000564575195,0.26096799969673157
1759336385619916300,4.186916259765625,-0.17717093229293823,-10.781389236450195,0.22744916379451752
1759336385629916200,4.196916259765625,-0.8331822156906128,-9.826103210449219,0.5554547905921936
1759336385639916300,4.206916259765625,-1.3407529592514038,-9.150938034057617,0.8882488012313843
1759336385649916200,4.216916259765625,-1.8938134908676147,-8.499714851379395,0.7015010714530945
1759336385659916300,4.226916259765625,-1.4053963422775269,-8.028057098388672,0.023942016065120697
1759336385669916200,4.236916259765625,-1.7405846118927002,-7.075165271759033,-1.0031704902648926
1759336385679916300,4.246916259765625,0.9696516990661621,-7.0224928855896,-0.7709329724311829
1759336385689916200,4.256916259765625,1.3934253454208374,-6.672939300537109,-1.0773907899856567
1759336385699916300,4.266916259765625,0.730231523513794,-6.151003360748291,-1.7334020137786865
1759336385709917000,4.2769169921875,-1.3335703611373901,-5.822998046875,-1.9393033981323242
1759336385719917000,4.2869169921875,-1.680729627609253,-6.438307762145996,-1.314416766166687
1759336385729917000,4.2969169921875,-2.779668092727661,-6.783072471618652,-1.1109095811843872
1759336385739917000,4.3069169921875,-3.936067581176758,-7.19248104095459,-1.05105459690094
1759336385749917000,4.3169169921875,-4.4508209228515625,-7.264307022094727,-1.2737152576446533
1759336385759917000,4.3269169921875,-4.788403511047363,-6.835745334625244,-1.886630892753601
1759336385769917200,4.336917236328125,-4.824316501617432,-5.923554420471191,-2.363077163696289
1759336385779917000,4.3469169921875,-4.522646903991699,-5.1693806648254395,-2.6671407222747803
1759336385789917200,4.356917236328125,-3.9887399673461914,-4.6255974769592285,-2.8562827110290527
1759336385799917000,4.3669169921875,-3.713406801223755,-4.225766181945801,-2.913743495941162
1759336385809916200,4.376916259765625,-3.6750996112823486,-3.97916316986084,-2.896984100341797
1759336385819916300,4.386916259765625,-4.125209331512451,-3.7900211811065674,-3.0358476638793945
1759336385829916200,4.396916259765625,-4.513070106506348,-3.6104562282562256,-3.445256233215332
1759336385839916300,4.406916259765625,-4.829104900360107,-3.5889084339141846,-4.094084739685059
1759336385849916200,4.416916259765625,-4.855441093444824,-3.598485231399536,-4.426878929138184
1759336385859916300,4.426916259765625,-4.879383087158203,-4.010287761688232,-4.3622355461120605
1759336385869916200,4.436916259765625,-4.853046894073486,-4.424484729766846,-3.9169139862060547
1759336385879916300,4.446916259765625,-5.116708278656006,-4.620809078216553,-3.3039982318878174
1759336385889916200,4.456916259765625,-5.705681800842285,-4.788403511047363,-2.7557260990142822
1759336385899916300,4.466916259765625,-6.182127952575684,-4.8722004890441895,-2.387019157409668
1759336385909917200,4.476917236328125,-6.510133743286133,-4.963479518890381,-2.188300371170044
1759336385919917000,4.4869169921875,-6.438307762145996,-5.028122901916504,-2.0661959648132324
1759336385929917200,4.496917236328125,-6.397606372833252,-5.001786708831787,-1.824381709098816
1759336385939917000,4.5069169921875,-6.766313076019287,-5.133467674255371,-1.2306196689605713
1759336385949917200,4.516917236328125,-8.207622528076172,-5.533299446105957,-0.545877993106842
1759336385959917000,4.5269169921875,-10.122983932495117,-6.1414265632629395,0.2561795711517334
1759336385969917200,4.536917236328125,-11.42064094543457,-6.895600318908691,0.7589619159698486
1759336385979917000,4.5469169921875,-11.686397552490234,-7.259518623352051,0.10534487664699554
1759336385989917200,4.556917236328125,-9.426271438598633,-7.190086841583252,-1.745373010635376
1759336385999917000,4.5669169921875,-4.5154643058776855,-7.364863872528076,-3.361459255218506
1759336386009916200,4.576916259765625,-1.3239935636520386,-7.927501201629639,-3.35667085647583
1759336386019916300,4.586916259765625,-4.14915132522583,-8.384793281555176,-2.6599581241607666
1759336386029916200,4.596916259765625,-9.742305755615234,-8.930671691894531,-1.3862427473068237
1759336386039916300,4.606916259765625,-9.864410400390625,-9.201216697692871,-1.1492167711257935
1759336386049916200,4.616916259765625,-5.049670696258545,-9.610625267028809,-2.1715409755706787
1759336386059916300,4.626916259765625,-2.7078421115875244,-10.309731483459473,-3.2776620388031006
1759336386069916200,4.636916259765625,-4.6471452713012695,-11.4972562789917,-2.80361008644104
1759336386079916300,4.646916259765625,-4.891354084014893,-12.071864128112793,-1.6663644313812256
1759336386089916200,4.656916259765625,-3.998316764831543,-11.521198272705078,-0.4908113479614258
1759336386099916300,4.666916259765625,-4.659116744995117,-10.443806648254395,-0.05267243832349777
1759336386109917200,4.676917236328125,-5.358522891998291,-9.31853199005127,-0.4405331015586853
1759336386119917000,4.6869169921875,-4.73573112487793,-8.542811393737793,-1.2713210582733154
1759336386129917200,4.696917236328125,-3.7421371936798096,-8.224382400512695,-1.845929503440857
1759336386139917000,4.7069169921875,-3.1938650608062744,-8.042423248291016,-2.0590133666992188
1759336386149917200,4.716917236328125,-3.1699230670928955,-8.31057357788086,-2.0207061767578125
1759336386159917000,4.7269169921875,-3.160346269607544,-8.77504825592041,-1.9823989868164062
1759336386169917200,4.736917236328125,-2.6647465229034424,-9.143755912780762,-1.8746598958969116
1759336386179917000,4.7469169921875,-2.255337953567505,-9.536404609680176,-1.6400281190872192
1759336386189917200,4.756917236328125,-2.006340980529785,-10.020033836364746,-1.4077905416488647
1759336386199917000,4.7669169921875,-1.6376339197158813,-10.510845184326172,-1.1252747774124146
1759336386209916200,4.776916259765625,-1.5131354331970215,-10.937012672424316,-0.811634361743927
1759336386219916300,4.786916259765625,-1.5849615335464478,-11.248258590698242,-0.524330198764801
1759336386229916200,4.796916259765625,-1.3048399686813354,-11.446977615356445,-0.033518824726343155
1759336386239916300,4.806916259765625,-0.8738836050033569,-11.499650001525879,0.6871358752250671
1759336386249916200,4.816916259765625,-1.357512354850769,-11.255441665649414,1.0630255937576294
1759336386259916300,4.826916259765625,-1.7118542194366455,-10.702381134033203,1.3646949529647827
1759336386269916200,4.836916259765625,-1.6759412288665771,-10.149320602416992,1.53707754611969
1759336386279916300,4.846916259765625,-1.359906554222107,-9.632172584533691,1.678335428237915
1759336386289916200,4.856916259765625,-0.9696516990661621,-8.844480514526367,1.7956513166427612
1759336386299916300,4.866916259765625,-0.6943184733390808,-8.320150375366211,1.7621324062347412
1759336386309917200,4.876917236328125,-0.5602431893348694,-8.193257331848145,1.7166426181793213
1759336386319917000,4.8869169921875,-0.5482721924781799,-7.977779388427734,1.3742717504501343
1759336386329917200,4.896917236328125,-0.6440402865409851,-7.755118370056152,0.8523358106613159
1759336386339917000,4.9069169921875,-0.8140285611152649,-7.862857818603516,0.5315127968788147
1759336386349917200,4.916917236328125,-1.1540051698684692,-7.94904899597168,0.090979665517807
1759336386359917000,4.9269169921875,-1.2952631711959839,-7.9753851890563965,-0.24660277366638184
1759336386369917200,4.936917236328125,-1.278503656387329,-8.351274490356445,-0.2322375625371933
1759336386379917000,4.9469169921875,-1.259350061416626,-9.117419242858887,-0.047884032130241394
1759336386389917200,4.956917236328125,-1.2114660739898682,-9.56274127960205,0.36152446269989014
1759336386399917000,4.9669169921875,-1.1348515748977661,-9.723152160644531,0.6967126727104187
1759336386409916200,4.976916259765625,-1.113303780555725,-9.160514831542969,0.706289529800415
1759336386419916300,4.986916259765625,-1.1994950771331787,-8.569147109985352,0.7206547260284424
1759336386429916200,4.996916259765625,-1.4437036514282227,-8.159738540649414,0.5841852426528931
1759336386439916300,5.006916259765625,-1.525106430053711,-7.838915824890137,0.5650315880775452
1759336386449916200,5.016916259765625,-1.6328455209732056,-7.589918613433838,0.4620809257030487
1759336386459916300,5.026916259765625,-1.9560627937316895,-7.40556526184082,0.040701430290937424
1759336386469916200,5.036916259765625,-2.2649147510528564,-7.647379398345947,-0.21547815203666687
1759336386479916300,5.046916259765625,-2.4372973442077637,-8.214805603027344,-0.47165772318840027
1759336386489916200,5.056916259765625,-2.255337953567505,-9.093477249145508,-0.6105214357376099
1759336386499916300,5.066916259765625,-1.9057846069335938,-10.05115795135498,-0.4381389021873474
1759336386509917200,5.076917236328125,-1.4269442558288574,-11.063905715942383,-0.009576806798577309
1759336386519917000,5.0869169921875,-0.8810662031173706,-11.988067626953125,0.3663128614425659
1759336386529917200,5.096917236328125,-0.40940847992897034,-12.514791488647461,0.7733271718025208
1759336386539917000,5.1069169921875,-0.17238251864910126,-12.608165740966797,0.7972691655158997
1759336386549917200,5.116917236328125,-0.5003881454467773,-12.361562728881836,0.3471592366695404
1759336386559917000,5.1269169921875,-0.8619126081466675,-12.730269432067871,0.014365210197865963
1759336386569917200,5.136917236328125,-1.1180921792984009,-13.300089836120605,-0.13407529890537262
1759336386579917000,5.1469169921875,-1.1779472827911377,-14.130877494812012,-0.05746084079146385
1759336386589917000,5.1569169921875,-1.3120225667953491,-14.389451026916504,-0.14844051003456116
1759336386599917000,5.1669169921875,-1.3024457693099976,-14.768034934997559,-0.4908113479614258
1759336386609916200,5.176916259765625,-1.0797849893569946,-15.555727005004883,-0.8188169598579407
1759336386619916300,5.186916259765625,-0.7805097699165344,-16.03217315673828,-1.1971008777618408
1759336386629916200,5.196916259765625,-0.7829039692878723,-15.577275276184082,-2.0039467811584473
1759336386639916300,5.206916259765625,-1.3287819623947144,-14.090176582336426,-2.9017724990844727
1759336386649916200,5.216916259765625,-1.9345149993896484,-12.440570831298828,-3.706224203109741
1759336386659916300,5.226916259765625,-2.741360902786255,-11.212346076965332,-4.4292731285095215
1759336386669916200,5.236916259765625,-3.5482068061828613,-11.008838653564453,-4.76924991607666
1759336386679916300,5.246916259765625,-4.369418144226074,-11.348814964294434,-4.843470096588135
1759336386689916200,5.256916259765625,-5.380070686340332,-11.808502197265625,-4.702212333679199
1759336386699916300,5.266916259765625,-6.103119373321533,-11.923423767089844,-4.2090067863464355
1759336386709917000,5.2769169921875,-6.574777126312256,-12.397475242614746,-3.4404678344726562
1759336386719917000,5.2869169921875,-5.119102478027344,-12.907440185546875,-2.6791117191314697
1759336386729917000,5.2969169921875,-2.913743495941162,-12.634501457214355,-2.1739351749420166
1759336386739917000,5.3069169921875,-0.5578489899635315,-12.162843704223633,-1.7381904125213623
1759336386749917000,5.3169169921875,1.1659762859344482,-12.430994033813477,-0.689530074596405
1759336386759917000,5.3269169921875,1.7812861204147339,-11.552322387695312,0.7182605266571045
1759336386769917200,5.336917236328125,1.8507179021835327,-10.735899925231934,1.036689281463623
1759336386779917000,5.3469169921875,1.6927006244659424,-9.574711799621582,0.363918662071228
1759336386789917200,5.356917236328125,0.38307225704193115,-9.196428298950195,-0.06464344263076782
1759336386799917000,5.3669169921875,-1.3503297567367554,-9.660902976989746,-0.12689268589019775
1759336386809916200,5.376916259765625,-3.2321722507476807,-9.921871185302734,-0.38546648621559143
1759336386819916300,5.386916259765625,-3.5960910320281982,-9.864410400390625,-0.37828385829925537
1759336386829916200,5.396916259765625,-3.9001545906066895,-9.361627578735352,-0.7374141216278076
1759336386839916300,5.406916259765625,-3.1962592601776123,-8.77265453338623,-1.3000515699386597
1759336386849916200,5.416916259765625,-2.454056739807129,-8.312967300415039,-1.656787633895874
1759336386859916300,5.426916259765625,-0.6105214357376099,-8.059182167053223,-1.6735470294952393
1759336386869916200,5.436916259765625,0.7374141216278076,-7.640196800231934,-1.45806884765625
1759336386879916300,5.446916259765625,2.10210919380188,-7.249941825866699,-1.8914192914962769
1759336386889916200,5.456916259765625,1.8195933103561401,-7.352892875671387,-2.121262788772583
1759336386899916300,5.466916259765625,0.5937620401382446,-7.470208644866943,-1.843535304069519
1759336386909917200,5.476917236328125,-1.0079588890075684,-7.944260597229004,-1.1037269830703735
1759336386919917000,5.4869169921875,-3.8810009956359863,-8.37761116027832,-0.6799532771110535
1759336386929917200,5.496917236328125,-5.097554683685303,-8.636184692382812,-0.7326257228851318
1759336386939917000,5.5069169921875,-4.393360137939453,-7.695263385772705,-1.6041151285171509
1759336386949917200,5.516917236328125,-4.709394931793213,-5.619490623474121,-2.3319525718688965
1759336386959917000,5.5269169921875,-5.990592002868652,-3.471592426300049,-2.604891538619995
1759336386969917200,5.536917236328125,-6.232406139373779,-1.8555063009262085,-2.7988216876983643
1759336386979917000,5.5469169921875,-5.585971832275391,-1.2689268589019775,-3.0765492916107178
1759336386989917200,5.556917236328125,-4.800374507904053,-1.86508309841156,-3.157952070236206
1759336386999917000,5.5669169921875,-3.9839515686035156,-2.784456491470337,-3.270479440689087
1759336387009916200,5.576916259765625,-3.490746021270752,-3.6152446269989014,-3.5051112174987793
1759336387019916300,5.586916259765625,-3.7397429943084717,-4.086902141571045,-3.555389642715454
1759336387029916200,5.596916259765625,-4.252102375030518,-4.383783340454102,-3.2968156337738037
1759336387039916300,5.606916259765625,-4.627991676330566,-4.4508209228515625,-3.0166940689086914
1759336387049916200,5.616916259765625,-4.838681697845459,-4.333505153656006,-2.8658595085144043
1759336387059916300,5.626916259765625,-4.9060187339782715,-3.7469255924224854,-2.9544448852539062
1759336387069916200,5.636916259765625,-4.958691120147705,-3.2393548488616943,-3.0119056701660156
1759336387079916000,5.646916015625,-5.329792022705078,-3.117250680923462,-2.832340717315674
1759336387089916200,5.656916259765625,-5.765536785125732,-3.6559460163116455,-2.4468741416931152
1759336387099916000,5.666916015625,-6.189310550689697,-4.338293552398682,-2.1954829692840576
1759336387109917000,5.6769169921875,-6.443096160888672,-4.888959884643555,-1.9704279899597168
1759336387119917000,5.6869169921875,-6.809409141540527,-5.2986674308776855,-1.4437036514282227
1759336387129917000,5.6969169921875,-7.798214435577393,-5.641038417816162,-0.8619126081466675
1759336387139917000,5.7069169921875,-9.320926666259766,-5.909189224243164,-0.3926490843296051
1759336387149917000,5.7169169921875,-11.243470191955566,-5.983409404754639,0.22744916379451752
1759336387159917000,5.7269169921875,-12.50282096862793,-5.770325183868408,0.2825157940387726
1759336387169917000,5.7369169921875,-11.664850234985352,-5.368099689483643,-1.158793568611145
1759336387179917000,5.7469169921875,-6.507739543914795,-5.494992256164551,-3.3207578659057617
1759336387189917000,5.7569169921875,-1.525106430053711,-6.579565525054932,-4.2951979637146
1759336387199917000,5.7669169921875,-3.3279404640197754,-8.751106262207031,-3.2752678394317627
1759336387209916200,5.776916259765625,-9.663297653198242,-10.915464401245117,-1.137245774269104
1759336387219916000,5.786916015625,-12.361562728881836,-11.490073204040527,-0.1364694982767105
1759336387229916200,5.796916259765625,-5.789478778839111,-11.540351867675781,-1.1204863786697388
1759336387239916000,5.806916015625,-1.889025092124939,-11.35120964050293,-2.1523873805999756
1759336387249916200,5.816916259765625,-5.2124762535095215,-11.559505462646484,-2.1523873805999756
1759336387259916000,5.826916015625,-7.175721645355225,-11.858779907226562,-1.072602391242981
1759336387269916200,5.836916259765625,-5.334580898284912,-11.427824020385742,-0.4836287498474121
1759336387279916000,5.846916015625,-4.163516521453857,-10.295366287231445,-0.6153098344802856
1759336387289916200,5.856916259765625,-4.077325344085693,-9.007286071777344,-0.993593692779541
1759336387299916000,5.866916015625,-4.106055736541748,-8.303390502929688,-1.3431471586227417
1759336387309917200,5.876917236328125,-4.091690540313721,-8.080730438232422,-1.623268723487854
1759336387319917000,5.8869169921875,-3.7636849880218506,-8.365639686584473,-1.824381709098816
1759336387329917000,5.8969169921875,-3.3925838470458984,-8.827720642089844,-1.9823989868164062
1759336387339917000,5.9069169921875,-2.9089550971984863,-9.344868659973145,-2.0901381969451904
1759336387349917000,5.9169169921875,-2.7940332889556885,-10.01524543762207,-2.365471363067627
1759336387359917000,5.9269169921875,-2.255337953567505,-10.44620132446289,-2.5330653190612793
1759336387369917000,5.9369169921875,-1.9321208000183105,-10.74068832397461,-2.3295583724975586
1759336387379917000,5.9469169921875,-2.276885747909546,-10.908282279968262,-1.8100165128707886
1759336387389917000,5.9569169921875,-2.293645143508911,-10.836456298828125,-1.1971008777618408
1759336387399917000,5.9669169921875,-2.1811177730560303,-10.417470932006836,-0.6153098344802856
1759336387409916200,5.976916259765625,-2.075772762298584,-10.127772331237793,-0.011971008032560349
1759336387419916000,5.986916015625,-1.8171991109848022,-10.204386711120605,0.524330198764801
1759336387429916200,5.996916259765625,-1.7286136150360107,-10.247482299804688,0.7924807667732239
1759336387439916000,6.006916015625,-1.2449848651885986,-10.41507625579834,1.0630255937576294
1759336387449916200,6.016916259765625,-0.8571242094039917,-10.601824760437012,1.3024457693099976
1759336387459916000,6.026916015625,-1.2234370708465576,-10.642525672912598,1.7908629179000854
1759336387469916200,6.036916259765625,-1.3239935636520386,-10.213963508605957,2.3942017555236816
1759336387479916000,6.046916015625,-0.9983820915222168,-9.76864242553711,2.8826189041137695
1759336387489916200,6.056916259765625,-0.8571242094039917,-9.455001831054688,3.1531636714935303
1759336387499916000,6.066916015625,-0.8044517636299133,-9.210793495178223,2.9448680877685547
1759336387509917000,6.0769169921875,-0.7613561153411865,-8.561964988708496,2.319981336593628
1759336387519917000,6.0869169921875,-0.849941611289978,-7.5994954109191895,1.278503656387329
1759336387529917000,6.0969169921875,-0.8475474119186401,-7.245153427124023,0.28730419278144836
1759336387539917000,6.1069169921875,-1.0462661981582642,-7.2427592277526855,-0.5147533416748047
1759336387549917000,6.1169169921875,-0.768538773059845,-7.5755534172058105,-0.9457096457481384
1759336387559917000,6.1269169921875,-0.6631938815116882,-7.9083476066589355,-0.9911994934082031
1759336387569917000,6.1369169921875,-0.4381389021873474,-8.332120895385742,-0.5889736413955688
1759336387579917000,6.1469169921875,-0.871489405632019,-8.353669166564941,-0.304063618183136
1759336387589917000,6.1569169921875,-1.4293384552001953,-8.083124160766602,-0.19393034279346466
1759336387599917000,6.1669169921875,-1.7956513166427612,-7.987356185913086,-0.21308395266532898
1759336387609916200,6.176916259765625,-2.070984363555908,-7.896376609802246,-0.19871874153614044
1759336387619916000,6.186916015625,-2.166752576828003,-7.695263385772705,-0.10055647045373917
1759336387629916200,6.196916259765625,-2.3032219409942627,-7.5109100341796875,0.05985504388809204
1759336387639916300,6.206916259765625,-2.1332337856292725,-7.149385452270508,0.21547815203666687
1759336387649916200,6.216916259765625,-1.9823989868164062,-7.070376873016357,0.4141969084739685
1759336387659916300,6.226916259765625,-1.7956513166427612,-7.151779651641846,0.5722141861915588
1759336387669916200,6.236916259765625,-1.3886369466781616,-7.472602844238281,0.7924807667732239
1759336387679916300,6.246916259765625,-0.7757213711738586,-8.147768020629883,1.1013327836990356
1759336387689916200,6.256916259765625,-0.08858546614646912,-9.10305404663086,1.4053963422775269
1759336387699916300,6.266916259765625,0.3256114423274994,-9.98412036895752,1.6112977266311646
1759336387709917000,6.2769169921875,0.5219359993934631,-10.788572311401367,1.5394717454910278
1759336387729917000,6.2969169921875,0.790086567401886,-11.753435134887695,0.40701428055763245
1759336387739917000,6.3069169921875,0.6751648783683777,-12.203545570373535,-0.05506663769483566
1759336387749917000,6.3169169921875,0.12449848651885986,-12.924200057983398,-0.5770025849342346
1759336387759917000,6.3269169921875,-0.5147533416748047,-14.157214164733887,-0.7565677165985107
1759336387769917000,6.3369169921875,-1.525106430053711,-15.608399391174316,-0.7852981686592102
1759336387779917000,6.3469169921875,-3.509899616241455,-16.678607940673828,-0.8834604024887085
1759336387789917200,6.356917236328125,-4.4723687171936035,-16.958728790283203,-0.8307880163192749
1759336387799917000,6.3669169921875,-3.9240965843200684,-16.75282859802246,-0.9433154463768005
1759336387809916200,6.376916259765625,-2.33913516998291,-16.003442764282227,-1.6615760326385498
1759336387819916300,6.386916259765625,-1.3048399686813354,-15.249269485473633,-2.6599581241607666
1759336387829916200,6.396916259765625,-0.9481038451194763,-14.727333068847656,-3.691859006881714
1759336387839916300,6.406916259765625,-1.2330138683319092,-13.625700950622559,-4.611232280731201
1759336387849916200,6.416916259765625,-1.7741034030914307,-12.589012145996094,-5.0592474937438965
1759336387859916300,6.426916259765625,-2.7246015071868896,-11.4972562789917,-5.375282287597656
1759336387869916200,6.436916259765625,-4.285621166229248,-10.494085311889648,-5.193322658538818
1759336387879916300,6.446916259765625,-5.1693806648254395,-10.273818969726562,-4.563348293304443
1759336387889916200,6.456916259765625,-5.02094030380249,-10.877157211303711,-3.691859006881714
1759336387899916300,6.466916259765625,-4.271255970001221,-11.736676216125488,-2.8802247047424316
1759336387909917200,6.476917236328125,-2.734178304672241,-12.318467140197754,-2.3367409706115723
1759336387919917000,6.4869169921875,-1.5490485429763794,-12.466907501220703,-2.0207061767578125
1759336387929917200,6.496917236328125,-1.2425906658172607,-12.272976875305176,-1.9297266006469727
1759336387939917000,6.5069169921875,-1.98958158493042,-12.155661582946777,-1.800439715385437
1759336387949917200,6.516917236328125,-2.698265314102173,-13.127707481384277,-0.8212111592292786
1759336387959917000,6.5269169921875,-2.4468741416931152,-12.646472930908203,0.15083470940589905
1759336387969917200,6.536917236328125,-1.7525556087493896,-12.529156684875488,0.4118026793003082
1759336387979917000,6.5469169921875,-0.5027823448181152,-11.83962631225586,-0.5554547905921936
1759336387989917200,6.556917236328125,0.05027823522686958,-11.193192481994629,-0.9481038451194763
1759336387999917000,6.5669169921875,-0.24899697303771973,-10.506056785583496,-1.2832920551300049
1759336388009916200,6.576916259765625,-1.5155296325683594,-9.92665958404541,-1.3886369466781616
1759336388019916300,6.586916259765625,-2.1523873805999756,-9.574711799621582,-1.5682021379470825
1759336388029916200,6.596916259765625,-2.231395959854126,-8.976161003112793,-2.1116859912872314
1759336388039916300,6.606916259765625,-1.800439715385437,-8.415918350219727,-2.999934673309326
1759336388049916200,6.616916259765625,0.2849099934101105,-8.133402824401855,-3.0861260890960693
1759336388059916300,6.626916259765625,1.7190368175506592,-7.877223014831543,-3.0861260890960693
1759336388069916200,6.636916259765625,1.7549498081207275,-7.245153427124023,-3.1100680828094482
1759336388079916300,6.646916259765625,0.4118026793003082,-6.991368293762207,-2.7054479122161865
1759336388089916200,6.656916259765625,-1.2449848651885986,-7.63301420211792,-1.436521053314209
1759336388099916300,6.666916259765625,-3.6846764087677,-8.485349655151367,-0.45010992884635925
1759336388109917000,6.6769169921875,-3.2561142444610596,-8.597877502441406,-0.2585737705230713
1759336388119917000,6.6869169921875,-3.045424461364746,-8.463802337646484,0.1388636976480484
1759336388129917000,6.6969169921875,-4.266467571258545,-7.254730224609375,-0.1149216815829277
1759336388139917000,6.7069169921875,-5.109525680541992,-5.509357452392578,-0.4572925269603729
1759336388149917000,6.7169169921875,-5.526116847991943,-3.670311212539673,-0.9481038451194763
1759336388159917000,6.7269169921875,-5.013757705688477,-1.9823989868164062,-1.6663644313812256
1759336388169917000,6.7369169921875,-4.194641590118408,-1.3694833517074585,-2.5689783096313477
1759336388179917000,6.7469169921875,-3.6583402156829834,-1.745373010635376,-3.421314239501953
1759336388189917000,6.7569169921875,-3.6774938106536865,-2.671929121017456,-3.711012601852417
1759336388199917000,6.7669169921875,-3.7828385829925537,-3.56017804145813,-3.598485231399536
1759336388209916200,6.776916259765625,-4.089296340942383,-4.110844135284424,-3.248931646347046
1759336388219916300,6.786916259765625,-4.242525577545166,-4.199429988861084,-2.832340717315674
1759336388229916200,6.796916259765625,-4.185064792633057,-4.019864559173584,-2.5330653190612793
1759336388239916300,6.806916259765625,-3.890577793121338,-3.529053211212158,-2.408566951751709
1759336388249916200,6.816916259765625,-3.957615375518799,-3.098097085952759,-2.631227731704712
1759336388259916300,6.826916259765625,-4.347870349884033,-2.7892448902130127,-2.801215887069702
1759336388269916200,6.836916259765625,-5.0161519050598145,-2.8395233154296875,-2.585737943649292
1759336388279916300,6.846916259765625,-5.686528205871582,-3.069366693496704,-2.051830768585205
1759336388289916200,6.856916259765625,-6.383241176605225,-3.4117374420166016,-1.6496049165725708
1759336388299916300,6.866916259765625,-6.854898929595947,-3.8163576126098633,-1.2330138683319092
1759336388309917200,6.876917236328125,-7.776666164398193,-4.211400985717773,-0.6392518281936646
1759336388319917000,6.8869169921875,-9.172486305236816,-4.675876140594482,0.2059013396501541
1759336388329917000,6.8969169921875,-10.846033096313477,-5.272331237792969,1.2425906658172607
1759336388339917000,6.9069169921875,-11.968914031982422,-6.055235385894775,2.5043349266052246
1759336388349917000,6.9169169921875,-10.714351654052734,-5.966650009155273,2.343923568725586
1759336388359917000,6.9269169921875,-7.214028835296631,-5.097554683685303,0.019153613597154617
1759336388369917000,6.9369169921875,-3.598485231399536,-5.071218490600586,-2.0254945755004883
1759336388379917000,6.9469169921875,-4.197035789489746,-6.431125164031982,-2.937685489654541
1759336388389917000,6.9569169921875,-9.004891395568848,-9.450213432312012,-2.2697031497955322
1759336388399917000,6.9669169921875,-12.366351127624512,-12.648866653442383,-1.4245500564575195
1759336388409916200,6.976916259765625,-7.498939037322998,-14.42297077178955,-2.3056161403656006
1759336388419916300,6.986916259765625,-1.8124107122421265,-14.236222267150879,-3.287238836288452
1759336388429916200,6.996916259765625,-2.126051187515259,-12.993632316589355,-2.9520506858825684
1759336388439916300,7.006916259765625,-4.398148536682129,-11.207557678222656,-1.7525556087493896
1759336388449916200,7.016916259765625,-5.200505256652832,-10.23311710357666,-0.8571242094039917
1759336388459916300,7.026916259765625,-4.041412353515625,-9.311349868774414,-0.7158663272857666
1759336388469916200,7.036916259765625,-3.426102638244629,-8.487744331359863,-1.1492167711257935
1759336388479916300,7.046916259765625,-3.7636849880218506,-8.210017204284668,-1.647210717201233
1759336388489916200,7.056916259765625,-3.5386300086975098,-8.61463737487793,-2.142810583114624
1759336388499916300,7.066916259765625,-2.7748796939849854,-9.445425033569336,-2.5522189140319824
1759336388509917200,7.076917236328125,-2.3271639347076416,-10.211569786071777,-2.655169725418091
1759336388519917000,7.0869169921875,-2.343923568725586,-11.1381254196167,-2.6886885166168213
1759336388529917200,7.096917236328125,-2.7126305103302,-12.067075729370117,-2.451662540435791
1759336388539917000,7.1069169921875,-2.4157495498657227,-12.349591255187988,-2.0446481704711914
1759336388549917200,7.116917236328125,-2.5929205417633057,-12.189180374145508,-1.2617442607879639
1759336388559917000,7.1269169921875,-3.071760892868042,-11.569082260131836,-0.7158663272857666
1759336388569917200,7.136917236328125,-3.2393548488616943,-10.688015937805176,-0.3998316824436188
1759336388579917000,7.1469169921875,-2.9664158821105957,-9.888352394104004,-0.37828385829925537
1759336388589917000,7.1569169921875,-2.3127987384796143,-9.5316162109375,-0.3711012601852417
1759336388599917000,7.1669169921875,-1.6903064250946045,-9.502885818481445,-0.3519476354122162
1759336388609916200,7.176916259765625,-0.8930372595787048,-9.742305755615234,-0.15083470940589905
1759336388619916300,7.186916259765625,-1.0007762908935547,-9.92905330657959,-0.14604631066322327
1759336388629916200,7.196916259765625,-1.1779472827911377,-9.964966773986816,-0.0933738648891449
1759336388639916300,7.206916259765625,-1.5945383310317993,-9.58907699584961,-0.0454898327589035
1759336388649916200,7.216916259765625,-1.7190368175506592,-9.179668426513672,0.05267243832349777
1759336388659916300,7.226916259765625,-1.2856862545013428,-8.55717658996582,0.17717093229293823
1759336388669916200,7.236916259765625,-0.8427590131759644,-8.176498413085938,0.33039984107017517
1759336388679916300,7.246916259765625,-0.45489832758903503,-8.04002857208252,0.6177040338516235
1759336388689916200,7.256916259765625,0.002394201699644327,-7.905953407287598,0.933738648891449
1759336388699916300,7.266916259765625,-0.10773907601833344,-8.250718116760254,1.0773907899856567
1759336388709917000,7.2769169921875,-0.3280056416988373,-8.451830863952637,1.072602391242981
1759336388719917000,7.2869169921875,-0.07182604819536209,-8.722375869750977,1.2976573705673218
1759336388729917000,7.2969169921875,-0.6200982332229614,-8.798990249633789,1.0342950820922852
1759336388739917000,7.3069169921875,-1.0462661981582642,-8.86363410949707,0.7398083209991455
1759336388749917000,7.3169169921875,-1.4197616577148438,-8.822932243347168,0.45489832758903503
1759336388759917000,7.3269169921875,-1.7597382068634033,-8.904335021972656,0.36152446269989014
1759336388769917000,7.3369169921875,-1.6974890232086182,-8.552388191223145,0.3232172429561615
1759336388779917000,7.3469169921875,-1.6615760326385498,-8.075942039489746,-0.05267243832349777
1759336388789917000,7.3569169921875,-1.4173674583435059,-7.7072343826293945,-0.40462008118629456
1759336388799917000,7.3669169921875,-1.2880805730819702,-7.544428825378418,-0.5410895943641663
1759336388809916200,7.376916259765625,-1.2282254695892334,-7.424718856811523,-0.5793967843055725
1759336388819916000,7.386916015625,-1.4700398445129395,-7.276278018951416,-0.8379706144332886
1759336388829916200,7.396916259765625,-1.5179238319396973,-7.1996636390686035,-1.05105459690094
1759336388839916000,7.406916015625,-1.6543933153152466,-7.570765018463135,-0.9528923034667969
1759336388849916200,7.416916259765625,-1.558625340461731,-7.9753851890563965,-0.7398083209991455
1759336388859916000,7.426916015625,-0.9313444495201111,-8.375216484069824,-0.3734954595565796
1759336388869916200,7.436916259765625,-0.15083470940589905,-8.916306495666504,-0.011971008032560349
1759336388879916000,7.446916015625,0.004788403399288654,-9.534010887145996,0.033518824726343155
1759336388889916200,7.456916259765625,-0.3208230137825012,-10.283395767211914,-0.05746084079146385
1759336388899916000,7.466916015625,-1.0342950820922852,-11.176432609558105,-0.090979665517807
1759336388909917000,7.4769169921875,-1.8052281141281128,-11.865962982177734,-0.0694318488240242
1759336388919917000,7.4869169921875,-2.3582887649536133,-12.636896133422852,0.19871874153614044
1759336388929917000,7.4969169921875,-2.63362193107605,-13.4197998046875,0.5363011956214905
1759336388939917000,7.5069169921875,-2.5977089405059814,-14.047080993652344,0.7924807667732239
1759336388949917000,7.5169169921875,-2.2697031497955322,-14.674361228942871,0.9624691009521484
1759336388959917000,7.5269169921875,-1.5155296325683594,-15.23250961303711,1.1516109704971313
1759336388969917000,7.5369169921875,-1.4077905416488647,-15.060127258300781,0.8667010068893433
1759336388979917000,7.5469169921875,-1.6280571222305298,-14.854226112365723,0.5123591423034668
1759336388989917000,7.5569169921875,-1.867477297782898,-15.031396865844727,0.19632454216480255
1759336388999917000,7.5669169921875,-1.9560627937316895,-15.426440238952637,-0.2322375625371933
1759336389009916200,7.576916259765625,-1.9800047874450684,-15.747262954711914,-1.2066776752471924
1759336389019916000,7.586916015625,-1.5825673341751099,-15.5126314163208,-2.499546527862549
1759336389029916200,7.596916259765625,-1.0414776802062988,-14.576199531555176,-3.5936968326568604
1759336389039916000,7.606916015625,-0.9193734526634216,-13.048698425292969,-4.565742492675781
1759336389049916200,7.616916259765625,-1.4963760375976562,-11.78216552734375,-5.06643009185791
1759336389059916000,7.626916015625,-2.4588451385498047,-11.157279014587402,-5.214870452880859
1759336389069916200,7.636916259765625,-4.110844135284424,-11.178827285766602,-4.996998310089111
1759336389079916300,7.646916259765625,-5.662586212158203,-11.485284805297852,-4.285621166229248
1759336389089916200,7.656916259765625,-6.443096160888672,-12.059893608093262,-3.0597896575927734
1759336389099916300,7.666916259765625,-5.449502468109131,-12.543521881103516,-1.8052281141281128
1759336389109917000,7.6769169921875,-3.581725835800171,-12.44536018371582,-1.1276689767837524
1759336389119917000,7.6869169921875,-0.9911994934082031,-12.1101713180542,-0.45250412821769714
1759336389129917000,7.6969169921875,-0.29209262132644653,-12.387898445129395,1.173158884048462
1759336389139917000,7.7069169921875,0.002394201699644327,-11.784560203552246,2.542642116546631
1759336389149917000,7.7169169921875,0.31842881441116333,-10.965743064880371,2.9759926795959473
1759336389159917000,7.7269169921875,0.47644615173339844,-11.006444931030273,2.3989901542663574
1759336389169917000,7.7369169921875,-0.1173158809542656,-10.812514305114746,1.7717092037200928
1759336389179917000,7.7469169921875,-2.027888774871826,-10.656890869140625,0.9241618514060974
1759336389189917000,7.7569169921875,-2.853888511657715,-10.458171844482422,-0.3016694188117981
1759336389199917000,7.7669169921875,-2.691082715988159,-9.56513500213623,-1.259350061416626
1759336389209916200,7.776916259765625,-1.7334020137786865,-8.925883293151855,-2.2218191623687744
1759336389219916000,7.786916015625,-0.14365209639072418,-7.834127426147461,-2.9472622871398926
1759336389229916200,7.796916259765625,0.4668693244457245,-6.6489973068237305,-3.665522813796997
1759336389239916000,7.806916015625,1.5155296325683594,-6.261136531829834,-3.8139634132385254
1759336389249916200,7.816916259765625,2.7964274883270264,-5.832574844360352,-3.818751811981201
1759336389259916000,7.826916015625,4.754884719848633,-6.146214962005615,-2.964021682739258
1759336389269916200,7.836916259765625,2.0231003761291504,-6.29944372177124,-2.738966703414917
1759336389279916300,7.846916259765625,-2.126051187515259,-7.300220489501953,-2.0614075660705566
1759336389289916200,7.856916259765625,-6.519710540771484,-8.751106262207031,-0.3926490843296051
1759336389299916300,7.866916259765625,-6.950666904449463,-9.567529678344727,0.4118026793003082
1759336389309917000,7.8769169921875,-4.086902141571045,-9.866804122924805,0.021547814831137657
1759336389319917000,7.8869169921875,-2.1715409755706787,-9.150938034057617,-1.3670891523361206
1759336389329917000,7.8969169921875,-4.082113742828369,-7.0679826736450195,-3.1483752727508545
1759336389339917000,7.9069169921875,-5.854122638702393,-4.8051629066467285,-3.847482204437256
1759336389349917000,7.9169169921875,-5.207687854766846,-2.8634653091430664,-3.823540210723877
1759336389359917000,7.9269169921875,-3.6559460163116455,-1.5514427423477173,-4.072536945343018
1759336389369917000,7.9369169921875,-2.6455929279327393,-1.0893617868423462,-4.134786128997803
1759336389379917000,7.9469169921875,-3.098097085952759,-0.8978256583213806,-4.352658748626709
1759336389389917000,7.9569169921875,-4.098873138427734,-1.3982137441635132,-4.489128112792969
1759336389399917000,7.9669169921875,-4.649539470672607,-2.3535003662109375,-4.292803764343262
1759336389409916200,7.976916259765625,-4.831499099731445,-3.3423056602478027,-3.8738183975219727
1759336389419916300,7.986916259765625,-4.771644115447998,-4.180276393890381,-3.557783842086792
1759336389429916200,7.996916259765625,-4.759673118591309,-4.572925090789795,-3.318363666534424
1759336389439916300,8.006916259765624,-4.908412933349609,-4.623203277587891,-3.0358476638793945
1759336389449916200,8.016916259765624,-5.1454386711120605,-4.630385875701904,-2.7078421115875244
1759336389459916300,8.026916259765626,-5.56442403793335,-4.69024133682251,-2.346317768096924
1759336389469916200,8.036916259765626,-6.158185958862305,-4.553771495819092,-2.209848165512085
1759336389479916300,8.046916259765625,-7.070376873016357,-4.206612586975098,-2.1068975925445557
1759336389489916200,8.056916259765625,-8.415918350219727,-3.9025487899780273,-1.8507179021835327
1759336389499916300,8.066916259765625,-10.623372077941895,-3.845088005065918,-1.2258312702178955
1759336389509917200,8.076917236328125,-12.44536018371582,-4.244919776916504,-0.6248866319656372
1759336389519917000,8.0869169921875,-12.450148582458496,-4.448426723480225,-1.2210428714752197
1759336389529917200,8.096917236328125,-7.1805100440979,-4.481945514678955,-2.940079689025879
1759336389539917000,8.1069169921875,-2.2242133617401123,-4.78122091293335,-4.039018154144287
1759336389549917200,8.116917236328124,-1.7262194156646729,-6.1414265632629395,-3.598485231399536
1759336389559917000,8.1269169921875,-7.597101211547852,-8.655338287353516,-2.365471363067627
1759336389569917200,8.136917236328125,-13.853150367736816,-11.121366500854492,-1.3982137441635132
1759336389579917000,8.1469169921875,-11.133337020874023,-12.591405868530273,-1.699883222579956
1759336389589917200,8.156917236328125,-3.8355112075805664,-12.780548095703125,-2.851494312286377
1759336389599917000,8.1669169921875,-2.7054479122161865,-12.6057710647583,-3.1866824626922607
1759336389609916200,8.176916259765624,-4.436455726623535,-12.521974563598633,-2.276885747909546
1759336389619916300,8.186916259765624,-5.186140060424805,-12.294525146484375,-0.6392518281936646
1759336389629916200,8.196916259765626,-4.707000732421875,-11.389516830444336,0.016759412363171577
1759336389639916300,8.206916259765626,-3.9001545906066895,-9.950601577758789,-0.22266076505184174
1759336389649916200,8.216916259765625,-3.8953661918640137,-8.389581680297852,-0.7757213711738586
1759336389659916300,8.226916259765625,-4.51067590713501,-7.410353660583496,-1.2761094570159912
1759336389669916200,8.236916259765625,-4.702212333679199,-6.864475727081299,-1.766920804977417
1759336389679916300,8.246916259765625,-4.2975921630859375,-7.204452037811279,-2.0254945755004883
1759336389689916200,8.256916259765624,-3.794809579849243,-7.656956195831299,-2.2625205516815186
1759336389699916300,8.266916259765624,-3.5745432376861572,-8.226776123046875,-2.6001031398773193
1759336389709917000,8.2769169921875,-3.1531636714935303,-8.79659652709961,-2.8802247047424316
1759336389719917000,8.2869169921875,-2.5737667083740234,-9.359233856201172,-3.0310592651367188
1759336389729917000,8.2969169921875,-2.1739351749420166,-10.063129425048828,-2.96162748336792
1759336389739917000,8.3069169921875,-2.013523578643799,-10.513238906860352,-2.518700122833252
1759336389749917000,8.3169169921875,-2.1978771686553955,-10.755053520202637,-1.8100165128707886
1759336389759917000,8.3269169921875,-2.2385785579681396,-10.688015937805176,-0.8930372595787048
1759336389769917000,8.3369169921875,-2.315192937850952,-10.573094367980957,-0.11971008777618408
1759336389779917000,8.3469169921875,-2.5546131134033203,-10.620978355407715,0.6009446382522583
1759336389789917200,8.356917236328124,-2.011129379272461,-10.556334495544434,1.237802267074585
1759336389799917000,8.3669169921875,-1.6352397203445435,-10.460566520690918,1.6879122257232666
1759336389809916200,8.376916259765625,-2.142810583114624,-10.328885078430176,1.8722656965255737
1759336389819916300,8.386916259765625,-2.3127987384796143,-10.240300178527832,1.9608511924743652
1759336389829916200,8.396916259765625,-2.2409727573394775,-10.120590209960938,2.1068975925445557
1759336389839916300,8.406916259765625,-1.8555063009262085,-9.751882553100586,2.2673089504241943
1759336389849916200,8.416916259765625,-1.0965443849563599,-9.328108787536621,2.0877439975738525
1759336389859916300,8.426916259765624,-0.8092401623725891,-9.148544311523438,1.680729627609253
1759336389869916200,8.436916259765624,-0.8595184087753296,-9.024045944213867,1.1324573755264282
1759336389879916300,8.446916259765626,-0.6967126727104187,-9.000102996826172,0.9481038451194763
1759336389889916200,8.456916259765626,-0.5027823448181152,-8.736741065979004,0.6655880808830261
1759336389899916300,8.466916259765625,-0.28730419278144836,-8.549993515014648,0.11971008777618408
1759336389909917200,8.476917236328125,-0.16998831927776337,-8.674491882324219,-0.2825157940387726
1759336389919917000,8.4869169921875,-0.2944868206977844,-8.940248489379883,-0.3663128614425659
1759336389929917200,8.496917236328125,-0.7972691655158997,-9.143755912780762,-0.4141969084739685
1759336389939917000,8.5069169921875,-1.3838485479354858,-9.1940336227417,-0.5363011956214905
1759336389949917200,8.516917236328124,-1.4173674583435059,-9.251494407653809,-0.42377370595932007
1759336389959917000,8.5269169921875,-1.194706678390503,-9.285013198852539,-0.15801730751991272
1759336389969917200,8.536917236328126,-0.9050082564353943,-9.086295127868652,-0.18914192914962769
1759336389979917000,8.5469169921875,-1.158793568611145,-8.751106262207031,-0.5219359993934631
1759336389989917200,8.556917236328125,-1.434126853942871,-8.542811393737793,-0.7613561153411865
1759336389999917000,8.5669169921875,-1.4652514457702637,-8.478167533874512,-0.8044517636299133
1759336390009916200,8.576916259765625,-1.558625340461731,-8.336909294128418,-0.8547300100326538
1759336390019916300,8.586916259765625,-1.3335703611373901,-8.224382400512695,-0.871489405632019
1759336390029916200,8.596916259765624,-1.0558429956436157,-8.068758964538574,-0.8978256583213806
1759336390039916300,8.606916259765624,-0.8044517636299133,-7.915530204772949,-0.8427590131759644
1759336390049916200,8.616916259765626,-0.47884035110473633,-7.570765018463135,-0.6105214357376099
1759336390059916300,8.626916259765625,-0.2106897532939911,-7.364863872528076,-0.35673606395721436
1759336390069916200,8.636916259765625,-0.07182604819536209,-7.333739280700684,-0.3232172429561615
1759336390079916300,8.646916259765625,-0.16759411990642548,-7.700051784515381,-0.5554547905921936
1759336390089916200,8.656916259765625,-0.3519476354122162,-8.272266387939453,-0.849941611289978
1759336390099916300,8.666916259765625,-0.7374141216278076,-9.081506729125977,-1.1013327836990356
1759336390109917000,8.6769169921875,-1.237802267074585,-9.936236381530762,-0.950498104095459
1759336390119917000,8.6869169921875,-1.7262194156646729,-10.695198059082031,-0.5578489899635315
1759336390129917000,8.6969169921875,-2.233790159225464,-11.56668758392334,-0.19393034279346466
1759336390139917000,8.7069169921875,-2.5785553455352783,-12.26579475402832,-0.07661445438861847
1759336390149917000,8.7169169921875,-2.6886885166168213,-12.984055519104004,-0.047884032130241394
1759336390159917000,8.7269169921875,-2.4205379486083984,-13.719075202941895,-0.040701430290937424
1759336390169917000,8.7369169921875,-1.6280571222305298,-14.643237113952637,0.2082955539226532
1759336390179917000,8.7469169921875,-1.1444283723831177,-15.376161575317383,0.4405331015586853
1759336390189917000,8.7569169921875,-1.0797849893569946,-15.768811225891113,0.6536170840263367
1759336390199917000,8.7669169921875,-0.871489405632019,-16.065692901611328,0.5291185975074768
1759336390209916200,8.776916259765626,-0.569819986820221,-16.072874069213867,0.0454898327589035
1759336390219916000,8.786916015625,-0.26815059781074524,-15.723320960998535,-0.8403648138046265
1759336390229916200,8.796916259765625,-0.38067805767059326,-15.108011245727539,-1.8195933103561401
1759336390239916000,8.806916015625,-0.6919242739677429,-13.96088981628418,-2.806004285812378
1759336390249916200,8.816916259765625,-0.9097966551780701,-12.351985931396484,-3.7660791873931885
1759336390259916000,8.826916015625,-0.993593692779541,-11.035175323486328,-4.28322696685791
1759336390269916200,8.836916259765625,-1.2952631711959839,-10.44620132446289,-4.4939165115356445
1759336390279916300,8.846916259765624,-2.183511972427368,-10.218751907348633,-4.639962673187256
1759336390289916200,8.856916259765624,-3.2848446369171143,-10.424653053283691,-4.501099109649658
1759336390299916300,8.866916259765626,-4.32871675491333,-11.092636108398438,-4.2329487800598145
1759336390309917000,8.8769169921875,-5.423166275024414,-11.856386184692383,-3.5913026332855225
1759336390319917000,8.8869169921875,-6.100725173950195,-12.275371551513672,-2.851494312286377
1759336390329917000,8.8969169921875,-5.329792022705078,-12.375927925109863,-1.8195933103561401
1759336390339917000,8.9069169921875,-3.35667085647583,-12.021586418151855,-0.7996633648872375
1759336390349917000,8.9169169921875,-1.800439715385437,-11.53316879272461,-0.16759411990642548
1759336390359917000,8.9269169921875,-0.047884032130241394,-11.245864868164062,0.6344634294509888
1759336390369917000,8.9369169921875,-0.19153612852096558,-11.763011932373047,1.580173134803772
1759336390379917000,8.9469169921875,-0.019153613597154617,-11.130943298339844,2.0398597717285156
1759336390389917000,8.9569169921875,1.0893617868423462,-10.673650741577148,1.8315643072128296
1759336390399917000,8.9669169921875,1.1348515748977661,-10.678439140319824,0.6416460275650024
1759336390409916200,8.976916259765625,0.040701430290937424,-10.486903190612793,-0.3687070608139038
1759336390419916000,8.986916015625,-1.534683346748352,-10.257059097290039,-1.357512354850769
1759336390429916200,8.996916259765625,-2.456450939178467,-9.948206901550293,-2.1356279850006104
1759336390439916000,9.006916015625,-2.054224967956543,-9.524434089660645,-2.9041666984558105
1759336390449916200,9.016916259765624,-1.259350061416626,-8.485349655151367,-3.6774938106536865
1759336390459916300,9.026916259765626,-0.9888052940368652,-7.661744594573975,-3.998316764831543
1759336390469916200,9.036916259765626,-0.7374141216278076,-6.699275493621826,-4.108449935913086
1759336390479916300,9.046916259765625,-1.1420341730117798,-5.526116847991943,-4.343081951141357
1759336390489916200,9.056916259765625,1.1348515748977661,-5.892429828643799,-3.1890766620635986
1759336390499916300,9.066916259765625,-1.070208191871643,-5.645826816558838,-3.141192674636841
1759336390509917200,9.076917236328125,-1.381454348564148,-6.421548366546631,-3.0406360626220703
1759336390519917000,9.0869169921875,-0.1867477297782898,-7.27148962020874,-2.5019407272338867
1759336390529917200,9.096917236328125,-1.2042834758758545,-8.303390502929688,-1.3000515699386597
1759336390539917000,9.1069169921875,-4.853046894073486,-8.995314598083496,-0.42856210470199585
1759336390549917200,9.116917236328124,-6.955455303192139,-9.31613826751709,-0.12210428714752197
1759336390559917000,9.1269169921875,-6.622661113739014,-9.158121109008789,-0.3974374830722809
1759336390569917200,9.136917236328125,-5.286696434020996,-8.152556419372559,-0.8834604024887085
1759336390579917000,9.1469169921875,-4.944325923919678,-6.179733753204346,-1.0845733880996704
1759336390589917000,9.1569169921875,-5.186140060424805,-4.833893299102783,-2.513911724090576
1759336390599917000,9.1669169921875,-4.824316501617432,-4.228160381317139,-3.471592426300049
1759336390609916200,9.176916259765624,-4.1180267333984375,-4.031835556030273,-3.8546648025512695
1759336390619916300,9.186916259765624,-4.050989151000977,-4.000710964202881,-3.8977603912353516
1759336390629916200,9.196916259765626,-4.434061527252197,-3.8953661918640137,-3.5266590118408203
1759336390639916300,9.206916259765626,-4.592078685760498,-3.7828385829925537,-2.9879636764526367
1759336390649916200,9.216916259765625,-5.0161519050598145,-3.6367924213409424,-2.7222073078155518
1759336390659916300,9.226916259765625,-4.965873718261719,-3.6727054119110107,-2.626439332962036
1759336390669916200,9.236916259765625,-4.60165548324585,-3.995922565460205,-2.5737667083740234
1759336390679916300,9.246916259765625,-4.261679172515869,-4.084507942199707,-2.6001031398773193
1759336390689916200,9.256916259765624,-4.280832767486572,-4.144362926483154,-2.6216509342193604
1759336390699916300,9.266916259765624,-4.884171485900879,-3.9049429893493652,-2.7317841053009033
1759336390709917200,9.276917236328124,-5.303455829620361,-3.7397429943084717,-2.647987127304077
1759336390729917000,9.2969169921875,-5.995380401611328,-4.505887508392334,-2.427720546722412
1759336390739917000,9.3069169921875,-7.01052188873291,-4.548983097076416,-1.6208745241165161
1759336390749917200,9.316917236328125,-8.1046724319458,-4.888959884643555,-0.9241618514060974
1759336390759917000,9.3269169921875,-9.29458999633789,-5.0376996994018555,-0.7565677165985107
1759336390769917200,9.336917236328125,-10.707169532775879,-5.250783443450928,-1.216254472732544
1759336390779917000,9.3469169921875,-11.542745590209961,-6.100725173950195,-2.5043349266052246
1759336390789917200,9.356917236328124,-5.918766021728516,-6.397606372833252,-4.932354927062988
1759336390799917000,9.3669169921875,-1.946485996246338,-7.328950881958008,-6.1414265632629395
1759336390809916200,9.376916259765625,-4.182670593261719,-9.098265647888184,-4.548983097076416
1759336390819916300,9.386916259765625,-8.767866134643555,-10.829273223876953,-1.115697979927063
1759336390829916200,9.396916259765625,-11.583447456359863,-11.832444190979004,0.30885201692581177
1759336390839916300,9.406916259765625,-7.697657585144043,-12.41423511505127,-0.6919242739677429
1759336390849916200,9.416916259765625,-0.706289529800415,-12.253823280334473,-3.3207578659057617
1759336390859916300,9.426916259765624,-1.0438719987869263,-11.71273422241211,-3.9839515686035156
1759336390869916200,9.436916259765624,-3.9384617805480957,-11.150096893310547,-2.2912509441375732
1759336390879916300,9.446916259765626,-4.438849925994873,-10.702381134033203,0.3711012601852417
1759336390889916200,9.456916259765626,-4.199429988861084,-10.309731483459473,1.41257905960083
1759336390899916300,9.466916259765625,-4.034229755401611,-9.541193008422852,0.6727706789970398
1759336390909917000,9.4769169921875,-3.993528366088867,-8.976161003112793,-0.7230489253997803
1759336390919917000,9.4869169921875,-3.7397429943084717,-9.091083526611328,-1.6208745241165161
1759336390929917000,9.4969169921875,-3.3016040325164795,-9.512462615966797,-2.0398597717285156
1759336390939917000,9.5069169921875,-3.308786630630493,-9.727940559387207,-2.0398597717285156
1759336390949917000,9.5169169921875,-3.708618402481079,-9.639355659484863,-1.8339585065841675
1759336390959917000,9.5269169921875,-3.976768970489502,-9.68005657196045,-1.7908629179000854
1759336390969917000,9.5369169921875,-3.9480385780334473,-9.617807388305664,-1.900996208190918
1759336390979917000,9.5469169921875,-4.039018154144287,-9.567529678344727,-2.1547815799713135
1759336390989917000,9.5569169921875,-3.5003228187561035,-9.759065628051758,-2.671929121017456
1759336390999917000,9.5669169921875,-2.7509377002716064,-9.670479774475098,-2.279279947280884
1759336391009916200,9.576916259765625,-2.008735179901123,-9.126996040344238,-1.455674648284912
1759336391019916000,9.586916015625,-1.8195933103561401,-10.13974380493164,-0.9624691009521484
1759336391029916200,9.596916259765624,-1.3886369466781616,-10.688015937805176,-0.2537853717803955
1759336391039916300,9.606916259765624,-1.0869675874710083,-10.386345863342285,0.5363011956214905
1759336391049916200,9.616916259765626,-0.9145850539207458,-9.375992774963379,1.0127472877502441
1759336391059916300,9.626916259765625,-1.1348515748977661,-8.636184692382812,1.091755986213684
1759336391069916200,9.636916259765625,-1.5131354331970215,-7.9083476066589355,0.8834604024887085
1759336391079916000,9.646916015625,-2.1954829692840576,-8.23156452178955,0.1843535304069519
1759336391089916200,9.656916259765625,-2.82515811920166,-8.751106262207031,-0.3447650372982025
1759336391099916000,9.666916015625,-3.294421434402466,-9.069535255432129,-0.4908113479614258
1759336391109917000,9.6769169921875,-3.397372245788574,-9.222764015197754,-0.6440402865409851
1759336391119917000,9.6869169921875,-3.28963303565979,-9.545981407165527,-0.849941611289978
1759336391129917000,9.6969169921875,-2.978386878967285,-9.878775596618652,-0.9720458984375
1759336391139917000,9.7069169921875,-2.734178304672241,-9.522039413452148,-0.933738648891449
1759336391149917000,9.7169169921875,-2.604891538619995,-8.679280281066895,-1.0869675874710083
1759336391159917000,9.7269169921875,-2.3080103397369385,-8.394370079040527,-1.3072341680526733
1759336391169917000,9.7369169921875,-1.8794482946395874,-8.31057357788086,-1.256955862045288
1759336391179917000,9.7469169921875,-1.290474772453308,-8.834903717041016,-0.8212111592292786
1759336391189917000,9.7569169921875,-0.8259995579719543,-8.267477989196777,-0.2968810200691223
1759336391199917000,9.7669169921875,-1.072602391242981,-8.188468933105469,-0.45489832758903503
1759336391209916200,9.776916259765626,-1.4963760375976562,-8.52605152130127,-0.8571242094039917
1759336391219916000,9.786916015625,-1.802833914756775,-8.04002857208252,-0.8140285611152649
1759336391229916200,9.796916259765625,-2.0374655723571777,-8.487744331359863,-1.158793568611145
1759336391239916000,9.806916015625,-2.229001760482788,-9.021651268005371,-1.316810965538025
1759336391249916200,9.816916259765625,-2.300827741622925,-9.234735488891602,-1.1180921792984009
1759336391259916000,9.826916015625,-2.161964178085327,-8.837297439575195,-0.727837324142456
1759336391269916200,9.836916259765625,-1.8914192914962769,-8.265083312988281,-0.33997663855552673
1759336391279916300,9.846916259765624,-1.5514427423477173,-7.5109100341796875,-0.19632454216480255
1759336391289916200,9.856916259765624,-1.1827356815338135,-7.71202278137207,-0.3519476354122162
1759336391299916300,9.866916259765626,-1.0103530883789062,-7.90355920791626,-0.768538773059845
1759336391309917000,9.8769169921875,-0.828393816947937,-8.126219749450684,-1.0414776802062988
1759336391319917000,9.8869169921875,-0.6823474764823914,-8.674491882324219,-1.2234370708465576
1759336391329917000,9.8969169921875,-0.6607996821403503,-9.74470043182373,-1.314416766166687
1759336391339917000,9.9069169921875,-0.6919242739677429,-10.07509994506836,-1.1444283723831177
1759336391349917000,9.9169169921875,-0.8643068075180054,-9.65372085571289,-1.0797849893569946
1759336391359917000,9.9269169921875,-1.1444283723831177,-8.858845710754395,-1.036689281463623
1759336391369917000,9.9369169921875,-1.2449848651885986,-8.626607894897461,-0.768538773059845
1759336391379917000,9.9469169921875,-1.3120225667953491,-9.150938034057617,-0.7374141216278076
1759336391389917000,9.9569169921875,-1.2473790645599365,-9.818920135498047,-0.8595184087753296
1759336391399917000,9.9669169921875,-1.0773907899856567,-10.29057788848877,-1.2761094570159912
1759336391409916200,9.976916259765625,-0.8523358106613159,-10.886734008789062,-1.6759412288665771
1759336391419916300,9.986916259765625,-0.7134721279144287,-10.86758041381836,-1.7070658206939697
1759336391429916200,9.996916259765625,-0.7469909191131592,-10.522815704345703,-1.6089035272598267
1759336391439916300,10.006916259765624,-0.8858546018600464,-10.549152374267578,-1.8602946996688843
1759336391449916200,10.016916259765624,-1.3646949529647827,-11.085453033447266,-2.142810583114624
1759336391459916300,10.026916259765626,-1.8794482946395874,-11.74625301361084,-2.2002713680267334
1759336391469916200,10.036916259765626,-2.1595699787139893,-12.277765274047852,-2.0614075660705566
1759336391479916300,10.046916259765625,-2.492363929748535,-12.586617469787598,-1.7812861204147339
1759336391489916200,10.056916259765625,-2.853888511657715,-12.7853364944458,-1.5083470344543457
1759336391499916300,10.066916259765625,-3.069366693496704,-13.027151107788086,-1.072602391242981
1759336391509917200,10.076917236328125,-3.0573954582214355,-13.376704216003418,-0.8762778043746948
1759336391519917000,10.0869169921875,-2.4827871322631836,-13.764564514160156,-0.8547300100326538
1759336391529917200,10.096917236328125,-1.525106430053711,-14.274529457092285,-0.993593692779541
1759336391539917000,10.1069169921875,-0.4381389021873474,-14.408605575561523,-1.479616641998291
1759336391549917200,10.116917236328124,0.35434186458587646,-14.06383991241455,-2.118868589401245
1759336391559917000,10.1269169921875,0.9217676520347595,-13.276147842407227,-2.559401512145996
1759336391569917200,10.136917236328125,1.0989385843276978,-12.349591255187988,-3.1723172664642334
1759336391579917000,10.1469169921875,0.6847416758537292,-11.662455558776855,-3.6320040225982666
1759336391589917000,10.1569169921875,0.1843535304069519,-11.109395027160645,-3.890577793121338
1759336391599917000,10.1669169921875,-0.47405192255973816,-10.755053520202637,-3.8594532012939453
1759336391609916200,10.176916259765624,-0.8882488012313843,-10.568305969238281,-3.8379054069519043
1759336391619916300,10.186916259765624,-1.161187767982483,-10.735899925231934,-3.706224203109741
1759336391629916200,10.196916259765626,-1.3024457693099976,-10.755053520202637,-3.3662476539611816
1759336391639916300,10.206916259765626,-0.9385270476341248,-10.83166790008545,-2.9161376953125
1759336391649916200,10.216916259765625,-0.22026655077934265,-10.759841918945312,-2.3127987384796143
1759336391659916300,10.226916259765625,0.3734954595565796,-10.750265121459961,-1.900996208190918
1759336391669916200,10.236916259765625,0.5722141861915588,-11.107001304626465,-1.7573440074920654
1759336391679916300,10.246916259765625,0.608127236366272,-11.602601051330566,-1.7932571172714233
1759336391689916200,10.256916259765624,0.3471592366695404,-12.706327438354492,-1.7118542194366455
1759336391699916000,10.266916015625,0.5195417404174805,-12.316072463989258,-1.1779472827911377
1759336391709917000,10.2769169921875,0.6919242739677429,-11.549928665161133,-0.3663128614425659
1759336391719917000,10.2869169921875,0.9145850539207458,-11.276988983154297,-0.10055647045373917
1759336391729917000,10.2969169921875,0.9959878921508789,-11.892298698425293,-0.5315127968788147
1759336391739917000,10.3069169921875,0.9097966551780701,-12.261006355285645,-1.113303780555725
1759336391749917000,10.3169169921875,1.0606313943862915,-10.824484825134277,-1.161187767982483
1759336391759917000,10.3269169921875,0.9002198576927185,-10.003273963928223,-1.094150185585022
1759336391769917000,10.3369169921875,0.33758243918418884,-10.642525672912598,-1.1468225717544556
1759336391779917000,10.3469169921875,-0.5003881454467773,-10.343250274658203,-0.9241618514060974
1759336391789917000,10.3569169921875,-1.094150185585022,-9.3735990524292,-0.9720458984375
1759336391799917000,10.3669169921875,-0.5985504388809204,-9.033622741699219,-1.1851298809051514
1759336391809916200,10.376916259765625,-0.49799394607543945,-9.701604843139648,-1.5322890281677246
1759336391819916300,10.386916259765625,-0.8020575642585754,-10.960954666137695,-2.5546131134033203
1759336391829916200,10.396916259765625,0.8906430602073669,-9.44303035736084,-2.4588451385498047
1759336391839916300,10.406916259765625,1.5538369417190552,-8.99052619934082,-2.0207061767578125
1759336391849916200,10.416916259765625,3.0573954582214355,-7.398382663726807,-2.276885747909546
1759336391859916300,10.426916259765624,4.388571739196777,-4.6471452713012695,-2.6862943172454834
1759336391869916200,10.436916259765624,3.0334534645080566,-5.447108268737793,-2.8419175148010254
1759336391879916300,10.446916259765626,0.6153098344802856,-5.91397762298584,-1.4772224426269531
1759336391889916200,10.456916259765626,-2.6815059185028076,-7.805397033691406,-0.2059013396501541
1759336391899916300,10.466916259765625,-3.9240965843200684,-8.123826026916504,1.2737152576446533
1759336391909917000,10.4769169921875,-2.6431987285614014,-10.613795280456543,1.745373010635376
1759336391919917000,10.4869169921875,-3.5386300086975098,-13.515567779541016,2.762908697128296
1759336391929917000,10.4969169921875,-0.08858546614646912,-10.424653053283691,3.6583402156829834
1759336391939917000,10.5069169921875,3.24414324760437,-12.66083812713623,4.60165548324585
1759336391949917000,10.5169169921875,3.4380736351013184,-14.619295120239258,4.170699596405029
1759336391959917000,10.5269169921875,1.8076223134994507,-11.188404083251953,4.079719543457031
1759336391969917200,10.536917236328126,-4.548983097076416,-9.56274127960205,3.1651346683502197
1759336391989917200,10.556917236328125,-0.4189853072166443,-9.07911205291748,2.4612393379211426
1759336391999917000,10.5669169921875,-2.6575639247894287,-5.499780654907227,2.6886885166168213
1759336392009916200,10.576916259765625,5.097554683685303,-11.56668758392334,3.1268274784088135
1759336392019916300,10.586916259765625,-2.7126305103302,-7.75751256942749,3.9217023849487305
1759336392029916200,10.596916259765624,-3.095702886581421,-10.024822235107422,3.2537200450897217
1759336392039916300,10.606916259765624,-3.6367924213409424,-8.777442932128906,2.853888511657715
1759336392049916200,10.616916259765626,-1.0797849893569946,-7.791031837463379,2.3798365592956543
1759336392059916300,10.626916259765625,3.201047658920288,-7.855675220489502,1.3934253454208374
1759336392069916200,10.636916259765625,-1.094150185585022,-10.508450508117676,1.8100165128707886
1759336392079916000,10.646916015625,-1.2186486721038818,-8.34648609161377,1.4173674583435059
1759336392089916200,10.656916259765625,2.183511972427368,-9.131784439086914,0.6727706789970398
1759336392099916000,10.666916015625,-0.42377370595932007,-9.311349868774414,1.0773907899856567
1759336392109917000,10.6769169921875,-3.976768970489502,-10.642525672912598,2.1763293743133545
1759336392119917000,10.6869169921875,-1.2330138683319092,-7.889194011688232,1.4197616577148438
1759336392129917000,10.6969169921875,0.6991068720817566,-7.826944828033447,0.014365210197865963
1759336392139917000,10.7069169921875,-0.7038952708244324,-9.759065628051758,-1.4724340438842773
1759336392149917000,10.7169169921875,-1.403002142906189,-8.966584205627441,-1.3455413579940796
1759336392159917000,10.7269169921875,0.10534487664699554,-8.269871711730957,-0.586579442024231
1759336392169917000,10.7369169921875,0.8906430602073669,-6.811803340911865,0.4668693244457245
1759336392179917000,10.7469169921875,2.094926595687866,-6.737582683563232,0.7158663272857666
1759336392189917000,10.7569169921875,-0.26336219906806946,-9.873987197875977,1.8483237028121948
1759336392199917000,10.7669169921875,0.21308395266532898,-10.802937507629395,4.393360137939453
1759336392209916200,10.776916259765626,4.3861775398254395,-10.544363975524902,4.750096321105957
1759336392219916000,10.786916015625,7.187692642211914,-9.720758438110352,4.788403511047363
1759336392229916200,10.796916259765625,8.360851287841797,-9.347262382507324,4.829104900360107
1759336392239916000,10.806916015625,8.332120895385742,-8.98813247680664,4.999392509460449
1759336392249916200,10.816916259765625,6.787860870361328,-8.734347343444824,5.044882297515869
1759336392259916000,10.826916015625,5.056853294372559,-8.588300704956055,4.790797710418701
1759336392269916200,10.836916259765625,5.983409404754639,-9.177274703979492,3.529053211212158
1759336392279916000,10.846916015625,7.539640426635742,-9.009679794311523,2.296039342880249
1759336392289916200,10.856916259765624,8.214805603027344,-8.952219009399414,1.1276689767837524
1759336392299916000,10.866916015625,7.992144584655762,-8.667309761047363,0.6200982332229614
1759336392309917000,10.8769169921875,7.364863872528076,-7.941866397857666,0.5793967843055725
1759336392319917000,10.8869169921875,6.775889873504639,-7.795820236206055,0.49799394607543945
1759336392329917000,10.8969169921875,6.704063892364502,-7.063194274902344,0.5051765441894531
1759336392339917000,10.9069169921875,7.376834869384766,-7.012916088104248,0.22505496442317963
1759336392349917000,10.9169169921875,8.154950141906738,-6.991368293762207,-0.0454898327589035
1759336392359917000,10.9269169921875,8.418312072753906,-7.522881031036377,-0.2322375625371933
1759336392369916200,10.936916259765624,8.387187957763672,-7.443872451782227,-0.09816227108240128
1759336392379916000,10.946916015625,7.956231594085693,-7.1565680503845215,0.14844051003456116
1759336392389916200,10.956916259765626,7.2212114334106445,-7.611466407775879,0.028730420395731926
1759336392399916000,10.966916015625,7.290643215179443,-6.78546667098999,-0.1388636976480484
1759336392409915400,10.976915283203125,7.522881031036377,-6.069600582122803,-0.4812345504760742
1759336392419915300,10.986915283203125,7.345710277557373,-6.6035075187683105,-0.9911994934082031
1759336392429915400,10.996915283203125,6.917148113250732,-7.206846237182617,-1.5897499322891235
1759336392439915300,11.006915283203124,6.4957685470581055,-6.929119110107422,-1.8100165128707886
1759336392449915400,11.016915283203126,6.282684326171875,-6.646603107452393,-1.9847931861877441
1759336392459915300,11.026915283203126,6.131849765777588,-5.822998046875,-2.2601263523101807
1759336392469915400,11.036915283203125,5.925948619842529,-4.687847137451172,-2.3127987384796143
1759336392479915300,11.046915283203125,6.028899192810059,-3.112462282180786,-2.2840683460235596
1759336392489915400,11.056915283203125,6.605901718139648,-2.0159177780151367,-2.315192937850952
1759336392499915300,11.066915283203125,7.173327445983887,-1.8267759084701538,-2.363077163696289
1759336392509916200,11.076916259765625,7.1781158447265625,-1.8507179021835327,-2.33913516998291
1759336392519916300,11.086916259765625,7.235576629638672,-2.142810583114624,-2.427720546722412
1759336392529916200,11.096916259765624,7.230788230895996,-2.6240451335906982,-2.5115175247192383
1759336392539916300,11.106916259765624,7.000945091247559,-2.4827871322631836,-2.4899697303771973
1759336392549916200,11.116916259765626,6.8070149421691895,-2.389413356781006,-2.4588451385498047
1759336392559916300,11.126916259765625,6.7351884841918945,-2.43011474609375,-2.43011474609375
1759336392569915400,11.136915283203125,6.3425397872924805,-2.5905263423919678,-1.6519991159439087
1759336392579915300,11.146915283203125,8.8971529006958,-3.383007049560547,1.3838485479354858
1759336392589915400,11.156915283203125,9.735123634338379,-4.194641590118408,4.577713489532471
1759336392599915300,11.166915283203124,10.240300178527832,-4.1611223220825195,5.095160484313965
1759336392609914400,11.176914306640626,9.806949615478516,-3.627215623855591,4.05817174911499
1759336392619914500,11.18691455078125,9.52922248840332,-2.626439332962036,2.4229321479797363
1759336392629914400,11.196914306640625,9.234735488891602,-1.4891934394836426,0.6799532771110535
1759336392639914500,11.20691455078125,8.789413452148438,-0.45250412821769714,-0.5027823448181152
1759336392649914400,11.216914306640625,9.014469146728516,0.2059013396501541,-1.4173674583435059
1759336392659914500,11.22691455078125,9.495702743530273,0.5051765441894531,-1.8076223134994507
1759336392669915100,11.2369150390625,9.538799285888672,0.4381389021873474,-1.558625340461731
1759336392679915300,11.246915283203125,9.543587684631348,0.10295066982507706,-0.6607996821403503
1759336392689915100,11.2569150390625,8.930671691894531,-0.28730419278144836,0.4118026793003082
1759336392699915300,11.266915283203126,8.16213321685791,-0.7182605266571045,1.3646949529647827
1759336392709916200,11.276916259765626,7.465420246124268,-1.05105459690094,1.8100165128707886
1759336392719916000,11.286916015625,7.214028835296631,-1.0127472877502441,1.9249382019042969
1759336392729916200,11.296916259765625,7.40556526184082,-0.6488286852836609,1.8507179021835327
1759336392739916000,11.306916015625,7.814973831176758,-0.08858546614646912,1.721431016921997
1759336392749916200,11.316916259765625,8.202834129333496,0.5099649429321289,1.5729905366897583
1759336392759916000,11.326916015625,8.420706748962402,1.0534487962722778,1.4867992401123047
1759336392769915100,11.3369150390625,8.538022994995117,1.3551181554794312,1.5083470344543457
1759336392779915300,11.346915283203124,8.528446197509766,1.3670891523361206,1.6615760326385498
1759336392789915400,11.356915283203126,8.516474723815918,1.316810965538025,1.8195933103561401
1759336392799915300,11.366915283203125,8.602665901184082,1.2832920551300049,1.9369091987609863
1759336392809914400,11.376914306640625,8.731952667236328,1.1994950771331787,1.98958158493042
1759336392819914500,11.38691455078125,8.851662635803223,1.0989385843276978,2.008735179901123
1759336392829914400,11.396914306640625,8.952219009399414,1.0031704902648926,2.0231003761291504
1759336392839914500,11.40691455078125,8.973767280578613,1.0007762908935547,2.0039467811584473
1759336392849914400,11.416914306640624,9.004891395568848,1.1468225717544556,1.9393033981323242
1759336392859914500,11.42691455078125,9.074323654174805,1.4053963422775269,1.7956513166427612
1759336392869915400,11.436915283203126,9.220370292663574,1.6184803247451782,1.6974890232086182
1759336392879915300,11.446915283203126,9.31613826751709,1.7262194156646729,1.6927006244659424
1759336392889915400,11.456915283203125,9.306561470031738,1.6759412288665771,1.7764976024627686
1759336392899915300,11.466915283203125,9.296984672546387,1.556231141090393,1.8195933103561401
1759336392909916200,11.476916259765625,9.364022254943848,1.3742717504501343,1.802833914756775
1759336392919916300,11.486916259765625,9.423876762390137,1.2186486721038818,1.7118542194366455
1759336392929916200,11.496916259765625,9.464578628540039,1.1683704853057861,1.6280571222305298
1759336392939916300,11.506916259765624,9.47654914855957,1.2545616626739502,1.5634137392044067
1759336392949916200,11.516916259765624,9.493309020996094,1.5203180313110352,1.4389152526855469
1759336392959916300,11.526916259765626,9.569923400878906,1.8986018896102905,1.3072341680526733
1759336392969916200,11.536916259765626,9.65611457824707,2.255337953567505,1.2617442607879639
1759336392999916300,11.566916259765625,9.663297653198242,2.365471363067627,1.3886369466781616
1759336393009915400,11.576915283203125,9.634567260742188,2.2673089504241943,1.3982137441635132
1759336393019915300,11.586915283203124,9.603442192077637,2.276885747909546,1.3646949529647827
1759336393029915400,11.596915283203124,9.56274127960205,2.427720546722412,1.314416766166687
1759336393039915300,11.606915283203126,9.534010887145996,2.652775526046753,1.216254472732544
1759336393049915400,11.616915283203125,9.555558204650879,2.829946517944336,1.161187767982483
1759336393059915300,11.626915283203125,9.567529678344727,2.9233202934265137,1.170764684677124
1759336393069916200,11.636916259765625,9.519645690917969,2.942473888397217,1.2282254695892334
1759336393079916000,11.646916015625,9.431059837341309,2.9328970909118652,1.2832920551300049
1759336393089916200,11.656916259765625,9.356839179992676,2.920926094055176,1.335964560508728
1759336393099916000,11.666916015625,9.256282806396484,2.9664158821105957,1.2737152576446533
1759336393109917000,11.6769169921875,9.172486305236816,3.0526070594787598,1.1994950771331787
1759336393119917000,11.6869169921875,9.081506729125977,3.1866824626922607,1.1228805780410767
1759336393129917000,11.6969169921875,9.04559326171875,3.28963303565979,1.115697979927063
1759336393139917000,11.7069169921875,9.016862869262695,3.3518824577331543,1.1204863786697388
1759336393149917000,11.7169169921875,9.000102996826172,3.3638534545898438,1.115697979927063
1759336393159917000,11.7269169921875,8.985737800598145,3.3710360527038574,1.091755986213684
1759336393169917000,11.7369169921875,8.959402084350586,3.3901896476745605,1.0462661981582642
1759336393179917000,11.7469169921875,8.942642211914062,3.512293815612793,1.0055646896362305
1759336393189917000,11.7569169921875,8.894758224487305,3.5889084339141846,0.8667010068893433
1759336393199917000,11.7669169921875,8.889969825744629,3.670311212539673,0.7493851184844971
1759336393209916200,11.776916259765626,8.851662635803223,3.845088005065918,0.6416460275650024
1759336393219916000,11.786916015625,8.815750122070312,4.02465295791626,0.629675030708313
1759336393229916200,11.796916259765625,8.758289337158203,4.1874589920043945,0.629675030708313
1759336393239916000,11.806916015625,8.724770545959473,4.299986362457275,0.6224924325942993
1759336393249916200,11.816916259765625,8.731952667236328,4.338293552398682,0.6248866319656372
1759336393259916000,11.826916015625,8.77265453338623,4.278438568115234,0.6727706789970398
1759336393269916200,11.836916259765625,8.820538520812988,4.122815132141113,0.7134721279144287
1759336393279916300,11.846916259765624,8.894758224487305,3.9217023849487305,0.7469909191131592
1759336393289916200,11.856916259765624,8.966584205627441,3.7229835987091064,0.7852981686592102
1759336393299916300,11.866916259765626,9.031228065490723,3.552995204925537,0.8259995579719543
1759336393309917000,11.8769169921875,9.093477249145508,3.442862033843994,0.849941611289978
1759336393319917000,11.8869169921875,9.148544311523438,3.40216064453125,0.8619126081466675
1759336393329917000,11.8969169921875,9.186851501464844,3.4117374420166016,0.8595184087753296
1759336393339917000,11.9069169921875,9.1940336227417,3.464409828186035,0.8331822156906128
1759336393349917000,11.9169169921875,9.189245223999023,3.555389642715454,0.7876923680305481
1759336393359917000,11.9269169921875,9.189245223999023,3.6559460163116455,0.7398083209991455
1759336393369917000,11.9369169921875,9.208398818969727,3.7397429943084717,0.7110779285430908
1759336393379917000,11.9469169921875,9.22755241394043,3.7828385829925537,0.6727706789970398
1759336393389917000,11.9569169921875,9.241917610168457,3.7828385829925537,0.6392518281936646
1759336393399917000,11.9669169921875,9.237129211425781,3.773261785507202,0.6153098344802856
1759336393409916200,11.976916259765625,9.210793495178223,3.7660791873931885,0.6057330369949341
1759336393419916000,11.986916015625,9.182063102722168,3.756502389907837,0.5961562395095825
1759336393429916200,11.996916259765625,9.124602317810059,3.734954595565796,0.5793967843055725
1759336393439916000,12.006916015625,9.062353134155273,3.687070608139038,0.586579442024231
1759336393449916200,12.016916259765624,9.038411140441895,3.6990416049957275,0.6105214357376099
1759336393459916000,12.026916015625,9.04559326171875,3.7253777980804443,0.6272808313369751
1759336393469916200,12.036916259765626,9.059958457946777,3.7229835987091064,0.6344634294509888
1759336393479916000,12.046916015625,9.036016464233398,3.6774938106536865,0.6440402865409851
1759336393489916200,12.056916259765625,8.995314598083496,3.6104562282562256,0.6775590777397156
1759336393499916000,12.066916015625,8.966584205627441,3.5745432376861572,0.7086837291717529
1759336393509917000,12.0769169921875,8.964190483093262,3.5649664402008057,0.7158663272857666
1759336393519917000,12.0869169921875,8.976161003112793,3.5721490383148193,0.706289529800415
1759336393529917000,12.0969169921875,8.983344078063965,3.581725835800171,0.7134721279144287
1759336393539917000,12.1069169921875,8.978555679321289,3.581725835800171,0.7326257228851318
1759336393549917000,12.1169169921875,8.98813247680664,3.579331636428833,0.730231523513794
1759336393559917000,12.1269169921875,9.038411140441895,3.5721490383148193,0.7110779285430908
1759336393569917000,12.1369169921875,9.088688850402832,3.529053211212158,0.7134721279144287
1759336393579917000,12.1469169921875,9.122207641601562,3.4787750244140625,0.7398083209991455
1759336393589917000,12.1569169921875,9.124602317810059,3.4404678344726562,0.7829039692878723
1759336393599917000,12.1669169921875,9.107842445373535,3.397372245788574,0.8331822156906128
1759336393609916200,12.176916259765624,9.095871925354004,3.361459255218506,0.8667010068893433
1759336393619916000,12.186916015625,9.074323654174805,3.35667085647583,0.8762778043746948
1759336393629916200,12.196916259765626,9.052776336669922,3.378218650817871,0.8643068075180054
1759336393639916000,12.206916015625,9.0767183303833,3.40216064453125,0.8403648138046265
1759336393649916200,12.216916259765625,9.115025520324707,3.4141316413879395,0.811634361743927
1759336393659916000,12.226916015625,9.13657283782959,3.4380736351013184,0.7924807667732239
1759336393669916200,12.236916259765625,9.148544311523438,3.485957622528076,0.7637503147125244
1759336393679916000,12.246916015625,9.146149635314941,3.5482068061828613,0.7206547260284424
1759336393689916200,12.256916259765624,9.129390716552734,3.6104562282562256,0.6967126727104187
1759336393699916000,12.266916015625,9.112630844116211,3.6750996112823486,0.6847416758537292
1759336393709917000,12.2769169921875,9.074323654174805,3.7253777980804443,0.6847416758537292
1759336393719917000,12.2869169921875,8.983344078063965,3.6774938106536865,0.7015010714530945
1759336393729917000,12.2969169921875,8.933065414428711,3.6367924213409424,0.7445967197418213
1759336393739917000,12.3069169921875,8.880393028259277,3.6152446269989014,0.7661445140838623
1759336393749917000,12.3169169921875,8.825326919555664,3.550601005554199,0.7852981686592102
1759336393759917000,12.3269169921875,8.787019729614258,3.4955344200134277,0.7876923680305481
1759336393769917000,12.3369169921875,8.77504825592041,3.4763808250427246,0.7709329724311829
1759336393779917000,12.3469169921875,8.77504825592041,3.514688014984131,0.730231523513794
1759336393789917000,12.3569169921875,8.760683059692383,3.5960910320281982,0.7015010714530945
1759336393799917000,12.3669169921875,8.734347343444824,3.6774938106536865,0.689530074596405
1759336393809916200,12.376916259765625,8.703222274780273,3.754108190536499,0.6751648783683777
1759336393819916300,12.386916259765625,8.662521362304688,3.7397429943084717,0.6368576288223267
1759336393829916200,12.396916259765625,8.652944564819336,3.8067808151245117,0.5626373887062073
1759336393839916000,12.406916015625,8.731952667236328,3.8714241981506348,0.5147533416748047
1759336393849916200,12.416916259765625,8.839692115783691,3.9863457679748535,0.4213795065879822
1759336393859916300,12.426916259765624,8.95461368560791,4.110844135284424,0.33758243918418884
1759336393869916200,12.436916259765624,9.007286071777344,4.235342979431152,0.2801215946674347
1759336393879916000,12.446916015625,8.98813247680664,4.359841346740723,0.24420857429504395
1759336393889916200,12.456916259765626,8.937853813171387,4.49870491027832,0.2082955539226532
1759336393899916300,12.466916259765625,8.873210906982422,4.63517427444458,0.16998831927776337
1759336393909917000,12.4769169921875,8.79659652709961,4.778826713562012,0.15083470940589905
1759336393919917000,12.4869169921875,8.729558944702148,4.9060187339782715,0.14604631066322327
1759336393929917000,12.4969169921875,8.672098159790039,4.980238914489746,0.14604631066322327
1759336393939917000,12.5069169921875,8.612242698669434,4.996998310089111,0.1412578970193863
1759336393949917000,12.5169169921875,8.597877502441406,4.973056316375732,0.11252748221158981
1759336393959917000,12.5269169921875,8.629002571105957,4.932354927062988,0.07900865375995636
1759336393969917000,12.5369169921875,8.70561695098877,4.8602294921875,0.047884032130241394
1759336393979917000,12.5469169921875,8.787019729614258,4.76924991607666,0.028730420395731926
1759336393989917000,12.5569169921875,8.842085838317871,4.6734819412231445,0.033518824726343155
1759336393999917000,12.5669169921875,8.856451034545898,4.568136692047119,0.06703764945268631
1759336394009916200,12.576916259765625,8.839692115783691,4.4723687171936035,0.10773907601833344
1759336394019916300,12.586916259765625,8.822932243347168,4.400542736053467,0.13168109953403473
1759336394029916400,12.59691650390625,8.813355445861816,4.359841346740723,0.14844051003456116
1759336394039916300,12.606916259765624,8.801384925842285,4.323928356170654,0.15562310814857483
1759336394049916400,12.61691650390625,8.767866134643555,4.314351558685303,0.15562310814857483
1759336394069916200,12.636916259765625,8.784625053405762,4.481945514678955,0.10773907601833344
1759336394079916300,12.646916259765625,8.787019729614258,4.60165548324585,0.06703764945268631
1759336394089916200,12.656916259765625,8.710405349731445,4.699818134307861,0.047884032130241394
1759336394099916300,12.666916259765625,8.65054988861084,4.774038314819336,0.026336219161748886
1759336394109917200,12.676917236328125,8.61463737487793,4.821922302246094,-0.009576806798577309
1759336394119917000,12.6869169921875,8.602665901184082,4.853046894073486,-0.038307227194309235
1759336394129917000,12.6969169921875,8.59308910369873,4.874594688415527,-0.047884032130241394
1759336394139917000,12.7069169921875,8.549993515014648,4.857835292816162,-0.011971008032560349
1759336394149917200,12.716917236328126,8.447042465209961,4.788403511047363,0.035913024097681046
1759336394159917000,12.7269169921875,8.391976356506348,4.733336925506592,0.047884032130241394
1759336394169917000,12.7369169921875,8.408735275268555,4.697423934936523,0.014365210197865963
1759336394179917000,12.7469169921875,8.459013938903809,4.6950297355651855,-0.05506663769483566
1759336394189917200,12.756917236328125,8.549993515014648,4.721365928649902,-0.1173158809542656
1759336394199917000,12.7669169921875,8.626607894897461,4.750096321105957,-0.16519992053508759
1759336394209916200,12.776916259765626,8.660126686096191,4.766855716705322,-0.19153612852096558
1759336394219916300,12.786916259765626,8.676886558532715,4.7836151123046875,-0.20111294090747833
