time,seconds_elapsed,z,y,x
1759158616638895600,0.0408955078125,-0.16552490872144698,-0.013971242207288742,-0.12887684754282236
1759158616648954400,0.050954345703125,-0.15538140810877082,0.0702004944294691,-0.08456000530198216
1759158616659012600,0.0610126953125,-0.13602642703652382,0.14462299046814442,-0.015029957479983567
1759158616669071400,0.0710712890625,-0.2290447563432157,0.1411813255816698,-0.036587417032569645
1759158616679130600,0.081130615234375,-0.27371640337109565,0.09825812965631485,-0.06913242680653929
1759158616689188600,0.091188720703125,-0.20048034063801168,0.020014614024758338,-0.2398078501589596
1759158616699247400,0.101247314453125,-0.21445304415002464,-0.13814999506175518,-0.19411182851940392
1759158616709306400,0.111306396484375,-0.19202464698180555,-0.055662850511074065,0.11302709811255335
1759158616719364400,0.1213642578125,-0.0748288848824799,-0.050307460957765573,0.1759780598051846
1759158616729423600,0.131423583984375,-0.04973886728957295,-0.018690671944618223,0.3070151541218161
1759158616739482400,0.141482421875,-0.14136311188936232,-0.016337386816740036,0.21272899683639407
1759158616749540400,0.151540283203125,-0.20343831366077064,0.015423779103159903,0.09903159824684261
1759158616759599400,0.161599365234375,-0.12821604554653168,0.03126315326988697,-0.06845087428316474
1759158616769658400,0.171658447265625,0.024180501532554625,0.00663315440416336,-0.22707141044363377
1759158616779717400,0.18171728515625,0.158570267277956,-0.025817747345566747,-0.24392463782802223
1759158616789775400,0.191775390625,0.17257877275571226,-0.0014846855998039245,-0.1379145788706839
1759158616799834400,0.20183447265625,0.05796762032210827,0.019683190113306045,-0.021056232032179833
1759158616809893400,0.211893310546875,-0.11061024622917175,0.003359247300028801,0.1331552555143833
1759158616819951600,0.22195166015625,-0.225794376245141,-0.011581132200360297,0.1567806073822081
1759158616830010400,0.23201025390625,-0.246955676086992,-0.012221183669567107,0.02640636088848114
1759158616840069600,0.242069580078125,-0.25445816067159177,-0.013786533290147781,-0.10148805148825049
1759158616850128400,0.25212841796875,-0.23835925878584382,0.012671850046515463,-0.1717993128158152
1759158616860186400,0.262186279296875,-0.17939561316370964,0.027962942680716512,-0.11911591650694608
1759158616870245400,0.272245361328125,-0.05448270081579685,0.06598258447349072,0.039984658255428074
1759158616880304400,0.282304443359375,-0.013565145624428987,0.041133389899134634,0.05815875898003578
1759158616890362600,0.292362548828125,-0.016288286978006362,-0.02315641918182373,0.12069821726232767
1759158616900421400,0.30242138671875,-0.0553572916932404,-0.06643792702555656,0.09247516234070062
1759158616910480400,0.31248046875,-0.12725582221224904,-0.10212240386903286,0.020043693988770244
1759158616920538400,0.322538330078125,-0.09547945872321724,-0.02289104624390602,-0.04295768271684646
1759158616930597600,0.33259765625,-0.07934007869660854,0.019741057780385016,-0.043256811793893575
1759158616940656400,0.342656494140625,-0.18360475529134274,0.027401217144727704,-0.09607815526872873
1759158616950715600,0.352715576171875,-0.25010873329043387,0.04744447274208068,-0.035480332573503255
1759158616960773400,0.3627734375,-0.18694544402137397,0.11360884352326392,0.06422171228080988
1759158616970832400,0.372832275390625,-0.12799991857782006,0.11499006874859333,0.09883110723868012
1759158616980891400,0.382891357421875,-0.12406944726109503,0.031384733822941775,0.04330722680687904
1759158616990950400,0.392950439453125,-0.09377090123966336,-0.02575578802525997,-0.045446138531714676
1759158617001008400,0.40300830078125,0.025794220339506863,-0.03438040850758552,-0.05887772090435028
1759158617011067400,0.4130673828125,0.04317570938169956,-0.037414661636948586,-0.1263496671527624
1759158617021126400,0.42312646484375,0.026238603106141088,-0.04630523957908153,-0.08999152883142232
1759158617031184400,0.433184326171875,-0.02959258970916271,0.03587970715463161,-0.02487681323364377
1759158617041243600,0.44324365234375,-0.12229907658770679,0.08763970500826836,0.08771306250542402
1759158617051302400,0.453302490234375,-0.2121265008985996,0.028862521868944165,0.10657339192852378
1759158617061361700,0.463361572265625,-0.24767478414177893,-0.03887830444872379,-0.0037255963943898674
1759158617071419400,0.47341943359375,-0.21375965505838393,-0.06324526846408844,-0.09459536936506628
1759158617081478400,0.483478515625,-0.09028335138484835,-0.04389759391546249,-0.1031286583021283
1759158617091537400,0.493537353515625,0.06096972474753856,-0.004451718711853027,-0.04639569434151053
1759158617101596400,0.503596435546875,0.08692585765048862,0.05256429997384548,0.003897884221374988
1759158617111654400,0.513654296875,0.0007813596360385417,0.07824877632856368,0.026080051543563604
1759158617121713400,0.52371337890625,-0.09286313874498009,0.11040741713345051,0.08791969099342822
1759158617131772400,0.5337724609375,-0.18076456342935562,0.04322305565476417,0.07328662387654185
1759158617141831400,0.54383154296875,-0.1882708474062383,-0.05111117855608463,0.06424407024309038
1759158617151889400,0.553889404296875,-0.16348273536935448,-0.07400047123432159,0.03490735499113798
1759158617161948400,0.563948486328125,-0.11475216833949088,-0.10077917256653308,-0.04692307921648025
1759158617172007400,0.57400732421875,-0.07830386751666664,-0.08929974717497825,-0.09663578915148972
1759158617182066400,0.58406640625,-0.09261647050753236,-0.02211070952117443,-0.08243161497116089
1759158617192124400,0.59412451171875,-0.12895035117045045,0.0708411304205656,-0.012489625347405671
1759158617202183400,0.604183349609375,-0.16044424445629119,0.09291618410646915,0.008173515713959932
1759158617212242400,0.614242431640625,-0.150313895586133,0.08359715161919594,0.061467152875661846
1759158617222301400,0.624301513671875,-0.09445873737335204,0.04164250846505165,0.05277648141980171
1759158617232359400,0.634359375,-0.02836392469704151,-0.008186229065060615,0.011962971124798058
1759158617242418400,0.64441845703125,-0.007702244940400123,-0.06774257988333701,-0.08617606219649314
1759158617252477400,0.6544775390625,0.007432195827364921,-0.0775906046807766,-0.11662658390924334
1759158617262536400,0.664536376953125,-0.03453472228646278,-0.04744038108885288,-0.10449673178493976
1759158617272594400,0.674594482421875,-0.09213058668673038,0.019718845948576928,-0.06807151957675814
1759158617282653400,0.6846533203125,-0.19912483437582848,0.07540975351035595,0.030659196027368305
1759158617292712400,0.69471240234375,-0.20432474110648036,0.10739186870455741,0.062128977785259484
1759158617302771500,0.704771484375,-0.17693769861757755,0.05826105031073093,-0.006468319231271743
1759158617312829400,0.714829345703125,-0.12356617391407489,0.01113572652041912,-0.04181874181479216
1759158617322888400,0.724888427734375,-0.0784662184715271,-0.06444236929416657,-0.12055150226801634
1759158617332947500,0.734947509765625,-0.04431099702194333,-0.08597557118833064,-0.13513093950152397
1759158617343006500,0.74500634765625,-0.0026842706479132173,-0.051181905704736706,-0.10161080108508468
1759158617353064400,0.755064453125,0.049012014319747686,-0.032166824111342425,-0.03811725694835186
1759158617363123500,0.76512353515625,0.00675122782588005,-0.003277414235472679,0.010449790082871913
1759158617373182500,0.775182373046875,-0.047926264909654855,0.05214169064760208,0.034315964969247575
1759158617383241500,0.785241455078125,-0.0867543004758656,0.03804594527781009,0.0004259703271090984
1759158617393299500,0.795299560546875,-0.10883388420641421,-0.024302082085609435,-0.03500745436474681
1759158617403358500,0.8053583984375,-0.14609481658637521,-0.09848375510573387,-0.07041063004881143
1759158617413417200,0.815417236328125,-0.1933832219839096,-0.10861001232266425,-0.06540405393317342
1759158617423476500,0.8254765625,-0.21707783969566224,-0.034411388167738914,-0.028558716616779563
1759158617433535200,0.83553515625,-0.21464739767834543,0.007977554750442505,0.07165697684809565
1759158617443593500,0.845593505859375,-0.15785831961631774,0.08955518324077129,0.2054234961286187
1759158617453652500,0.855652587890625,-0.09886953955292702,0.1314525432497263,0.14294614329710603
1759158617463711500,0.86571142578125,-0.03847323077917099,0.04287818773984909,0.00013195581659674645
1759158617473770500,0.8757705078125,-0.0255845231115818,-0.05562719467580318,-0.1348630823455751
1759158617483828500,0.885828369140625,0.007532149070501327,-0.14196984561085702,-0.19703794509917497
1759158617493887500,0.895887451171875,0.02686915609464049,-0.13092588902711869,-0.14544161337465047
1759158617503946500,0.905946533203125,-0.006046294426918029,-0.01735971560180187,0.012463906384259461
1759158617514005500,0.916005615234375,-0.11239128442704677,0.07737374705970287,0.12441489969789982
1759158617524064500,0.926064453125,-0.22751345512270926,0.11521569419801235,0.08903729684650898
1759158617534122500,0.93612255859375,-0.24285072498619556,0.08949731557369231,-0.010696458320319652
1759158617544182000,0.94618212890625,-0.1816318477831781,0.046446109354496,-0.12943798855692148
1759158617554241000,0.956240966796875,-0.1378119952790439,0.0015326163947582245,-0.1903514530725777
1759158617564300000,0.966300048828125,-0.09218377817869186,-0.04344692753851413,-0.20620704772174356
1759158617574358000,0.97635791015625,-0.012676380091160535,-0.06347030939161777,-0.15241612856239078
1759158617584417000,0.9864169921875,-0.025861586487293243,-0.0377232891947031,-0.044350598379969595
1759158617594476000,0.99647607421875,-0.10486614961922168,-0.007230535775423049,0.03391761330142617
1759158617604535000,1.00653515625,-0.15068740507364273,0.022794600132107733,0.02461260933950543
1759158617614594000,1.016593994140625,-0.17591069365739823,0.0546545502513647,0.02026318195834756
1759158617624652000,1.026652099609375,-0.15856500658094883,0.0709065968722105,-0.013378244750201702
1759158617634711000,1.0367109375,-0.11592647281587123,0.050721302455663676,-0.029468524938076734
1759158617644769800,1.046769775390625,-0.06122384563907981,-0.009756839382648468,0.009466770394891499
1759158617654829000,1.0568291015625,-0.07269172672331332,-0.04691138877868652,0.0039300329253077505
1759158617664887800,1.0668876953125,-0.08058861745297909,-0.04063596177101135,-0.006759411132335662
1759158617674946000,1.076946044921875,-0.10664017355442046,-0.05884323411285877,0.03156798143535852
1759158617685005000,1.087005126953125,-0.13527005571126938,-0.0218722245901823,0.0948708253055811
1759158617695064000,1.09706396484375,-0.12274316709339618,0.03794423846900463,0.06955094447955489
1759158617705123000,1.107123046875,-0.006875730988383293,-0.019082301610708237,-0.20853855940923094
1759158617715182000,1.11718212890625,-0.1719727696865797,-0.11207856521606445,-0.03731880004703998
1759158617725240000,1.127239990234375,-0.14789572852849958,0.13177227672338485,0.21069486066028476
1759158617735299000,1.137299072265625,-0.10236673401892185,0.060468204966187475,0.05290010779947042
1759158617745358000,1.147358154296875,-0.061566375466436146,0.06168050336539745,0.04196998685374856
1759158617755417000,1.1574169921875,-0.13098857899978755,0.07829904521107674,-0.0177244572609663
1759158617765476000,1.16747607421875,-0.19967618464827536,0.09365852690637111,-0.03199614371955395
1759158617775535000,1.17753515625,-0.1988461635649204,0.09413900389969349,-0.04269011782184243
1759158617785593000,1.187593017578125,-0.14293679094687103,0.0935977366298437,-0.04945858904346823
1759158617795651800,1.19765185546875,-0.10262173169329762,0.0806879861742258,-0.05764964041411876
1759158617805711000,1.207711181640625,-0.10032689875438809,0.06469605179429054,-0.057470484454929825
1759158617815769900,1.217769775390625,-0.058222471866011614,0.049427755513787267,-0.00767798728197813
1759158617825829000,1.2278291015625,-0.13629355354011058,-0.30000118370652196,-0.06609028263166547
1759158617835886800,1.237886962890625,-0.2939573734976351,-0.4461866011857986,0.220347655146569
1759158617845946000,1.247946044921875,-0.23320976706817745,-0.06973463048338889,0.38368046065121886
1759158617856004900,1.2580048828125,-0.19668883940055965,-0.11884440608918666,0.33261326736733315
1759158617866064100,1.268064208984375,-0.039461072772741315,0.005118073666095733,0.2716302447468042
1759158617876123000,1.278122802734375,-0.092400781930238,-0.1479004047036171,0.08545037827044726
1759158617886182100,1.28818212890625,-0.20446064244583248,-0.21163082633614538,0.21163111859709025
1759158617896239900,1.298239990234375,-0.2083101574808359,-0.3907838629156351,0.31396102773696183
1759158617906299100,1.308299072265625,-0.31615517678037286,-0.47094051869213577,0.1446478326484561
1759158617916358000,1.31835791015625,-0.3851525790303945,-0.47804538226127624,0.026655367213487623
1759158617926417200,1.328417236328125,-0.43279637373685836,-0.029030279651284217,0.004701017297804355
1759158617936476000,1.338475830078125,-0.7683528549492359,2.6240450195312497,-0.3051649962104857
1759158617946534000,1.348533935546875,-0.9298371099777519,2.631708101505041,-1.1224619148097932
1759158617956593200,1.35859326171875,-1.093829840695858,1.6780536242187023,-1.2184230195701122
1759158617966652000,1.36865185546875,-0.9991150827348232,1.8567898966908454,-1.3759411474466323
1759158617976711000,1.3787109375,-0.6933489057607949,1.8250339914679525,-1.4653123524226248
1759158617986770000,1.38877001953125,-0.28645138178169727,1.4174977311939,-1.4682849384926258
1759158617996829000,1.398828857421875,-0.009034333794377744,0.7382727739840745,-1.507086086051911
1759158618006888000,1.408887939453125,0.32841829989552496,-0.16044307541251182,-1.5162437904976307
1759158618016946200,1.4189462890625,0.6984165644139051,-0.9885153627872466,-1.5247423003822564
1759158618027005000,1.4290048828125,1.0157564209342003,-1.5721856040805577,-1.4724118091642855
1759158618037064200,1.439064208984375,1.4252613509327172,-1.9011323117643593,-1.1514096307441593
1759158618047123000,1.449123046875,1.9075451014161109,-1.9646727637827395,-0.6182917650803923
1759158618057182000,1.459181884765625,2.178403192746639,-1.7947423135787248,-0.155263626947999
1759158618067241000,1.469240966796875,1.9826012191832065,-1.3397323544681072,0.2805763522684574
1759158618077299200,1.47929931640625,1.343719962799549,-0.8560013277858495,0.7297475222229958
1759158618087358000,1.48935791015625,0.358381476482749,0.003356324690580368,1.124707940170914
1759158618097417200,1.499417236328125,-0.38130642499625683,0.6132856273561715,1.2941696038194
1759158618107476000,1.50947607421875,-0.7853203563630581,0.7921405577719212,1.0034441979803144
1759158618117535200,1.51953515625,-0.8419955987870693,0.7492571093350648,0.47907253335192795
1759158618127594000,1.529593994140625,-0.6507569876164198,0.5569722039818763,0.1474503228485584
1759158618137653000,1.539653076171875,-0.40170097824931145,0.5161275678962469,0.0562571631424129
1759158618147711000,1.5497109375,-0.07139700617108027,0.4225438597917556,0.11070581555813551
1759158618157770000,1.55977001953125,0.2557131109024398,0.1894265933126211,0.34345015707165
1759158618167829000,1.5698291015625,0.5708849940001964,-0.03450432714819908,0.6101384153716266
1759158618177888000,1.579887939453125,0.9092962801218032,-0.3794377085149288,0.862211726733297
1759158618187947000,1.589947021484375,1.071190138864517,-0.6549532702624797,1.1196002417683601
1759158618198006000,1.600006103515625,1.024399161595106,-0.7982593329131603,1.349636639497429
1759158618208065000,1.61006494140625,0.7802373540103436,-0.7032815401017666,1.3807450405970214
1759158618218124000,1.6201240234375,0.4220540669808164,-0.4130103077709675,1.3697285565420985
1759158618228182000,1.63018212890625,0.22191958063840864,-0.0007364975810050964,1.3284407067336141
1759158618238241000,1.640240966796875,0.21982695574071257,0.19851415513157844,1.1964300912097097
1759158618248300000,1.650300048828125,0.24448676522281018,0.32136779686212535,0.9553497368969023
1759158618258359000,1.660359130859375,0.26816578350663184,0.397815076726675,0.7559021003074944
1759158618268418000,1.67041796875,0.34080198065042494,0.3645160337150097,0.6387843718804419
1759158618278477000,1.68047705078125,0.43272381995730097,0.26590076118409633,0.5852561953105032
1759158618288536000,1.6905361328125,0.5403005071768537,0.1345621997028589,0.511349101448059
1759158618298595000,1.700594970703125,0.6093195732694119,0.05164718512892723,0.38379590372443195
1759158618308653000,1.710653076171875,0.5666027866363526,-0.03901449804902077,0.2438555181145668
1759158618318712000,1.720712158203125,0.4934872084777802,-0.08069792304635047,0.051510114745795726
1759158618328771000,1.73077099609375,0.4396703511595726,-0.025406243935227394,-0.16548822997286916
1759158618338830000,1.740830078125,0.3362976549685001,0.10921791508793831,-0.3675838968530297
1759158618348889000,1.75088916015625,0.20349661971926689,0.23636603914201257,-0.47709582645148035
1759158618358948000,1.760947998046875,0.09193477185368537,0.26216215917766095,-0.5121772228352726
1759158618369007000,1.771007080078125,0.07138064412474632,0.2109504428565502,-0.5871659744545817
1759158618379066000,1.781066162109375,0.07861592914052307,0.1946814451009035,-0.6129524498790502
1759158618389123800,1.791123779296875,0.13157595043368636,0.23821838901042935,-0.5771266648687422
1759158618399183000,1.80118310546875,0.23714988299608228,0.21122575266659258,-0.5240618680268526
1759158618409241900,1.811241943359375,0.4457191298045218,0.02962883006632328,-0.4812282500810921
1759158618419301000,1.821301025390625,0.702984676047042,-0.058636897885799406,-0.399138288154453
1759158618429359900,1.83135986328125,0.8442015843987465,0.02153378641605377,-0.2865210860170424
1759158618439419100,1.841419189453125,0.849753519437462,0.04730944818556308,-0.20953297727406023
1759158618449478000,1.851477783203125,0.7695464486479758,-0.011883914539217949,-0.1673201215751469
1759158618459537200,1.861537109375,0.6555833848595619,-0.00011047463715076445,-0.1736868801280856
1759158618469596000,1.871595947265625,0.447835025979951,-0.049368134281039235,-0.19018033428937195
1759158618479655000,1.881655029296875,0.18922376421689985,-0.2159960358083248,-0.20618118262812493
1759158618489713000,1.891712890625,-0.019532237335294484,-0.2671779415130615,-0.26680282459035515
1759158618499772200,1.901772216796875,-0.2112333514511585,-0.03148117993474007,-0.3914879195317626
1759158618509831000,1.911830810546875,-0.5162824661970138,0.04122574435770512,-0.5426799131266773
1759158618519890200,1.92189013671875,-0.7562227836292237,-0.09975801282525062,-0.7055318032465875
1759158618529949000,1.931948974609375,-0.8722105581782758,-0.10240063628852367,-1.0746968318112193
1759158618540008200,1.94200830078125,-0.9491698792181908,-0.13683482080996034,-1.5407394954591989
1759158618550066700,1.952066650390625,-0.9332721989929675,-0.339796603000164,-2.008076144440472
1759158618560125700,1.962125732421875,-0.7550479676961899,-0.42411271654367444,-2.4151005096696316
1759158618570184700,1.972184814453125,-0.3892109145104885,-0.5211556251913309,-2.7012974782988426
1759158618580243700,1.98224365234375,-0.030247984877973793,-0.493739794999361,-2.7821868322640655
1759158618590302700,1.992302734375,0.1569466115988791,-0.4771311900258064,-2.7387995259582993
1759158618600360700,2.002360595703125,0.19935484373942017,-0.5416588995158672,-2.6651462607264516
1759158618610419700,2.012419677734375,0.16796119595766065,-0.5013222129523753,-2.417294804843515
1759158618620478700,2.022478759765625,0.5294342087149619,-0.3384510336101055,-1.997333508890867
1759158618630537700,2.032537841796875,1.120883851838112,-0.35772388935685157,-1.6523182944595813
1759158618640596700,2.0425966796875,2.0076561654627323,-0.3798234929621219,-1.020998559371382
1759158618650655700,2.05265576171875,2.769082436019182,-0.209721777844429,-0.2772818407677114
1759158618660714800,2.06271484375,2.7208687324702736,-0.17428981445729733,-0.07668912579640745
1759158618670773800,2.072773681640625,2.5965833043709394,0.0202121824234724,0.09276377002373337
1759158618680832500,2.08283251953125,2.4448548658117653,0.15177987648546695,0.039554450144618745
1759158618690891800,2.092891845703125,2.2403217426516115,0.26211189029514786,-0.2951899840325117
1759158618700950500,2.102950439453125,1.942414316353947,0.18036708854436873,-0.7880293230608105
1759158618711009800,2.113009765625,1.5413840769730507,-0.11260580396056175,-1.5366082408733666
1759158618721067800,2.12306787109375,1.3069092584051192,-0.32712475295364857,-2.1548038521029054
1759158618731126500,2.13312646484375,0.8705890944562852,-0.6197054312705993,-2.766217401976883
1759158618741185800,2.143185791015625,0.3255928672112524,-0.8823498210072517,-3.472767588485777
1759158618751244500,2.15324462890625,0.2346535361357033,-0.9711018711715936,-3.8417385557830332
1759158618761303600,2.163303466796875,0.6651509852804243,-0.8542337335914373,-3.674517364537716
1759158618771362600,2.173362548828125,0.91850147697106,-0.8556652276992798,-3.584692132183909
1759158618781421600,2.183421630859375,0.9702642513036728,-0.9478227023929356,-3.469939963844418
1759158618791480600,2.19348046875,1.147537027094513,-0.9012403994381427,-3.0574843673467633
1759158618801539600,2.20353955078125,1.2375859852015971,-0.6528273641496897,-2.5989292829751967
1759158618811598600,2.2135986328125,1.4627039234898984,-0.47463761964440343,-2.3469985949546097
1759158618821657600,2.22365771484375,1.9243555125720797,-0.29388416213095186,-2.146754839551449
1759158618831716600,2.233716552734375,1.7954536767184732,-0.037131753042340274,-2.386582563454658
1759158618841775600,2.243775634765625,1.2269734057724475,0.18659224666953086,-2.8697148935914036
1759158618851834600,2.253834716796875,0.7469991012752055,0.40166590693593024,-3.4984631707563993
1759158618861893600,2.2638935546875,-0.013559738796949385,0.8013099526554346,-3.844320388969779
1759158618871952600,2.27395263671875,-1.4034347190499306,1.0223650254189967,-3.6644974903047083
1759158618882010600,2.2840107421875,-2.7239842341423035,1.1375444792598486,-3.1059219427794216
1759158618892069600,2.294069580078125,-3.8638860901832577,1.127498886063695,-2.539595634996891
1759158618902128600,2.304128662109375,-4.1104970444858075,1.3887959528446197,-1.6118525746889412
1759158618912187600,2.314187744140625,-3.462444639652967,2.4145284088701007,0.09569617021381854
1759158618922246700,2.32424658203125,-3.103503775721788,3.3394103806585074,1.8635161362059414
1759158618932305700,2.3343056640625,-2.2233602325871584,3.285271963235736,3.3822400530815124
1759158618942364700,2.34436474609375,-0.2558019764959812,2.3433616997569797,5.7712803849518295
1759158618952423700,2.354423583984375,1.1764590240657329,0.25268062960505483,7.186181085389852
1759158618962482700,2.364482666015625,1.234042905767262,-3.653898939400911,4.815092589795589
1759158618972541700,2.374541748046875,0.22718875321298837,-6.827192875185609,1.9973665343776343
1759158618982600700,2.3846005859375,0.7551639952912926,-7.230380877122283,1.7049954071581364
1759158618992659500,2.394659423828125,2.1830501417696473,-7.1749424830168484,1.2249003988906741
1759158619002718700,2.40471875,3.1446205067470667,-6.8724950752019875,0.42800797041654587
1759158619012777500,2.414777587890625,4.110838697530329,-6.644958239203691,-0.5473372374132275
1759158619022836700,2.424836669921875,4.959925423622131,-6.679663057360052,-1.949921769374609
1759158619032895500,2.4348955078125,5.3702317331314084,-7.0884297362118955,-3.829694774506986
1759158619042954800,2.444954833984375,5.547490334266424,-7.324276135393977,-5.650383722507954
1759158619053013500,2.455013427734375,5.516434686267376,-6.893950535684824,-6.948287106028199
1759158619063072800,2.46507275390625,5.286276854115724,-5.703104089826345,-7.511738150635361
1759158619073131500,2.475131591796875,5.029878665292263,-4.165291295468807,-7.877872725462913
1759158619083190800,2.485190673828125,5.369608632797003,-1.9162772739261387,-7.846030311000347
1759158619093249500,2.49524951171875,6.810491331231594,0.7234966451346874,-7.932575206509232
1759158619103307800,2.505307861328125,7.816594957679509,2.6571342191845178,-8.430418929696083
1759158619113366500,2.515366455078125,7.500821035301685,3.521067509013414,-8.754331734865904
1759158619123425800,2.52542578125,5.220881714141369,2.8510002562493084,-9.923513461405038
1759158619133484500,2.535484619140625,1.074013964113593,0.3377069372445345,-12.28123277233839
1759158619143543800,2.545543701171875,-2.9361358694821593,-2.4282833779782056,-14.595233353054523
1759158619153602600,2.5556025390625,-2.6221605209589005,-2.3125848686993122,-13.301251526892184
1759158619163661800,2.565661865234375,1.7641621741369367,0.8348410508573054,-8.016624193549156
1759158619173720600,2.575720458984375,4.294373894716799,2.1947435021728277,-5.686304930716752
1759158619183779800,2.58577978515625,5.347058947336674,0.03796995743215084,-6.779646111112832
1759158619193838600,2.595838623046875,5.128943435156345,-4.0867134333163495,-7.414996855282783
1759158619203897600,2.605897705078125,2.585776371413469,-7.200811668288707,-5.595852506375312
1759158619213956600,2.61595654296875,-0.18904621569290755,-8.00769854429364,-2.4114608379930256
1759158619224015600,2.626015625,-1.2781284234702586,-7.643766447946429,1.355394910763204
1759158619234074600,2.63607470703125,-1.4006430425047873,-7.709130608260631,4.611943176078796
1759158619244133600,2.646133544921875,-0.8016413765668868,-7.810489042019843,6.713169605642557
1759158619254192600,2.656192626953125,-0.5993687456846237,-8.554076289024948,7.5651809870094056
1759158619264251600,2.666251708984375,-1.531285438415408,-8.680563318821788,7.745590745651722
1759158619274310700,2.676310546875,-2.6806881132513283,-7.359110717409849,7.218047465249896
1759158619284369700,2.68636962890625,-3.5874797170758246,-5.946786004939675,6.412556427517533
1759158619294428700,2.6964287109375,-5.327065376099944,-5.25485821802318,4.913309802919626
1759158619304487700,2.70648779296875,-6.6615446323454375,-6.740024294820428,1.2200322083324193
1759158619314546700,2.716546630859375,-4.488463511404395,-10.199937370169161,-4.516874782374501
1759158619324605700,2.726605712890625,0.08017185334563255,-14.116750748419761,-10.5118452647686
1759158619334664700,2.736664794921875,4.4833255639940495,-15.19605171302557,-11.03925001348257
1759158619344723700,2.7467236328125,3.0242642347902056,-12.331464245450496,-3.7104689678847786
1759158619354782500,2.756782470703125,0.19057576334774493,-9.162615598636865,2.3010531285986304
1759158619364841700,2.766841796875,-1.268886547872424,-6.9925663927376265,3.505751866459846
1759158619374900500,2.776900390625,-1.9800633712686597,-7.240044193002581,0.058930693200603124
1759158619384959700,2.786959716796875,-0.8318623273074627,-5.844788104233145,-1.0823710927661507
1759158619395018500,2.7970185546875,-0.8297552720256149,-2.9494384186476466,-0.49271447053961454
1759158619405077800,2.807077880859375,-1.5903534211948513,-0.736233377110958,-0.062339697926491494
1759158619415136500,2.817136474609375,-2.563345051635802,1.204224982869625,0.7602239090293645
1759158619425195800,2.82719580078125,-3.903220613966882,3.5915304537713526,1.9093693942338228
1759158619435254500,2.837254638671875,-5.297085832899809,5.7447243864595885,2.288883090594411
1759158619445313800,2.847313720703125,-6.07596534256041,6.539460805943608,2.406311346275359
1759158619455372500,2.85737255859375,-6.821300310015678,7.621910589969158,2.906054034951329
1759158619465431800,2.867431884765625,-6.99869627379477,8.759956004488467,3.36392990488708
1759158619475490600,2.877490478515625,-6.990225967091321,9.297585210096836,3.2503152161449194
1759158619485549600,2.887549560546875,-6.3601452722787855,10.224407794559001,2.781194021834433
1759158619495608600,2.897608642578125,-5.158119260758161,11.77669451994896,2.1110702165775
1759158619505667600,2.90766748046875,-3.924739495074749,12.79464874318838,1.0187839520618318
1759158619515726600,2.9177265625,-3.1869863610506055,13.298735744678973,-0.3892680515252053
1759158619525785600,2.92778564453125,-2.0418708620145916,13.817777154195308,-0.453216938214004
1759158619535844600,2.9378447265625,-0.9561515547990799,13.900575848913192,-0.6424142528153955
1759158619545904000,2.947904052734375,0.6879758344203233,13.8138725479722,-0.5629745131365954
1759158619555963400,2.95796337890625,2.757390829181671,13.946118287426232,-0.25301687582209703
1759158619566022100,2.968022216796875,3.816743230736255,12.836617414867877,-1.3293188047423958
1759158619576081200,2.9780810546875,3.050581163829565,10.336212803530692,-3.3269603566691277
1759158619586140200,2.98814013671875,0.7218180443979799,8.117486368224025,-3.8832477932572362
1759158619596199200,2.99819921875,-1.6835757486410439,8.023569482642412,-2.857480850440264
1759158619606258400,3.008258544921875,-2.479585110670328,8.900966649678349,-2.2803888184934853
1759158619616317200,3.018317138671875,-1.840063218295574,7.526859147399663,-3.744665251997113
1759158619626376400,3.02837646484375,-2.6538649882555005,3.640993865120411,-8.013488818132878
1759158619636435200,3.038435302734375,-8.827254347735643,1.4327338787704704,-9.205922825443745
1759158619646494500,3.048494384765625,-3.3761534266442057,-0.7365016726583242,-4.22318497377187
1759158619656553200,3.05855322265625,-0.4229243835419416,-8.212156702521442,3.771026896961033
1759158619666612500,3.068612548828125,-6.308948169004917,-12.171804429370164,15.941690047341584
1759158619676671200,3.078671142578125,-7.273705639585852,-17.915892856013773,27.553592649018764
1759158619686730500,3.08873046875,-2.938041410842538,-19.43101567965746,25.498860259604452
1759158619696789200,3.098789306640625,-2.1726415604799985,-12.635382894861698,16.14908776615262
1759158619706848300,3.10884814453125,-1.847676031386852,-3.8530063842505213,10.825040276569128
1759158619716907300,3.1189072265625,-0.7973597537249326,1.7019599849849938,10.202549013972282
1759158619726966300,3.12896630859375,1.925538438746333,3.451131802999973,10.380036747688054
1759158619737025300,3.139025390625,4.029124583178758,3.665486501342058,10.473960063010454
1759158619747084300,3.149084228515625,2.904507974553108,2.410658289438486,9.973332262063026
1759158619757143300,3.159143310546875,-0.8737520885318517,-0.024689035576581954,9.292509222006798
1759158619767202300,3.169202392578125,-4.94523054331541,-4.239501610061526,7.670842670920491
1759158619777261300,3.17926123046875,-10.85008002527952,-10.447080239391326,2.6899077770173547
1759158619787320300,3.1893203125,-14.069858064341544,-17.125579513669013,-2.7353219129756092
1759158619797379300,3.19937939453125,-15.406231756031513,-24.616559538435933,-7.204028292247653
1759158619807438300,3.209438232421875,-10.041858101278542,-29.213342554783818,-10.719416002058983
1759158619817497300,3.219497314453125,1.0743205458447336,-29.557791952025887,-14.757781876313686
1759158619827556400,3.229556396484375,13.313943835204839,-26.4369056643486,-18.121303200399876
1759158619837615400,3.239615478515625,19.336320795440674,-18.560608809900284,-14.433285718297958
1759158619847674400,3.24967431640625,14.953892477434872,-12.461104186320304,-12.991373092293738
1759158619857733400,3.2597333984375,8.845598982721567,-7.571023283296823,-13.358733409523962
1759158619867792400,3.26979248046875,7.715854948079586,-5.43470157495439,-18.33776334658861
1759158619877851100,3.27985107421875,14.27779588137865,-2.8695231704115867,-19.582639488798378
1759158619887910400,3.289910400390625,14.916173279893398,1.1896037523210048,-14.901256281268596
1759158619897969200,3.29996923828125,14.128148925268649,3.8801270308881994,-11.600814221429824
1759158619908028400,3.3100283203125,9.983907432091236,5.206549821928143,-9.08457198949158
1759158619918087200,3.320087158203125,3.856351603025198,5.463363021293282,-6.930900502419472
1759158619928146400,3.330146484375,0.14091171486005186,5.810917398813366,-5.972679740130901
1759158619938205200,3.340205078125,-1.3522015215493737,6.625028380852937,-5.207624757683277
1759158619948264400,3.350264404296875,-1.7451767570294439,7.854024232363701,-4.75678039381951
1759158619958323200,3.3603232421875,-1.772057603561878,8.597028711044787,-4.435936328570545
1759158619968382500,3.370382568359375,-1.774661064058542,9.072893242135644,-4.55127652593106
1759158619978441200,3.380441162109375,-1.6936112588346004,9.483124148321151,-4.3480368035823105
1759158619988500500,3.39050048828125,-1.5932020886242388,9.669859018331765,-4.160635578617454
1759158619998559200,3.400559326171875,-1.5709809044659138,9.827564193212986,-4.012415148179233
1759158620008618200,3.4106181640625,-1.4584230313003061,9.890885449522733,-3.8262846738025544
1759158620018677200,3.42067724609375,-1.0865665716946125,10.070818822824954,-3.6614287503838536
1759158620028736300,3.430736328125,0.8923796321123838,10.129607696402072,-3.1247900171175598
1759158620038795300,3.440795166015625,1.5856477277219294,7.574677714151144,-4.070910591767728
1759158620048854300,3.450854248046875,0.8962638531345873,3.5999639355957505,-7.090241169548034
1759158620058913300,3.460913330078125,-0.6731305858574808,0.2614882054388523,-8.140752677521109
1759158620068972300,3.47097216796875,3.334858124181628,1.4115958136737345,-4.22637354068011
1759158620079032000,3.481031982421875,1.5214602099716663,1.674236696279049,-2.860741898062825
1759158620089091300,3.49109130859375,-5.7239370344966645,-2.10695299051702,-0.8198835010264068
1759158620099150000,3.501150146484375,-14.553932205373048,-11.174304965138434,6.891295052739977
1759158620109209300,3.511209228515625,-15.761621064960956,-28.295668906939028,19.370375040733812
1759158620119268000,3.52126806640625,-10.402857651305197,-44.69007934114933,20.749488972997664
1759158620129327400,3.531327392578125,-3.997068233704567,-46.559927456855775,-4.2547991324365135
1759158620139386000,3.54138623046875,2.935752423122525,-34.136681584286684,-18.78526746011376
1759158620149445400,3.5514453125,5.496217243146896,-19.671331333208084,-4.096173920100927
1759158620159504100,3.561504150390625,3.7063720539599654,-10.47969188466072,3.4885149004548786
1759158620169563400,3.5715634765625,2.641273217707872,-6.85354253745079,2.5275427936315533
1759158620179622100,3.5816220703125,0.9180755797091871,-5.146057651564479,1.8740657334014772
1759158620189681400,3.591681396484375,-1.1596062350727616,-2.1705337745457887,2.0823715069681406
1759158620199740200,3.601740234375,-1.852568917994946,0.6236603063762187,1.3108677867725491
1759158620209799200,3.611799072265625,-2.4947949547618626,3.175519795140624,0.8700768340852111
1759158620219858200,3.621858154296875,-3.0933889166817066,6.210155201819538,0.9329840297013521
1759158620229917200,3.631917236328125,-3.0084435653239487,7.773538490763306,1.2534338349357246
1759158620239976200,3.64197607421875,-3.6110774502843617,8.973940700474381,2.2623583640232683
1759158620250035200,3.65203515625,-4.2289995052695275,9.613958851933479,3.37596842546612
1759158620260094200,3.66209423828125,-4.225416970607638,9.770779060673712,4.1901606560483575
1759158620270153200,3.6721533203125,-3.573409106147289,9.889638079810142,4.845954468788206
1759158620280212200,3.682212158203125,-3.26299583401978,9.768019532832502,5.195073903667926
1759158620290271200,3.692271240234375,-3.7641707474559545,9.581488076439499,4.5938218284547325
1759158620300330200,3.702330322265625,-3.8095027580887075,9.564911620169877,4.243378743755817
1759158620310389200,3.71238916015625,-3.3436861582815647,10.303015467327832,4.130759788052737
1759158620320448300,3.7224482421875,-2.8026319466605782,10.842024144595861,3.0725726308852432
1759158620330507300,3.73250732421875,-1.4909762243807314,11.333138267266749,2.7636709323644637
1759158620340566300,3.742566162109375,0.036495793226361276,11.9890793795228,3.349917746147513
1759158620350625300,3.752625244140625,0.7811908553428948,12.230869197279214,3.351272083365917
1759158620360684000,3.76268408203125,1.2082786421746015,11.958803483724594,3.4232810885220766
1759158620370744300,3.772744384765625,1.1576385882616043,10.73652145063877,3.1911306212484836
1759158620380803300,3.78280322265625,1.0875146661996842,6.983519162929058,-0.043563649253360925
1759158620390862300,3.7928623046875,1.5273668036669492,3.2123581181943415,-3.3878388960018753
1759158620400921300,3.80292138671875,1.506729819960147,1.690101789408922,-4.339712335090339
1759158620410980400,3.81298046875,1.0672164859931916,2.6372633975446225,-3.424603569297492
1759158620421039400,3.823039306640625,1.46954998999238,4.756075752681493,-1.9395225404351948
1759158620431098000,3.83309814453125,2.8488106372505424,6.85704849974513,-1.1464351302672178
1759158620441157400,3.843157470703125,3.3036130910903214,6.7026417818874116,-2.2650835512034595
1759158620451216100,3.853216064453125,-4.741657935750484,1.473553964936733,-6.3180509283930055
1759158620461275400,3.863275390625,-6.336041927635669,-2.2869144208699463,-5.00604887689352
1759158620471334100,3.873334228515625,-2.343353516450524,-3.05150412389338,8.938998566430806
1759158620481393400,3.883393310546875,-6.023513270789384,-12.731457250738144,22.789316054224965
1759158620491452200,3.8934521484375,-11.029231308293342,-17.36350096555948,23.770298098897932
1759158620501511400,3.903511474609375,-10.969544609093665,-14.426480714458226,14.460428576767443
1759158620511570200,3.913570068359375,-8.387952829888462,-10.43883146648407,7.5060992679655545
1759158620521629400,3.92362939453125,-5.683868058958649,-5.1539416828125715,7.212335517343878
1759158620531688200,3.933688232421875,-4.765560204863548,-2.4914386300712823,9.995321975553034
1759158620541747200,3.943747314453125,1.3947902248233557,0.45946693851947784,14.154730642724036
1759158620551806200,3.95380615234375,7.7060817420840255,3.5145459982901808,16.83106348337531
1759158620561865200,3.963865234375,3.774132754021883,2.3707822061240673,15.287272199130058
1759158620571924200,3.97392431640625,-3.805986858922243,-2.178548738697171,10.949929223519563
1759158620581983000,3.98398291015625,-10.015879610413313,-9.167703277164698,6.133097681102156
1759158620592042200,3.994042236328125,-15.26964184989333,-17.30565434126854,2.0054303061068057
1759158620602102300,4.004102294921875,-15.946595355039834,-23.524595491611954,-2.007820123852789
1759158620612161300,4.014161376953125,-9.086429015535115,-27.050693396008015,-5.651479701051116
1759158620622220300,4.02422021484375,9.676046767055988,-27.950929586839674,-9.95611107814908
1759158620632279000,4.034279052734375,16.71289770720005,-26.318081716525555,-19.558102428913116
1759158620642338300,4.04433837890625,14.844592729282379,-20.064469065773487,-20.821329051327705
1759158620652397000,4.05439697265625,14.88852890164256,-10.945841077423095,-16.047617104190586
1759158620662456300,4.064456298828125,11.53571601857543,-6.322080622300505,-16.899218735712765
1759158620672515000,4.07451513671875,14.506066876870394,-3.530464282912016,-17.81042055719495
1759158620682574300,4.08457421875,16.8894174726665,-0.09585399112403392,-14.862518846595286
1759158620692633000,4.094633056640625,14.784185899114608,2.745367213910818,-12.037073302841186
1759158620702692400,4.1046923828125,10.792746611207724,4.554278338095545,-9.830064777857064
1759158620712751000,4.114751220703125,5.289767618840933,5.128946357765794,-8.055236540538072
1759158620722810400,4.124810302734375,1.299287092963606,5.695533946833014,-6.89932930611372
1759158620732869000,4.134869140625,-0.8620176654659211,7.083122277453541,-6.283673442494869
1759158620742928400,4.144928466796875,-1.6989163795053959,8.262723691198229,-6.029030572906136
1759158620752987100,4.154987060546875,-3.0834640272557734,9.280631737208365,-5.8928708748787635
1759158620763046100,4.165046142578125,-2.9109657723903655,9.772293556889892,-5.785449780079722
1759158620773105200,4.175105224609375,-2.6647791809797283,9.92900913621187,-6.010251638156175
1759158620783164200,4.1851640625,-2.09733000664711,10.060689058476687,-6.33840865676701
1759158620793223200,4.19522314453125,0.564643469262123,10.361796157598494,-6.081079324573278
1759158620803282200,4.2052822265625,3.03283507925868,10.66292780663967,-5.324491726219653
1759158620813342200,4.21534228515625,4.255917907333374,10.817990942579508,-4.703174183577299
1759158620823401200,4.225401123046875,2.3118366806805133,9.44537630920708,-4.676981173178553
1759158620833460000,4.2354599609375,-1.350215754559636,6.800393715587258,-4.951525844067334
1759158620843519200,4.245519287109375,-4.028592083737254,5.134634340274333,-6.31347529104054
1759158620853578000,4.255577880859375,-5.040100199577212,2.873511947786808,-7.763470685735345
1759158620863637200,4.26563720703125,-1.3672411236405373,2.1663865917384624,-5.444357292050123
1759158620873696000,4.275696044921875,-0.4270658672608435,0.9377712639778852,-1.6165496464639901
1759158620883755300,4.28575537109375,-6.887033303642273,-3.732576170274615,0.646212476054579
1759158620893814000,4.29581396484375,-15.254309840726851,-11.897943064570427,5.873310434362292
1759158620903873300,4.305873291015625,-17.566781312179565,-27.72877853553295,11.729421896642446
1759158620913932000,4.31593212890625,-9.49536228312552,-46.23556456983089,5.287210920095443
1759158620923991300,4.3259912109375,7.470144157487153,-47.78979892215728,-11.148010832452773
1759158620934050000,4.336050048828125,9.352599241310358,-27.097637518012522,-4.9819122145026915
1759158620944109300,4.346109375,6.337454717043042,-13.764804273420571,3.4130957945942875
1759158620954168000,4.35616796875,3.512062949302792,-10.417169085252285,2.5569860379979015
1759158620964227000,4.36622705078125,1.540599210205674,-7.518842429682612,3.002014116798341
1759158620974286000,4.3762861328125,-0.16333602037504313,-5.125336935096978,2.4287366747036576
1759158620984345000,4.386344970703125,-1.532192031866312,-2.27985807261765,1.6837654259942472
1759158620994404000,4.396404052734375,-2.226133058301359,1.0754974806696176,0.0026603783156722784
1759158621004464000,4.406464111328125,-2.5501953549444676,3.05017959729135,-1.1909607929531485
1759158621014523400,4.4165234375,-3.075829002332687,5.607079418310523,-0.27399273609444497
1759158621024582100,4.42658203125,-2.887025509354472,7.897994306993484,0.47722131599467243
1759158621034641200,4.43664111328125,-2.3311823094025255,8.274335803058744,1.1191671841133386
1759158621044700200,4.4467001953125,-2.5177538055449724,8.376216214865446,2.3666030207432804
1759158621054759200,4.45675927734375,-2.263867015020549,8.572505679684877,3.7085204641655087
1759158621064818200,4.466818115234375,-2.4413567945629358,8.680549290296435,4.107077006909251
1759158621074877200,4.476877197265625,-3.0286010949507354,8.954086245447396,4.712755081871151
1759158621084936200,4.486936279296875,-3.867610663664341,9.258826732635498,5.006885912239551
1759158621094995200,4.4969951171875,-4.362412827198207,10.079060581469536,4.395362618380784
1759158621105054200,4.50705419921875,-3.538766831833124,10.84722755845785,3.2797242659807204
1759158621115113200,4.51711328125,-2.0894737401887773,11.402339813786744,2.8739579379886386
1759158621125172200,4.527172119140625,-0.191888599511981,12.079694300949573,3.478234037198126
1759158621135231200,4.537231201171875,0.9586180910430848,12.767452108705044,4.657364034038782
1759158621145290200,4.547290283203125,0.6293504808418452,12.81693656284213,5.563510325697064
1759158621155349200,4.557349365234375,-0.6686497871816158,12.634861501336097,5.214644865578412
1759158621165408300,4.567408203125,-1.654494323324412,12.099479197871684,3.4833038878083227
1759158621175467300,4.57746728515625,-1.4701109848760068,10.266602091687917,0.9101726245649159
1759158621185526000,4.587526123046875,-0.15707447576224803,8.336932836747168,-0.930079759627208
1759158621195586300,4.59758642578125,0.7706050177901983,7.108352580299973,-2.141334568068385
1759158621205645000,4.60764501953125,2.7957746281117197,5.680520502096414,-2.828190458548069
1759158621215704300,4.617704345703125,3.4003158079981803,2.347525249177217,-7.338782799652218
1759158621225763000,4.62776318359375,-12.36284605666399,-7.293886257827282,-13.840869275969267
1759158621235822000,4.637822021484375,-10.938196700149774,-10.957536191391945,-3.6477731499969956
1759158621245881000,4.647881103515625,3.2457325645297765,-12.235566415184735,10.22274775239229
1759158621255940000,4.657940185546875,1.9360323602318763,-17.75155335768461,18.6507678042531
1759158621265999000,4.6679990234375,-6.814742558935285,-14.531034144866465,13.56853351330161
1759158621276058000,4.67805810546875,-2.4250340207934378,-7.147036823481321,8.909725125673413
1759158621286117000,4.6881171875,-4.8082080909788605,-1.9371844528764486,8.575506615066528
1759158621296176000,4.698176025390625,-3.401604094243049,0.5434510436296462,9.241414410063625
1759158621306235100,4.708235107421875,-2.2570646415293214,0.5370926145136357,10.772995616555214
1759158621316294100,4.718294189453125,-1.6276994015097617,0.7156587911158799,10.995247205626963
1759158621326353200,4.728353271484375,2.2216274174451827,1.8808406343638895,11.069812325006723
1759158621336412200,4.738412109375,1.922103203600645,1.180845276325941,10.847836630266904
1759158621346471400,4.748471435546875,-0.6862474031925201,-1.983202692207694,10.536156699204444
1759158621356530200,4.7585302734375,-4.513791429406404,-8.080930369243026,9.927541986268759
1759158621366589200,4.768589111328125,-10.820623629170656,-17.117744582259654,4.877340079393982
1759158621376648200,4.778648193359375,-13.094948033058643,-26.239026299989224,-0.46916561797410244
1759158621386708200,4.788708251953125,-10.810333705824613,-31.384836698794363,-6.274193081966042
1759158621396767200,4.798767333984375,-10.036148491460084,-32.597172507405276,-18.466662113702295
1759158621406826200,4.808826171875,5.538497464993596,-28.18760249997377,-21.252586963450906
1759158621416885200,4.81888525390625,23.87216857383251,-17.568158445751667,-17.29190872451067
1759158621426944300,4.8289443359375,24.854993031501767,-9.354045932987331,-12.95177757948637
1759158621437003000,4.8390029296875,13.954412653040885,-7.665531705030799,-15.238120922470092
1759158621447062300,4.849062255859375,16.20070806327462,-3.905540873607993,-14.12238320134878
1759158621457121000,4.85912109375,16.311328830897807,1.6941466808855532,-11.65559912006259
1759158621467180300,4.86918017578125,13.426374282598495,4.6611172490924595,-9.809698866176605
1759158621477239000,4.879239013671875,9.918733241391182,5.280262708392739,-9.073521603167057
1759158621487298300,4.88929833984375,3.7307588917195793,4.515630919793248,-9.019972383809089
1759158621497357000,4.899357177734375,0.16992168237566946,4.734676406300068,-7.897772188675403
1759158621507416300,4.909416259765625,-0.8223860584318637,5.745450947168469,-6.356784271413088
1759158621517475000,4.91947509765625,-0.9535036706387996,7.085154075542092,-5.507392132633925
1759158621527534300,4.929534423828125,-0.5622736713908613,8.289618127864598,-5.087894800931215
1759158621537593000,4.939593017578125,-0.20316563419923186,9.029035980230569,-4.546981459085643
1759158621547651300,4.9496513671875,0.24015907474942505,9.46567032469511,-4.312996177600324
1759158621557710300,4.95971044921875,0.7208453999735415,9.719593063315749,-4.137331859919429
1759158621567770400,4.969770263671875,1.5627099197268486,9.923048181980848,-4.181634819765389
1759158621577829400,4.979829345703125,3.038238399606943,10.301914228087663,-4.222780484624207
1759158621587888400,4.989888427734375,4.916112000858783,10.58036759685278,-4.644953757537901
1759158621597947400,4.999947509765625,4.038620725798607,9.151254246667026,-6.071737495732307
1759158621608006400,5.01000634765625,1.1099099648158997,6.598297025793791,-7.804498861694335
1759158621618065400,5.0200654296875,-2.4536346768558026,4.385108350870013,-9.2744691229254
1759158621628124400,5.03012451171875,-3.6870810780346392,1.105767531248927,-10.554510686540603
1759158621638183400,5.040183349609375,-1.219768662025407,-0.08488602238595486,-8.351995381322503
1759158621648242400,5.050242431640625,2.1931769835084673,-0.057416416180133815,-6.977448903104663
1759158621658301400,5.060301513671875,0.10801248482093215,-2.1578332829266786,-7.448316941082477
1759158621668360400,5.0703603515625,-2.7035025871276854,-6.089484749346971,-4.054460392226279
1759158621678419500,5.08041943359375,-10.701551844066381,-15.807255857932567,4.849234805633127
1759158621688478500,5.090478515625,-11.561606831157206,-32.459033618259426,16.941268071413038
1759158621698537500,5.100537353515625,-6.912444808274507,-50.940507516646385,16.32775623408556
1759158621708596500,5.110596435546875,-1.7188031293667851,-52.579913722562786,-6.814138747823238
1759158621718655200,5.1206552734375,6.493757623910904,-31.52531367549896,-7.7374015939772125
1759158621728714500,5.130714599609375,4.704228076544403,-16.68917079465389,5.989109481406212
1759158621738773200,5.140773193359375,0.3134216601632535,-10.581314522314072,6.652929364213347
1759158621748832500,5.15083251953125,-2.320257449153811,-7.967239108133316,1.6475142551787196
1759158621758892300,5.160892333984375,-1.0870360889025033,-4.936009710505605,2.8263445384204386
1759158621768951300,5.170951416015625,-0.7547282342225313,-1.1932190202087163,2.4797823868080973
1759158621779010300,5.18101025390625,-0.9487304648876189,2.600915488356352,2.085749312838167
1759158621789069300,5.1910693359375,-1.2985241457670926,5.0718566893219945,3.2651676251009105
1759158621799128300,5.20112841796875,-2.891289012017846,7.829333443221449,4.370598471741378
1759158621809187300,5.211187255859375,-3.1905092744797465,9.774877728164196,5.313729509186745
1759158621819246300,5.221246337890625,-3.0686627639651296,10.06720998467803,5.587654586872458
1759158621829305300,5.231305419921875,-3.315708602553606,10.944293263459205,5.767835212934017
1759158621839364400,5.2413642578125,-3.596629822736978,12.04102233272791,5.334436781650782
1759158621849423400,5.25142333984375,-3.4784278062045573,12.09072072187662,4.402030844098329
1759158621859482400,5.261482421875,-4.058508498573303,12.461630256021023,3.880258840574324
1759158621869541400,5.271541259765625,-3.3862083721905947,14.12616973415017,4.845672436976432
1759158621879600400,5.281600341796875,-2.367569819948822,14.544308636981247,5.427246582773328
1759158621889659400,5.291659423828125,-1.8504823209792374,14.305365440827607,4.780090249997377
1759158621899718400,5.301718505859375,-0.8327772501952946,14.31597217503786,3.742781630207598
1759158621909777400,5.31177734375,1.158978312432766,14.559495684719085,2.685164381882548
1759158621919836200,5.321836181640625,2.3359533231966196,13.973781370377539,1.3172040040567516
1759158621929895400,5.3318955078125,2.3693068728744984,12.655583971369266,-0.045656858672946686
1759158621939954200,5.3419541015625,0.5991437047570943,10.260545275866985,-1.1146294676184654
1759158621950013400,5.352013427734375,-1.4172341118216514,8.015133662730454,-0.7815967327300458
1759158621960073500,5.362073486328125,-2.3260499149501324,6.739637925851345,0.3255460323948413
1759158621970132200,5.37213232421875,-2.523102765357494,6.615907501286268,0.8696402692988514
1759158621980191500,5.38219140625,-1.3939276166446506,6.63641895891726,1.0515301834963262
1759158621990250200,5.392250244140625,0.40127646922692656,4.149453090345859,-1.0306809452783317
1759158622000309500,5.4023095703125,-10.56831475548744,-4.1986067050933835,-5.722914705711603
1759158622010368300,5.4123681640625,-13.809778556656836,-8.506679162555933,-3.8294711948841806
1759158622020427500,5.422427490234375,0.12209610136151314,-9.332298796081542,7.008235086512565
1759158622030486300,5.432486328125,0.5833709660857915,-17.691401379060743,20.072865138196946
1759158622040545500,5.442545654296875,-8.516521926656365,-20.990057140004634,22.992867619001863
1759158622050604300,5.452604248046875,-7.07842505954802,-15.71299235087037,13.576679410356283
1759158622060663600,5.46266357421875,0.2549193484425545,-8.527434950336813,6.784039962157607
1759158622070722300,5.472722412109375,-1.9347475811183452,-5.571420075908303,7.043516243252157
1759158622080781600,5.482781494140625,-2.4083517660617826,-3.5814445285648104,10.028160415315627
1759158622090840300,5.49284033203125,0.2945803277015686,-1.38260352794528,11.403189708614349
1759158622100899600,5.502899658203125,6.595490151679515,0.2655833657979965,12.901516880279779
1759158622110958300,5.512958251953125,1.0046411526799202,-1.4737415964633225,9.858967047214508
1759158622121017300,5.523017333984375,-4.352890088832378,-4.54927190811038,6.673591628491878
1759158622131076400,5.533076416015625,-6.2081976380109785,-9.308064518535137,4.899038116461038
1759158622141135400,5.54313525390625,-10.103577767610549,-17.671520620548723,0.20966127982884644
1759158622151194400,5.5531943359375,-13.273385030323267,-25.29907067770958,-5.422734658306837
1759158622161253400,5.56325341796875,-11.101859322130679,-29.535402425563333,-11.577907977616785
1759158622171313400,5.5733134765625,-3.4395220292270183,-31.88941937484741,-21.239178031301496
1759158622181372400,5.583372314453125,19.71644940882921,-23.798294359326363,-22.822119422674177
1759158622191431200,5.59343115234375,25.965028157067298,-12.221950562286377,-17.95830927146077
1759158622201490400,5.603490478515625,17.481270435893535,-5.63509672152698,-14.699797304856776
1759158622211549200,5.613549072265625,6.778335613036155,-2.4782518162399527,-18.177458218342064
1759158622221608400,5.6236083984375,11.887019519495963,1.767604131284356,-15.599205812692642
1759158622231667200,5.633667236328125,14.012383195972442,4.731047694408893,-12.168272748112678
1759158622241726500,5.6437265625,11.1816068125844,5.561135997781157,-10.760741699659823
1759158622251785500,5.653785400390625,4.4764872424066064,5.918146185910701,-8.948865880450606
1759158622261844500,5.663844482421875,0.10444251737967133,6.352366454970836,-8.006457019799948
1759158622271903500,5.673903564453125,-0.4778967675708234,6.999428095200657,-6.8649921522259705
1759158622281962500,5.68396240234375,-0.46048386047706,8.186949196028708,-5.865426987636089
1759158622292021500,5.694021484375,-0.4198864040855318,8.936570462501049,-5.274414566886425
1759158622302080500,5.70408056640625,-0.6170306591033935,9.353796926662325,-4.769363688799738
1759158622312139500,5.714139404296875,-1.1311199991703034,9.570961421728134,-4.597257063600421
1759158622322198300,5.7241982421875,-1.6775988661885262,9.806291103559731,-4.713708729334176
1759158622332257500,5.734257568359375,-1.7516718181371689,9.885759192550182,-4.810241934894025
1759158622342316300,5.74431640625,-1.352146430361271,9.889182152736186,-4.562716788356006
1759158622352375600,5.75437548828125,-0.39299043304920195,9.937706821930409,-4.30197238702178
1759158622362434300,5.764434326171875,1.6318588592767715,9.983729737436772,-4.090006629642844
1759158622372493600,5.77449365234375,2.5033412493109704,8.586683842641115,-4.3385026670396325
1759158622382552300,5.78455224609375,1.2052420509576798,6.872874429908395,-4.984444947850704
1759158622392611600,5.794611572265625,-1.5748504393756388,4.6014369796335695,-6.372748733264207
1759158622402670300,5.80467041015625,-1.8968705626666544,2.121721520581841,-7.6191259276866905
1759158622412730400,5.81473046875,2.331533899319172,0.9194500098675489,-5.967566927161813
1759158622422789400,5.824789306640625,0.7452693548731505,-1.8552175328075884,-5.932019228440523
1759158622432848400,5.834848388671875,-4.081380840116739,-8.555881877142191,-2.972653874540329
1759158622442907400,5.844907470703125,-12.440665793925524,-22.789098612082004,8.131939840990304
1759158622452966400,5.85496630859375,-12.739978410845994,-40.79467115449905,17.071376798838376
1759158622463025400,5.865025390625,-10.87954811182618,-51.3764860275507,8.047942876398563
1759158622473084400,5.87508447265625,1.1596025818109512,-44.684187360501284,-9.138861798083783
1759158622483143400,5.885143310546875,5.733132148343325,-25.577207235610484,-6.641223728850483
1759158622493202400,5.895202392578125,1.9757535452455282,-13.3467273299098,6.272502060139179
1759158622503261400,5.905261474609375,2.0562708510279655,-7.081358774912357,8.085385595086217
1759158622513320400,5.915320556640625,2.6224697330385447,-5.178159593746066,2.0357684534862637
1759158622523379200,5.925379150390625,2.508953828495741,-2.7291946622669694,0.6529680877946317
1759158622533438500,5.9354384765625,0.5410363837033509,0.3099450700938701,0.47892589142285286
1759158622543498000,5.945498046875,-0.7534933586653322,4.037228394657373,0.13186331600770354
1759158622553557200,5.95555712890625,-2.080341024053842,6.955439900392293,2.078061242553592
1759158622563616000,5.965615966796875,-3.483916759009659,8.146582698848842,2.5244021575182676
1759158622573675300,5.97567529296875,-3.4759073478162286,8.088816738578677,2.943404399180412
1759158622583734000,5.985734130859375,-3.349809609597921,8.9771871350497,3.8898698417454955
1759158622593793300,5.995793212890625,-3.523134378415346,10.26400564545393,4.455969939556717
1759158622603852000,6.00585205078125,-3.168209179866314,10.595482163876294,4.873838501013815
1759158622613911000,6.0159111328125,-2.846573671978712,10.689681373530625,4.915068044763803
1759158622623970000,6.025969970703125,-2.466599080108106,11.175885512328147,4.933368840608001
1759158622634029000,6.036029052734375,-2.6031299495354294,12.049999419909716,3.839591899143159
1759158622644088000,6.046088134765625,-1.4871248096495866,12.884400910305976,3.2683380718305703
1759158622654147000,6.05614697265625,0.3816033621162176,13.523501946920156,3.403814756029844
1759158622664206000,6.0662060546875,1.3679261832952498,13.74614048948288,3.1872926505208015
1759158622674266000,6.07626611328125,1.635252008846402,13.865226303112506,2.820683736179769
1759158622684324900,6.086324951171875,0.7625923917263746,13.688812920629978,2.547603292624652
1759158622694384000,6.096384033203125,-0.4710597611576319,13.376196585500239,1.6844111765518783
1759158622704443000,6.10644287109375,-1.0554998177796602,12.153643334257602,0.685779858746007
1759158622714502100,6.116502197265625,-1.346879303613305,10.703619882512092,0.029207298452313988
1759158622724561000,6.126560791015625,-1.2220967396467923,10.066235002166032,0.34358211288824675
1759158622734620200,6.1366201171875,-0.9379191480159759,10.031321509695053,1.4783974594451486
1759158622744679000,6.146678955078125,1.0882114162921905,9.53240051266551,1.9329720958784222
1759158622754738200,6.15673828125,-1.37255150500834,7.034857720500231,-0.06641260992120951
1759158622764797000,6.166796875,-12.557858925676346,-0.7881371673494577,-3.7265994339525697
1759158622774856200,6.176856201171875,-9.858319396960734,-5.70098812058568,-2.813829632501304
1759158622784915000,6.1869150390625,-1.9421984816461801,-15.118174692618846,10.92022615917325
1759158622794974200,6.19697412109375,-2.6548095756292343,-25.915512138748166,25.441128201603888
1759158622805033000,6.207032958984375,-4.210092560225725,-26.333375147247313,21.89969945708513
1759158622815092000,6.217092041015625,0.4619394661128521,-18.867920024359226,7.622510893949866
1759158622825151000,6.22715087890625,-3.598284019684791,-10.01414825657606,3.9745536195576188
1759158622835210000,6.2372099609375,-2.308302661335468,-3.2502363056898114,7.460479672563076
1759158622845269000,6.24726904296875,4.3057144961595535,1.7401298489034174,12.23482874855995
1759158622855328000,6.257327880859375,7.0162710934519765,3.1478263170510528,14.34150526022315
1759158622865387000,6.267386962890625,1.969379334038496,0.9515051902979612,11.753469127184152
1759158622875446000,6.277446044921875,-4.152873712444305,-2.58530816937983,7.821154228419065
1759158622885505000,6.287505126953125,-5.949156241202354,-7.159553775227069,5.6907642482131715
1759158622895564000,6.29756396484375,-11.591399911874532,-13.737655569732189,2.4673814626574515
1759158622905623000,6.307623046875,-17.23586359668374,-20.802077238368987,-2.7450676464423536
1759158622915682000,6.31768212890625,-20.153510454273224,-27.717555715250967,-9.717257898366451
1759158622925741000,6.327740966796875,-17.88628448421359,-31.01795568951368,-15.222287393522262
1759158622935800000,6.337800048828125,11.757792251080273,-23.78915477505922,-16.47191920582652
1759158622945859000,6.347859130859375,39.799426775717734,-15.261824454140662,-18.352488622033594
1759158622955918000,6.35791796875,29.698046810412404,-9.615721185430884,-16.853800215840337
1759158622965976800,6.367976806640625,12.043209613639116,-6.156996443083882,-20.413819094538688
1759158622976036000,6.3780361328125,11.450844609236716,-1.683199170413613,-17.999855918335914
1759158622986094800,6.3880947265625,13.179945699125527,2.8025527439445255,-10.91420324562192
1759158622996154000,6.398154052734375,10.431098241883516,4.625557859933376,-8.361368189823628
1759158623006212900,6.408212890625,5.70154750803411,5.021619955512881,-8.103118235653639
1759158623016272100,6.418272216796875,1.6191326486945152,4.981981772607565,-8.229279686757922
1759158623026332200,6.428332275390625,0.2577542796075344,5.590480165687203,-7.6661916302442545
1759158623036391000,6.438390869140625,-0.14481047586426138,6.773877464583515,-6.9225266418278215
1759158623046450200,6.4484501953125,-0.37644948648437854,7.8161133116424075,-6.042195759427547
1759158623056509000,6.458509033203125,-0.14871157495602966,8.573125857409835,-5.4852475208431475
1759158623066568200,6.468568115234375,-0.09388342170342802,9.081966775429247,-5.271529366838932
1759158623076627000,6.478626953125,0.08924246402978897,9.622539048752188,-5.019622644215822
1759158623086686200,6.488686279296875,0.8068952054418623,10.089397266566753,-5.081742123520374
1759158623096745000,6.498744873046875,3.6514720045149325,10.85705687855482,-4.779269289003312
1759158623106804200,6.50880419921875,5.597415517908335,11.340844603860377,-4.925903911554813
1759158623116863000,6.518863037109375,3.1400644508779045,9.669685999852419,-6.167203948843479
1759158623126922200,6.528922119140625,-0.8005857300341129,5.8991474709302185,-8.08396111524105
1759158623136981000,6.53898095703125,-4.740585922604799,2.727278014990687,-10.677822593432664
1759158623147040300,6.549040283203125,-0.024331308180093762,-0.2477496029436588,-10.046466471856832
1759158623157099000,6.55909912109375,4.390813284513354,-1.3845178371340034,-8.119854850921035
1759158623167158000,6.569157958984375,2.6262726324528454,-2.9017063611358402,-8.330465102037786
1759158623177217000,6.579217041015625,1.003128994551301,-7.471234875333309,-7.19834498591423
1759158623187276000,6.589276123046875,-2.025577606600523,-15.831017841792105,-0.08982976239845156
1759158623197335000,6.5993349609375,-9.440994733121991,-33.70171312720775,15.829466520696878
1759158623207394000,6.60939404296875,-13.144821778774261,-47.616116425943375,24.553875410985945
1759158623217453000,6.619453125,-12.751654820114373,-46.048480155730246,11.752298914360999
1759158623227512000,6.629511962890625,-1.4492647423326968,-35.29558507791757,-2.5376474235385653
1759158623237571000,6.639571044921875,7.019698729813099,-20.171181720042227,2.463805649997294
1759158623247630000,6.649630126953125,3.226928495338559,-10.843580141866207,9.388848366299271
1759158623257689000,6.659689208984375,0.15825155671760438,-4.2448868102312085,8.05859695688188
1759158623267748000,6.669748046875,0.8402483897935599,-0.13314473412036895,2.747057066693902
1759158623277807000,6.67980712890625,2.7090263189852237,2.443478609022498,-0.08037446324564516
1759158623287866000,6.6898662109375,1.537535877112299,6.18514292563796,-0.9377887996345758
1759158623297925000,6.699925048828125,-0.4314717010043561,9.765344760665297,2.858039653366804
1759158623307984100,6.709984130859375,-2.332864855661988,10.203602322417497,6.805700005301833
1759158623318043000,6.72004296875,-4.9979725379437205,8.78345144636631,5.777178795340657
1759158623328102100,6.73010205078125,-5.739259691312909,9.091244306862354,5.04918659235239
1759158623338161000,6.740160888671875,-6.352238444676995,10.283969406074284,4.598887879672646
1759158623348220200,6.75022021484375,-5.873380576989054,11.326233894705771,3.9563665132209658
1759158623358279000,6.76027880859375,-3.8572996975302694,11.886757653689385,4.213414982646704
1759158623368338200,6.770338134765625,-2.4690245536893607,13.03402331649661,4.772318739213049
1759158623378397000,6.78039697265625,-1.687615817812085,13.931197781670093,4.253175330626965
1759158623388456200,6.790456298828125,-0.5598522894628346,15.143482152354716,3.7356726749852296
1759158623398515000,6.800514892578125,1.6621746486939488,16.224036331892012,3.7388533508479593
1759158623408574200,6.81057421875,4.85449754846692,16.639028168869018,4.660496194584668
1759158623418633000,6.820633056640625,4.680367308485508,15.912878963398933,4.113118917421996
1759158623428692200,6.830692138671875,3.5967587098136544,14.19183959941268,1.3420757027238606
1759158623438751000,6.8407509765625,1.8468235062107443,10.322799195206164,-2.3939129063427447
1759158623448810000,6.85081005859375,-0.29941856151297686,7.566125574383139,-4.069124000611901
1759158623458869000,6.860868896484375,-2.2870028298057616,6.420019603005051,-4.1813147940307855
1759158623468928000,6.870927978515625,-3.510864094907045,6.093857557603717,-3.385235727766156
1759158623478987000,6.880987060546875,-0.8172932653374969,5.504581751388311,-1.1321476617176085
1759158623489046000,6.8910458984375,2.378545825862884,1.732611143836379,-4.447152426850796
1759158623499105000,6.90110498046875,-10.610694930577278,-5.116771935847401,-4.027239500084519
1759158623509164000,6.9111640625,-8.452667586383223,-0.5825181486487389,2.3882447975784538
1759158623519223000,6.92122314453125,-1.3260299923300742,-3.746921506491303,10.161667553007602
1759158623529282000,6.931281982421875,-7.493447876185178,-14.409285249507427,22.545070075488088
1759158623539341000,6.941341064453125,-11.082858853584527,-22.147882775270936,28.269847067940233
1759158623549400300,6.951400390625,-8.99701353302598,-20.587866332411764,19.759914456546305
1759158623559459300,6.961459228515625,-4.4861575725495815,-10.742095451378821,9.139971805152296
1759158623569518300,6.971518310546875,-4.582231928426027,-3.4470389807283874,7.7471280382215975
1759158623579577000,6.9815771484375,-3.0335470269203184,-0.973266355729103,9.35747883004546
1759158623589636400,6.99163623046875,4.27528428658247,-0.45583121236562724,11.406536680954694
1759158623599695000,7.001695068359375,6.781511904984712,-2.753372825711965,11.77044364286065
1759158623609754400,7.01175439453125,-2.0095124608539043,-8.573295953279732,7.921285750731825
1759158623619813000,7.021813232421875,-5.891831010437011,-13.131445579850674,5.3316264004051686
1759158623629872400,7.031872314453125,-8.652828339678049,-18.54727469655275,3.5518843798205255
1759158623639931100,7.04193115234375,-8.912645981556176,-24.791623844397066,-0.5221154101341963
1759158623649990400,7.051990478515625,-7.332450674021244,-29.66825489873886,-8.368441489210724
1759158623660049200,7.062049072265625,4.0974923092231155,-30.947039155769346,-20.338443827819823
1759158623670108400,7.0721083984375,21.634059977185725,-20.756316188669203,-22.385911779189108
1759158623680167200,7.082167236328125,26.258474512302875,-10.371644182395935,-18.122593824732302
1759158623690226400,7.092226318359375,16.950394796198605,-3.9671243463397023,-17.097620662641525
1759158623700285200,7.10228515625,13.513715881443023,0.518497804158926,-16.077437072914837
1759158623710344200,7.11234423828125,12.553595423012972,5.250995697376132,-11.335903055804968
1759158623720403200,7.1224033203125,10.049432335925102,6.473679297000169,-8.841998912402987
1759158623730462200,7.132462158203125,4.377749512539804,6.827315040260553,-8.037814281094073
1759158623740521200,7.142521240234375,0.39091786455884575,6.8823857700973745,-8.537406309252978
1759158623750580200,7.152580322265625,-0.500301783863455,7.079194290354848,-8.19892254241705
1759158623760639200,7.16263916015625,-0.5366121375203132,7.750448707076907,-7.534503524672985
1759158623770698200,7.1726982421875,-1.0245150430597365,8.773091380393504,-7.780761427754164
1759158623780757200,7.18275732421875,-0.46048999795690176,9.675983054170011,-7.0728621647238725
1759158623790816300,7.192816162109375,-0.4687619325440377,10.05204631781578,-6.818439075365662
1759158623800875300,7.202875244140625,0.42824419032521543,10.227978054261207,-6.463620259800553
1759158623810934300,7.212934326171875,1.8832991334319114,10.431672242379188,-6.528481731289625
1759158623820993300,7.2229931640625,3.287477364325523,10.628259813362359,-6.544098987138271
1759158623831052300,7.23305224609375,3.974329163151979,10.046811339771747,-6.672994247120618
1759158623841111300,7.243111328125,1.7715899860501287,7.56642368054688,-7.402726571774482
1759158623851170300,7.25317041015625,-2.4919401498526335,5.838749408590793,-7.934338709050416
1759158623861229000,7.26322900390625,-6.122719494950771,4.283941055768728,-8.903527440077067
1759158623871288300,7.273288330078125,-6.2210541969746345,1.0177321049213408,-10.255514880484341
1759158623881347000,7.28334716796875,2.2199083385676146,-2.5246722066313025,-9.39149800402522
1759158623891406300,7.29340625,5.4712067205309864,-3.35456703325808,-7.7677306812673805
1759158623901465000,7.303465087890625,1.906705727982521,-5.599883953848481,-7.274992172265052
1759158623911524400,7.3135244140625,0.0830494546085596,-9.770301506289838,-4.3156969609916205
1759158623921583000,7.3235830078125,-6.265797009542584,-25.00299865014553,8.080040142405032
1759158623931642400,7.333642333984375,-13.006426869040727,-44.79691123788356,24.25622517431974
1759158623941701000,7.343701171875,-18.343222781038282,-47.40776009123325,23.40923191337585
1759158623951760400,7.353760498046875,-12.628003890526294,-37.74557116913795,6.499076188585161
1759158623961819100,7.363819091796875,2.294239064669609,-24.44651978263855,-1.3665567946381867
1759158623971878400,7.37387841796875,8.072199365776777,-12.634833444285393,5.5218520351409905
1759158623981937200,7.383937255859375,2.712477336221933,-5.329175500121712,9.141037388557194
1759158623991996400,7.393996337890625,0.12084274029955268,-0.41047231372594833,6.93804511347711
1759158624002055200,7.40405517578125,1.3894348352700472,2.9647932241678236,3.8920246816918254
1759158624012114200,7.4141142578125,2.419548282858729,5.723434930193424,2.410596330118179
1759158624022173200,7.424173095703125,0.7950298494726419,8.374653203332423,1.690769897928834
1759158624032232200,7.434232177734375,-0.7352250768512487,9.801001180458067,3.132232149817049
1759158624042291200,7.444291259765625,-2.45550339333713,10.56898812470436,4.399542826674878
1759158624052350200,7.45435009765625,-3.1464152812093493,9.870250657773017,4.272604838240146
1759158624062409200,7.4644091796875,-3.1749779433488845,9.008412294396758,3.9452658580139275
1759158624072468200,7.47446826171875,-2.4061416887968776,9.536546526429056,3.7812273884579537
1759158624082527200,7.48452734375,-0.565741055240482,10.16146647747755,3.7090126315966248
1759158624092586200,7.494586181640625,0.5674731397300958,10.536149684941767,3.2198049270689486
1759158624102645200,7.504645263671875,1.1467401776283979,10.90946277309656,2.557697108876705
1759158624112704300,7.514704345703125,1.1894907934658228,11.320692627191542,1.883400547979772
1759158624122763300,7.52476318359375,1.1307042579762636,12.034513096964359,1.5165297678321599
1759158624132822300,7.534822265625,1.27027420283854,11.961528524774312,1.4182611167818306
1759158624142881300,7.54488134765625,0.8537199388504028,11.210642352932691,1.351971512185782
1759158624152940300,7.554940185546875,-0.4156446017973125,10.174454553866386,0.7653945896655321
1759158624162999300,7.564999267578125,-1.552462666478753,9.051486881491542,-0.2177161741318181
1759158624173058300,7.575058349609375,-2.2943968855798245,8.423831367999314,-0.9905047099735588
1759158624183117300,7.585117431640625,-2.5184914721697567,8.332483456122874,-1.2538897620096803
1759158624193176300,7.59517626953125,-2.7629683370530604,9.192140968328713,-0.7349868111159652
1759158624203235300,7.6052353515625,-2.0948183160871268,9.87192239037752,0.6260990047652274
1759158624213294300,7.61529443359375,-1.0897470283616333,10.541026935589313,1.9498183090001344
1759158624223353300,7.625353271484375,1.1694698227655143,11.367947714841366,2.1209959827862677
1759158624233412400,7.635412353515625,-6.334665378585457,9.58329658716619,-1.9709424917019902
1759158624243471400,7.645471435546875,-15.20599209228158,3.2462972126752137,-6.181710028579831
1759158624253530400,7.6555302734375,-4.007275154942274,-5.203899599680304,2.4868986485540865
1759158624263589400,7.66558935546875,0.6584457885533571,-16.892210318255422,18.9914692471385
1759158624273648400,7.6756484375,0.8538087861776351,-30.187726516366002,31.311932790625093
1759158624283707400,7.685707275390625,-5.643911896145344,-27.669367730665204,20.302795006811618
1759158624293766100,7.69576611328125,-3.6445395749032494,-18.702170659232138,5.769996190360188
1759158624303825400,7.705825439453125,-3.4520880808115004,-9.159967129954696,6.111078741517662
1759158624313884200,7.71588427734375,-2.483272274750471,-2.7414193530678745,10.047461328113078
1759158624323942100,7.725942138671875,1.1638765328031033,-0.4471323576033115,12.1163847399652
1759158624334001400,7.73600146484375,6.6955310730993745,0.037564883762598034,12.209440624803303
1759158624344060200,7.74606005859375,2.4314544092297554,-2.8118238456368445,7.868992668914794
1759158624354119400,7.756119384765625,-3.0034570090830326,-6.889341580584645,5.344291236189007
1759158624364178200,7.76617822265625,-5.807935752654076,-9.819532862448693,5.068045606601238
1759158624374237200,7.7762373046875,-9.615675008201599,-15.233159500670432,3.4319416571006176
1759158624384296200,7.786296142578125,-11.782907987636326,-21.571413259136676,0.2292500696569681
1759158624394355200,7.796355224609375,-9.220871388250588,-26.00980019572973,-4.0382983619764445
1759158624404414200,7.806414306640625,-7.106442947286367,-29.94880670108795,-17.484370739996432
1759158624414473200,7.81647314453125,7.989157509952783,-23.334803572118282,-22.114504237282276
1759158624424532200,7.8265322265625,26.314368833482263,-13.980975665795802,-18.444269080108402
1759158624434591200,7.83659130859375,26.749638903856276,-6.503764638662338,-14.585336228418349
1759158624444650200,7.846650146484375,12.591579993492363,-2.9326106179654596,-17.477108640038967
1759158624454709200,7.856709228515625,9.931087696051597,0.20808102490007876,-17.538937027442454
1759158624464768300,7.866768310546875,12.452238158297538,4.299447252458334,-12.794067728430033
1759158624474827300,7.8768271484375,9.026728287810087,5.8245835205942385,-10.815014557117223
1759158624484886300,7.88688623046875,3.5242040534734724,5.888347844496369,-9.503542666971683
1759158624494945300,7.8969453125,0.19353285958766936,6.025519934436678,-8.886771535587311
1759158624505004300,7.90700439453125,-0.9354968893051147,6.884298325720429,-8.823294211933016
1759158624515063300,7.917063232421875,-1.1740661375798285,8.044578368401528,-8.0706451220721
1759158624525122000,7.9271220703125,-1.297787063664198,8.639264509227871,-7.682525509929657
1759158624535181300,7.937181396484375,-1.7240590040683745,9.03125248723626,-7.377792037004232
1759158624545240000,7.947239990234375,-2.650940040719509,9.543876430925726,-7.600482017493247
1759158624555299000,7.957299072265625,-2.637217804837227,9.92211411600113,-7.681389783897996
1759158624565358000,7.967358154296875,-1.1927226880591362,10.263902769601344,-7.411427180102467
1759158624575417000,7.9774169921875,2.703708338832855,11.10152146847844,-6.7406497332423925
1759158624585476000,7.98747607421875,5.7670881939589975,11.919818211770057,-6.596700111991167
1759158624595535000,7.99753515625,3.5113480790317055,9.664787706416845,-7.772222731989622
1759158624605594000,8.007593994140626,-0.11531564744114875,6.128661159959435,-8.993997400075196
1759158624615652000,8.017652099609375,-2.2498457961916922,3.23772461464107,-10.263643241882324
1759158624625711000,8.027711181640624,-0.9853431624919176,0.6372644688367843,-10.408189659982918
1759158624635770000,8.03777001953125,4.5461762801826,1.0563199019908904,-6.868561242884397
1759158624645829000,8.0478291015625,2.9390473730146884,0.12226035201251506,-5.319564206689596
1759158624655888100,8.05788818359375,-0.5195494321037084,-3.5448996354997155,-5.5060208442807195
1759158624665947100,8.067947021484375,-2.353248302999139,-9.025969578397273,-3.668143737852573
1759158624676006100,8.078006103515625,-7.6616212535887955,-25.06554950660467,8.204901032304763
1759158624686065200,8.088065185546874,-12.523096239852904,-46.81178157250881,23.229418951582907
1759158624696124200,8.098124267578125,-14.220636654829978,-51.34834480569362,20.99367883763313
1759158624706183200,8.10818310546875,-5.226285034489631,-42.75539138126373,2.6744045029371977
1759158624716242200,8.1182421875,4.480892783889174,-26.4165759930253,-2.1432316338613626
1759158624726301200,8.12830126953125,5.391106178855896,-12.943211995714902,6.0143263402491804
1759158624736360200,8.138360107421875,0.6622276451796293,-5.748274187895655,7.690883003908396
1759158624746419200,8.148419189453126,-0.04818813071623444,-1.513416604247689,1.9013333872944116
1759158624756478000,8.15847802734375,2.131700916673988,0.7785872487157582,-0.42732123026140034
1759158624766537200,8.168537109375,2.341205398505926,3.560981001728773,-0.4921222768001258
1759158624776596000,8.178595947265626,0.5622211374860256,6.671953213635087,1.0706958525415509
1759158624786655200,8.1886552734375,-1.5271547683514655,8.162748236230016,5.015913268303871
1759158624796714000,8.1987138671875,-3.66393518024683,8.307191778478026,6.9756655268192285
1759158624806773200,8.208773193359375,-5.5840141845434905,8.008169668936729,5.571677850061655
1759158624816832000,8.21883203125,-6.346380366298556,9.072366587913036,4.199458938008546
1759158624826891300,8.228891357421874,-6.0501172000765795,10.371356597626209,3.786339324644208
1759158624836950000,8.238949951171875,-4.91617454470098,11.189728159719705,4.164710280710459
1759158624847008300,8.24900830078125,-3.7920389975905415,12.17518881111145,4.6527208844080565
1759158624857067000,8.25906689453125,-2.6864672811746595,13.30541682987809,3.8622453372389076
1759158624867126300,8.269126220703125,-1.0068424621164798,14.673599033761024,3.4287060361802575
1759158624877185000,8.27918505859375,2.1997883644722402,15.81478449987173,4.1471845608919855
1759158624887244300,8.289244384765626,4.972444713455438,16.363589764010904,5.660211873561144
1759158624897303000,8.299302978515625,4.597113271215558,15.345185458916426,5.42136687708497
1759158624907362300,8.3093623046875,2.817719917938113,13.955394649815558,3.418132619717717
1759158624917421000,8.319421142578125,0.4356107005052268,11.426682812404632,-0.08792517088614403
1759158624927480300,8.329480224609375,-1.2610681292064487,8.316031503015756,-3.197683403892815
1759158624937539000,8.3395390625,-2.7786978211045263,6.972227953585982,-4.499414529007673
1759158624947598300,8.349598388671875,-3.613717735660076,7.433380653235316,-4.197608633966744
1759158624957657000,8.359656982421875,-2.6256507011622188,8.330285069295764,-3.3306218017861244
1759158624967716000,8.369716064453126,0.3591002192113548,8.902661178636551,-1.4413960547842084
1759158624977775000,8.379775146484375,-2.7155302940517663,7.41207541487813,-3.4917022983193395
1759158624987834000,8.389834228515625,-11.168277375411988,1.1502677672326564,-8.655486745232343
1759158624997893000,8.39989306640625,-5.085671864184737,-5.61631661773324,-3.617958734230697
1759158625007952100,8.4099521484375,-0.7075596558123827,-6.94429248343408,7.276070030629635
1759158625018010000,8.420010009765624,-2.5281109489083287,-16.23884811657667,20.875988862276078
1759158625028069400,8.4300693359375,-5.262562801051139,-23.518593620848655,27.498140226387974
1759158625038128000,8.440128173828125,-2.9762276413738724,-21.070863784122466,18.476735763949154
1759158625048187100,8.450187255859374,-5.482062461066246,-11.169414855009316,9.060148326852918
1759158625058246100,8.46024609375,-3.6167689399242398,-4.429372440010309,7.28163584806323
1759158625068305200,8.47030517578125,-1.5203893658697605,0.1669394516944885,8.369331131526828
1759158625078364200,8.4803642578125,3.1021476849377154,2.1131161893218753,10.449862563586235
1759158625088423200,8.490423095703125,4.480889861279726,0.2084843450039625,10.804784255003929
1759158625098482200,8.500482177734375,-3.0797359466433525,-4.907690793994068,8.313845391148329
1759158625108541200,8.510541259765626,-4.794510405015945,-10.010248326528071,7.7529411084145305
1759158625118600200,8.52060009765625,-7.428373054206371,-15.054579880064725,6.287402692151069
1759158625128659200,8.5306591796875,-9.935829337620735,-21.913477807068823,2.0671479266121984
1759158625138718200,8.54071826171875,-10.594151792055367,-26.661729149734974,-4.5808366746753455
1759158625148777200,8.550777099609375,-3.0383775158166886,-27.236763080108165,-9.889667305904625
1759158625158836200,8.560836181640624,10.102557192391156,-25.227361532282828,-20.177599770390987
1759158625168895200,8.570895263671876,16.812175243031977,-15.987183386015891,-21.764127788078785
1759158625178953200,8.580953125,20.265806461632252,-7.2174278720468275,-15.133305626255273
1759158625189012000,8.591011962890626,13.292003221553564,-1.941460230499506,-14.85441971129179
1759158625199071200,8.6010712890625,9.321718949878216,0.2521323480725288,-16.011494820451734
1759158625209130000,8.6111298828125,12.918266939550637,3.773972010502219,-12.305915962696075
1759158625219189200,8.621189208984376,11.867719775742291,5.739288332885503,-10.112488219296932
1759158625229248000,8.631248046875,7.965653884768486,6.446394984233379,-8.17695387171507
1759158625239307300,8.641307373046875,3.3270436510384083,6.85432521226108,-7.941984255367517
1759158625249366000,8.651365966796876,0.5287304443597793,7.470736862683296,-8.04970111824274
1759158625259425300,8.66142529296875,-0.46380175285339353,8.076777925738693,-7.249694649401307
1759158625269484000,8.671484130859374,-0.6456722316980361,8.646068344023822,-7.161209141218662
1759158625279543000,8.68154296875,-0.8064811447482556,9.152788032105564,-7.2075664032459255
1759158625289602000,8.69160205078125,-0.7120224804401397,9.632115270870923,-7.485770181164145
1759158625299661000,8.7016611328125,0.30153380010128017,10.166332037687301,-7.227808396285772
1759158625309720000,8.711719970703125,1.627249319654703,10.558971757602691,-7.085155244585871
1759158625319778300,8.7217783203125,3.7871430422425267,10.954805305123328,-6.925330008810758
1759158625329837000,8.731837158203126,4.768374093240499,10.526554173600672,-7.151508415937423
1759158625339896300,8.741896240234375,2.7293215035170313,7.855288553211093,-7.460394332367182
1759158625349955000,8.751955078125,-1.3025848193347453,5.33087762786448,-7.916340111023187
1759158625360014000,8.76201416015625,-6.67640434782505,3.177677849957347,-9.29294878246784
1759158625370073000,8.772072998046875,-7.321708330732584,0.42941140747368334,-10.113287845242024
1759158625380132000,8.782132080078124,-1.292331720867753,-2.2509031962901354,-8.601545311686396
1759158625390191000,8.792191162109376,0.8104330972444266,-4.097507799053192,-7.457570507118105
1759158625400250000,8.80225,0.17620821529924868,-7.329688223570585,-7.528981546381115
1759158625410309000,8.81230908203125,-0.9748122699968517,-12.889965558695792,-3.1714336948707698
1759158625420368100,8.8223681640625,-8.431783203786612,-26.962414224052427,8.254629232069849
1759158625430427100,8.83242724609375,-12.789161251688002,-41.14631484715938,20.27308492820263
1759158625440486100,8.842486083984374,-16.32232719477415,-42.840591291904445,19.453136326050757
1759158625450544000,8.852544189453125,-9.03166457516849,-34.05268812682628,8.44349585341215
1759158625460603100,8.86260302734375,6.560439881086349,-21.000707128834723,5.8765632986783976
1759158625470662100,8.872662109375,5.56991434752047,-12.072474286568164,7.813807957309484
1759158625480721200,8.88272119140625,0.38382213414423166,-6.569532119080424,8.829197883018852
1759158625490780200,8.8927802734375,0.10687916994206607,-1.9289210669219492,6.312971433171629
1759158625500839200,8.902839111328126,4.253763359647989,1.7408341977804898,4.277772011744976
1759158625510898200,8.912898193359375,5.05272879500389,4.02037487501204,2.5391911458492276
1759158625520957200,8.922957275390624,2.878728221130371,5.743724854028224,1.285230802821368
1759158625531016200,8.93301611328125,0.7067894020922482,6.799106598386168,2.2194021426111457
1759158625541075200,8.9430751953125,-0.4797638766169548,8.02390733629465,4.034210800401866
1759158625551134500,8.953134521484374,-1.2458141537122427,8.71487475374639,4.871183602590858
1759158625561193200,8.963193115234375,-1.6199461570344864,8.67212691438794,3.9782235402420163
1759158625571251500,8.97325146484375,-1.12410697860308,8.560085174050927,2.964319176915288
1759158625581310200,8.983310302734376,-0.23660978477001188,8.843846586096285,2.28748608327806
1759158625591369500,8.993369384765625,0.021176059019565582,9.39073228034973,1.473912276855111
1759158625601428200,9.00342822265625,-0.11315759262442589,9.989701213061808,1.1165728567712008
1759158625611487500,9.013487548828126,-0.373268810621649,10.637909100717305,1.4504502988554537
1759158625621546200,9.023546142578125,-0.6478016449421644,11.514849756157398,1.9795147974751888
1759158625631605500,9.03360546875,-0.149900784740597,12.209791337937116,2.008923116658628
1759158625641664300,9.043664306640625,0.7430294669918716,12.192668353700638,1.9397410054914652
1759158625651723300,9.05372314453125,0.5333510898977518,11.599112093687056,1.5078303285479544
1759158625661782300,9.0637822265625,-0.603918664073944,10.304991151314972,0.2225781176123768
1759158625671841300,9.07384130859375,-2.2977603706635534,7.996816500273346,-1.7004450503773987
1759158625681899300,9.083899169921875,-4.119595712220669,6.325041225671768,-3.0295898137271404
1759158625691958300,9.093958251953126,-5.054486452326178,5.883183593600988,-3.397889749895036
1759158625702017300,9.104017333984375,-4.044144457656145,7.1979340670257805,-2.0860237458653748
1759158625712076300,9.114076171875,-2.039261264038086,9.432177804937957,-0.14700761144920252
1759158625722135300,9.12413525390625,1.2718161715835332,10.660323177099228,0.5532792312154546
1759158625732194300,9.1341943359375,1.9042612574398516,10.518529857099056,-1.4988579175412653
1759158625742253300,9.14425341796875,-6.298377675151825,8.450662676301597,-4.637195690757036
1759158625752312000,9.15431201171875,0.2503605891596526,0.1409545310884714,-2.2467568902656434
1759158625762371300,9.164371337890625,5.366457475289702,-5.146823959761858,4.4645361078500745
1759158625772430000,9.17443017578125,-3.38819399304986,-13.68489428588152,17.453133890211582
1759158625782489300,9.1844892578125,-5.867270569676161,-25.415762289679048,28.008811282444
1759158625792547300,9.19454736328125,-5.4728620865225786,-25.976267343962192,19.720304915213585
1759158625802606300,9.2046064453125,-5.180402404236793,-16.184477059441804,7.9719614604800935
1759158625812665300,9.214665283203125,-4.284270726114511,-6.295709332725405,5.736212578701973
1759158625822724400,9.224724365234374,-3.3518776480436325,-0.9469885896563529,6.027817689985037
1759158625832783000,9.234783203125,-2.195337960934639,1.1313006164342165,5.982737608286738
1759158625842842400,9.24484228515625,2.3179963723540307,1.8864391850233078,6.972018694749474
1759158625852901000,9.254901123046874,1.4160627299547195,-0.29816695401668547,6.2577884751319885
1759158625862960400,9.26496044921875,-2.3934435352653263,-4.019293509516119,5.301209050309658
1759158625873019100,9.27501904296875,-3.688248952770233,-8.705507790464162,4.602582058015465
1759158625883078400,9.285078369140624,-8.702905499011278,-14.132277987897396,1.4099749344736336
1759158625893136400,9.295136474609375,-11.845904249775408,-19.187492169976235,-3.680662150903046
1759158625903195400,9.3051953125,-12.09984043239951,-22.513239351463316,-7.2879206274211406
1759158625913254100,9.315254150390626,-10.182926614135503,-21.87146704981327,-11.715749929642676
1759158625923313400,9.3253134765625,2.998465192145109,-15.471459722745418,-12.303846755206584
1759158625933372200,9.3353720703125,27.42793213317394,-9.775708918291329,-12.409570398437976
1759158625943431400,9.345431396484376,28.581970066595076,-5.667614258772135,-11.010168880426884
1759158625953490200,9.355490234375,13.761878156840801,-5.531435271522402,-13.650382944470643
1759158625963549400,9.365549560546874,10.607056866335869,-2.5884949827224015,-13.062793483906983
1759158625973608200,9.375608154296875,9.722624978357553,2.8877351189285516,-8.80887230334878
1759158625983666200,9.385666259765625,8.089509397017956,4.959907303443551,-6.808070241564512
1759158625993725200,9.39572509765625,5.330953031188249,5.961121404284238,-6.469862369060516
1759158626003784200,9.4057841796875,3.2289901040434836,6.498716707623005,-7.520257557177543
1759158626013843200,9.41584326171875,1.6737025894023476,6.684082042846083,-8.372194704264402
1759158626023902200,9.425902099609376,0.14188801254630087,7.168316342875361,-8.529627491945028
1759158626033961200,9.435961181640625,-1.2761878107964992,7.930792999267577,-8.65523072464466
1759158626044020200,9.446020263671874,-0.8198550055842846,8.756953900063037,-7.959799313521385
1759158626054079200,9.456079345703126,-0.40687392390780147,9.508561371916532,-8.00253721600771
1759158626064138200,9.46613818359375,0.6781705527860671,10.057391185975074,-8.043279560762643
1759158626074197200,9.476197265625,2.7320085506439207,10.570804818737507,-7.865601272910833
1759158626084255200,9.486255126953125,5.131708223694563,10.962201845115423,-7.41106653009653
1759158626094314200,9.496314208984375,5.53013471031785,10.58420673662424,-7.804343378871679
1759158626104373200,9.506373291015626,3.32580914080739,7.424691150823235,-9.362451357761024
1759158626114432300,9.516432373046875,-3.7026398816943167,2.2531033366829156,-11.109883638632297
1759158626124491300,9.5264912109375,-4.6909880712211125,-0.7407540694057941,-10.965130299782752
1759158626134550300,9.53655029296875,2.002066967153549,-2.42667068208456,-7.708189528018235
1759158626144609300,9.546609375,0.9671306294530629,-3.2600293854296205,-6.127352415448427
1759158626154668300,9.556668212890624,-0.9337801485151052,-5.670622208416462,-5.196293216329813
1759158626164727300,9.566727294921876,-0.46785658120214935,-9.084975309595466,-1.5646892569757997
1759158626174785300,9.576785400390625,-3.4735984863519667,-19.967735369205474,8.302178334230184
1759158626184844300,9.58684423828125,-7.661363479435443,-37.04287531996965,20.862060874688623
1759158626194903300,9.5969033203125,-10.832759472644328,-41.48442568902969,22.955362356472016
1759158626204962300,9.60696240234375,-8.923663050132989,-32.65914819432497,12.919751625150441
1759158626215021300,9.617021240234376,-0.4453916514158249,-20.8067183421731,5.682956789332628
1759158626225080300,9.627080322265625,4.380777628189325,-13.490863413643837,6.127369366583228
1759158626235139300,9.637139404296875,0.6238466227285564,-10.01778865890503,6.698175450128317
1759158626245198300,9.6471982421875,-1.5030077306970953,-6.6201990610003465,4.608918567560613
1759158626255257300,9.65725732421875,1.1576484520684927,-3.2350229544669387,3.0641566847175357
1759158626265315300,9.6673154296875,2.7850860608369112,0.08555997612476349,1.3904881437152623
1759158626275374000,9.6773740234375,1.9017320312231778,2.7442893555462358,0.46758364601228386
1759158626285433300,9.687433349609375,0.14666874401681124,4.657258235576749,-0.8305128123946487
1759158626295492000,9.6974921875,-0.6114421183813363,5.612431300732493,-0.8494969143278897
1759158626305551400,9.70755126953125,-1.1874480355918406,6.565573736843467,0.6328465793292969
1759158626315610000,9.717610107421875,-1.8221920460402965,7.600420058172941,2.4116928931832313
1759158626325669400,9.72766943359375,-2.1629497491575775,8.391466390967368,3.688427231946587
1759158626335728000,9.73772802734375,-2.932921583610773,8.302840013009309,3.553248946171999
1759158626345786400,9.747786376953124,-2.9631577319204805,8.795794210588932,3.6764760973900557
1759158626355845000,9.75784521484375,-2.650221663317084,9.827040461599827,3.5719565692514177
1759158626365904400,9.767904296875,-2.1802627030082045,10.791648879098892,3.5564091637685893
1759158626375963100,9.777963134765624,-1.9435627557367086,11.682535057783126,3.6323856112509962
1759158626386022400,9.7880224609375,-1.426487823987752,12.34954701462984,3.575069148313999
1759158626396081200,9.7980810546875,-0.7755215775348245,13.149030336380005,3.176442170682549
1759158626406140400,9.808140380859374,0.5959247427105904,13.781699294120072,3.2769159305617213
1759158626416199200,9.81819921875,2.8081261601626872,14.123526526165008,3.487472113403678
1759158626426257400,9.82825732421875,3.1815093909442425,13.393304372167586,2.8355580647066234
1759158626436316200,9.838316162109376,1.7438899320892989,11.780845794409514,0.2977796351995319
1759158626446375400,9.84837548828125,0.04676233569681644,9.465552251273394,-3.043476884782314
1759158626456434200,9.85843408203125,-1.5248684109799564,7.484366159585118,-5.483059070888161
1759158626466493400,9.868493408203125,-2.87173617028594,6.484388907063007,-6.113423843339085
1759158626476552200,9.87855224609375,-2.411860212574154,6.74559654199481,-4.73200455674231
1759158626486611500,9.888611572265624,0.6081289021801203,6.7737868636906144,-3.492566806194186
1759158626496670200,9.898670166015625,0.7927788556754589,5.546968356218934,-6.184874045568704
1759158626506728200,9.908728271484375,-6.078182434087991,1.7945745557963848,-11.857163310414553
1759158626516787200,9.918787109375,-3.0893951708704233,-5.660985780543089,-7.283959907096624
1759158626526846200,9.92884619140625,1.555935311025381,-2.9748867481589314,2.4236828984454273
1759158626536905200,9.9389052734375,-0.660730684620142,-4.228431934514641,10.114420648664236
1759158626546964200,9.948964111328126,-6.501454023632407,-12.366710915398597,20.989432870626448
1759158626557023200,9.959023193359375,-7.307879711866378,-20.765864938259124,26.3750211628437
1759158626567082200,9.969082275390624,-8.85174581491351,-19.790501317989825,17.176866633313892
1759158626577141200,9.979141357421875,-7.171593172588944,-13.013996427512168,7.952696203517913
1759158626587199200,9.98919921875,-4.690157465615869,-6.890474968528747,6.3552680216312405
1759158626597258000,9.999258056640626,-2.0444851361662146,-2.672281519433856,6.555175092425942
1759158626607317200,10.009317138671875,3.0302725352942943,-0.38211072711646554,7.100533430981636
1759158626617376000,10.0193759765625,4.465288387522101,-0.740547148656845,6.8892381202101705
1759158626627435300,10.029435302734376,-1.4627116684049366,-4.090277263277769,5.617977828943729
1759158626637494000,10.039493896484375,-6.463071978268027,-9.160271081337331,3.2873031768023964
1759158626647553300,10.04955322265625,-10.162020604228973,-13.368630534160136,0.42347061924785373
1759158626657612000,10.059612060546876,-10.344883601242303,-16.30097344110012,-1.212610680029541
1759158626667670300,10.069670166015625,-7.5288897764444345,-16.259431470400095,-2.8133585078582164
1759158626677729000,10.07972900390625,-5.105832608681917,-15.558485679769515,-6.436779014626145
1759158626687788300,10.089788330078125,1.448184545880556,-11.748235318183898,-9.53812415100932
1759158626697847000,10.099846923828125,18.57980333971381,-9.730355864870548,-10.483024828475713
1759158626707906300,10.10990625,24.401993243169784,-8.551244280469417,-10.21685810983181
1759158626717965000,10.119965087890625,17.81175794327855,-6.528795619544386,-9.691639472985267
1759158626728024300,10.1300244140625,13.331371939867735,-2.007290839281678,-8.71811885023415
1759158626738082000,10.14008203125,9.416350705730915,2.309000580471754,-5.969944177687168
1759158626748141300,10.150141357421875,7.611507269376516,4.415134655821323,-3.1988930719435213
1759158626758200000,10.160199951171874,7.374082661092281,4.763600302967429,-4.4185412493944165
1759158626768259300,10.17025927734375,6.187825881111621,4.406622263541817,-7.616336589229107
1759158626778318000,10.180318115234375,3.9362031383752822,4.637008059230446,-8.494925596398115
1759158626788377300,10.19037744140625,2.17045720217824,5.141378553837537,-8.291508471655845
1759158626798436000,10.20043603515625,1.2238522050119935,6.151601890563964,-7.956325499930977
1759158626808494000,10.210494140625,0.9943125047586858,7.470708805632591,-7.781283405801654
1759158626818553000,10.220552978515625,0.691046327906847,8.477114629897475,-7.8449448538511986
1759158626828612000,10.230612060546875,1.209745134530589,9.283579481098055,-7.926903590613603
1759158626838671000,10.240671142578124,3.1671944498658178,10.055396797287463,-7.366466340869665
1759158626848730000,10.250730224609375,6.085075116211176,10.629362221646309,-6.750302527728676
1759158626858789000,10.2607890625,8.373200081914662,10.018057538974285,-6.696340635916591
1759158626868848000,10.27084814453125,5.270592962771654,6.661375705519318,-6.189547298076748
1759158626878906400,10.28090625,-1.293252927365899,4.694641917553544,-6.217001706713438
1759158626888965000,10.290965087890624,-7.457853415712714,3.3834932680130003,-7.708396448767185
1759158626899024100,10.301024169921876,-12.404698993009328,0.7098129876971244,-9.304732743763923
1759158626909083100,10.311083251953125,-7.116276359036564,-0.5276408955574036,-7.561034388723969
1759158626919142100,10.32114208984375,-1.9894827953904866,-3.0989854215145107,-5.7549856682330365
1759158626929201200,10.331201171875,-1.0318314304877072,-7.004202469995618,-4.962404965478181
1759158626939260200,10.34126025390625,0.07972659379616379,-11.843517062377929,-3.557440844903886
1759158626949318100,10.351318115234376,-0.282733968693763,-21.061202806329725,2.2196216305807233
1759158626959377400,10.36137744140625,-2.679890825393796,-33.96679146609306,13.038908750450611
1759158626969436200,10.371436279296875,-3.2097172482967373,-40.819015322160716,19.175173955672978
1759158626979495200,10.3814951171875,-3.9662604229867457,-33.10886296963692,12.722872962266205
1759158626989554200,10.39155419921875,-2.990442044687271,-19.79886699527502,6.255021933028101
1759158626999613200,10.40161328125,-1.467050866653025,-10.605549968904256,8.195709425589442
1759158627009671200,10.411671142578125,-0.44700493183135986,-4.492610109689831,12.158579037094116
1759158627019730200,10.421730224609375,-3.225354085628688,-0.671269614291191,15.115684629368781
1759158627029789200,10.4317890625,-6.427829984495044,-0.7539835533350706,9.249753783863783
1759158627039848200,10.44184814453125,-5.111778949865698,-0.019814707538485524,1.667710070989281
1759158627049907200,10.4519072265625,-0.8812136565841734,1.8577321459770202,-0.29982867668382823
1759158627059966200,10.46196630859375,-0.008860182803869247,4.390012489524484,1.618207935065031
1759158627070025200,10.472025146484375,-2.476657240524888,6.280923851525783,3.2165193295270202
1759158627080083200,10.482083251953124,-3.569608544820547,7.181162380445003,3.1234403560742736
1759158627090142200,10.49214208984375,-2.886351555615663,6.984940135642886,3.0416414860486984
1759158627100201200,10.502201171875,-2.660323370614648,6.290607041150331,3.130108874052763
1759158627110260200,10.51226025390625,-1.9041181957073507,5.3544139862746,3.4279739225134254
1759158627120319200,10.5223193359375,-1.0847693130142986,4.770672433310747,3.513555818209052
1759158627130378200,10.532378173828125,-0.514964515466243,4.793613163915277,3.4890602593779563
1759158627140436200,10.542436279296876,0.35619419557154175,5.467025050932168,3.904080445666611
1759158627150495200,10.5524951171875,0.9135856478787958,6.517474599584936,4.15720911130011
1759158627160554200,10.56255419921875,1.1487937491573392,7.845047145181894,4.174147094358504
1759158627170613200,10.57261328125,0.730763421267271,9.014107291167974,3.4824978321224447
1759158627180672300,10.58267236328125,0.18782412655204533,10.162195960795879,2.337371373300999
1759158627190731300,10.592731201171874,0.8345300852119922,11.401402240675687,0.7767050882309675
1759158627200790300,10.602790283203126,0.7568218455009162,10.723642095321416,-2.9650787631109354
1759158627210848000,10.612847900390625,0.8544486915163695,8.809650886505842,-6.403773986124992
1759158627220907300,10.6229072265625,-0.19721724718883632,6.415399541988968,-8.09513074403107
1759158627230966000,10.632966064453125,-2.6363433600902555,4.9922804637819524,-7.223736032280326
1759158627241025300,10.643025390625,-3.1078035187423225,5.347118568569422,-5.465521660631895
1759158627251084000,10.653083984375,-1.9757835019923746,6.452758089524507,-5.224855878469348
1759158627261143300,10.663143310546875,-0.7277193773962557,8.564380240896345,-3.28254107696712
1759158627271201000,10.673200927734374,0.6553373011440038,9.938754285156726,-0.2942505112253129
1759158627281260300,10.68326025390625,1.333238900795579,11.305380491769313,1.6144317775271833
1759158627291319000,10.693319091796875,2.6865415154546497,13.037346907961368,1.58343677367419
1759158627301378300,10.70337841796875,1.9528619144797323,14.163319607371092,-1.7947762158483265
1759158627311437000,10.71343701171875,2.825097168707847,7.879106066650151,-2.923939527992904
1759158627321496300,10.723496337890625,7.120501867777109,-8.183603977254032,-0.017446517102420327
1759158627331554000,10.733553955078126,-0.13472294322252273,-13.653114999783039,2.8186387863487004
1759158627341613300,10.74361328125,-5.422517800685763,-27.846171573770043,22.625441835319993
1759158627351672000,10.753672119140624,-9.601315058937669,-43.03278208923339,35.36445110887289
1759158627361731300,10.7637314453125,-7.886762134361267,-36.13114976687431,17.090619259446857
1759158627371790000,10.7737900390625,-3.491354507794976,-19.019865320539473,2.1963429001934824
1759158627381849300,10.783849365234374,-3.510825516462326,-6.009864684665203,4.12585886426866
1759158627391907300,10.7939072265625,-3.0440210746616123,0.23433774818480013,5.130250426101684
1759158627401966000,10.803966064453125,-2.054386352455616,3.8372605335861443,4.246343438780308
1759158627412025000,10.814025146484376,-3.0149501707389947,5.07568823030889,2.6707114936381577
1759158627422084000,10.824083984375,-2.9310815087020394,4.699453117227554,1.6049083085089921
1759158627432143000,10.83414306640625,-1.9765292057931423,2.7303952702283856,2.1221822699613866
1759158627442202000,10.8442021484375,-3.4057334491327405,-0.13654898960590361,2.2438756357409058
1759158627452260400,10.85426025390625,-6.404589978682995,-3.37191213581264,1.7428553283445536
1759158627462319000,10.864319091796874,-9.339829191586375,-5.9259875470608465,1.0444755157444625
1759158627472378400,10.87437841796875,-11.863913369196652,-7.181312018048763,-0.5955003067534417
1759158627482437000,10.88443701171875,-10.41535005313158,-6.100370885020494,-2.3571239753887054
1759158627492496100,10.89449609375,-5.516045394688844,-4.249899669957161,-1.8504037027850746
1759158627502554000,10.90455419921875,1.5927705653391777,-3.703780283901095,-2.3911869885101913
1759158627512613400,10.91461328125,5.518245535081625,-4.434969821625947,-4.311254594630003
1759158627522672000,10.924672119140626,6.070771281048655,-4.633807801884412,-5.54585718010664
1759158627532731400,10.9347314453125,5.468940529164672,-3.7326767080396412,-4.72033107008338
1759158627542790100,10.9447900390625,3.938629488739371,-2.4818536401242017,-3.3608889297559856
1759158627552849400,10.954849365234375,4.105118274056911,-1.5301041196763514,-1.419879073372483
1759158627562907400,10.964907470703125,5.06628911832273,-0.10327741912305355,0.4611184320535511
1759158627572966400,10.97496630859375,4.724009466335177,1.9332915370911359,1.2486327182643115
1759158627583025400,10.985025390625,3.8923330169886348,3.572380347621441,1.190342734120041
1759158627593084400,10.99508447265625,2.0964082156270742,4.397493785190582,0.9547086625143885
1759158627603143400,11.005143310546876,-0.35623452758193014,4.71883878569901,0.19242372930198906
1759158627613201400,11.015201416015625,-2.542329443874955,5.097488558706641,-0.5384349690333008
1759158627623260400,11.025260498046874,-4.051735643437505,5.694525062051415,-1.4522813136748969
1759158627633319400,11.0353193359375,-4.1001556832134725,6.350986398789286,-3.6666345023334026
1759158627643378400,11.04537841796875,-3.039021658939123,6.573683393540978,-5.000127670150995
1759158627653437400,11.0554375,-0.8498457277655601,6.364901526895165,-4.780877016460895
1759158627663496400,11.065496337890625,1.7641355783909558,5.047746914938092,-4.957514270827174
1759158627673554400,11.075554443359374,4.829185997077823,3.30203079033494,-4.944657711863518
1759158627683613400,11.085613525390626,7.392814249569177,2.213694870880246,-5.86122836690247
1759158627693672400,11.09567236328125,6.908166692563891,1.4650918415397405,-7.688478280854225
1759158627703731500,11.1057314453125,4.446331758117675,2.2105811227738856,-8.14567493635416
1759158627713790500,11.11579052734375,1.7350258037626742,3.5277117693334814,-7.449232302361726
1759158627723848400,11.125848388671875,-0.10802899756431579,4.51751132671237,-6.064871701616048
1759158627733907500,11.135907470703126,-1.495693900552392,4.542387993815541,-4.670335159292817
1759158627743966500,11.145966552734375,-3.533406766104698,2.6641473128169775,-4.537186041258275
1759158627754025500,11.156025390625,-4.220217063876986,-1.669333142146468,-4.925957687568665
1759158627764084200,11.166084228515626,-2.847003880089521,-9.70103390879631,-5.428810178828239
1759158627774142500,11.176142578125,-1.1997697570264338,-11.28571016113758,-2.2191534285470844
1759158627784201500,11.186201416015624,1.369984869390726,-9.281878522399067,3.036906858742237
1759158627794260500,11.196260498046875,0.5746089829593897,-10.538941361486911,7.026953230985999
1759158627804319500,11.206319580078125,-0.21230229585692284,-11.742427508687973,9.261437791916727
1759158627814378500,11.21637841796875,0.019466478622704744,-13.483961379170417,11.450775635653734
1759158627824436500,11.2264365234375,-0.3988999493539333,-14.419881462323664,13.708311401826142
1759158627834495500,11.23649560546875,-1.912930886107683,-13.081029397821426,13.8870581956923
1759158627844554500,11.246554443359376,-2.1214720758654178,-9.698051678115128,12.251346168118715
1759158627854613500,11.256613525390625,-1.1436837126672268,-5.469146865391731,10.347098939204216
1759158627864672500,11.266672607421874,-0.09729366853833198,-1.2296125221043825,8.871288719773291
1759158627874730200,11.276730224609375,0.25976854203939437,1.6035001952767372,7.985861975538731
1759158627884789500,11.28678955078125,-0.021787176655232905,2.8283459413707255,7.110918046873808
1759158627894848300,11.29684814453125,-0.49751200701445336,2.6474066058963537,5.910896945434809
1759158627904907500,11.306907470703125,-1.3909461166158317,1.6513929963082075,5.0414498606204985
1759158627914966300,11.31696630859375,-2.610795661857724,0.7923281892985105,4.120324026495218
1759158627925024500,11.3270244140625,-4.039148549064993,0.7094008997648954,3.554932953736186
1759158627935083300,11.337083251953125,-4.1620314168900245,0.6192459970653057,3.0949536817803978
1759158627945142500,11.347142578125,-3.8759745873838662,0.8096405586272477,2.213107426381111
1759158627955201300,11.357201171875,-2.40897252830863,1.4593582663238047,1.7828683359116315
1759158627965260500,11.367260498046875,-1.6244541359782219,2.1814140650004146,1.7160162751272319
1759158627975319300,11.3773193359375,-1.3972484316304326,2.877258733099699,2.01727958772406
1759158627985377500,11.38737744140625,-0.9996724243566393,3.0824563115179537,2.5619004057854413
1759158627995436500,11.3974365234375,-1.1195169473990798,3.4257577077686783,2.9274823151662943
1759158628005495600,11.40749560546875,-1.9327716048702597,3.693453535676002,3.114982908852398
1759158628015554300,11.41755419921875,-2.7250170843213795,3.3322517410755155,3.812435888931155
1759158628025612300,11.4276123046875,-2.5509262995675206,3.5977708094656466,3.2112153779000043
1759158628035671600,11.437671630859375,-1.5279218072012066,4.744277178338169,1.7807045820064842
1759158628045730300,11.447730224609375,-1.5131003779053687,5.9674032610327,0.4256132572997361
1759158628055789600,11.45778955078125,-1.4583853296384215,7.189428104487061,-0.6483142706394195
1759158628065848300,11.467848388671875,-1.511859730194509,7.599519309940934,-1.1822037051975727
1759158628075906600,11.477906494140624,-1.404763337305188,6.906010975834727,-1.4500205291360615
1759158628085965300,11.48796533203125,-1.5231158682242034,3.191159262821078,-0.6382225002139806
1759158628096024600,11.498024658203125,-1.7041154094532132,0.3534697390437126,0.04671323585808277
1759158628106083300,11.508083251953124,-2.1756857504814864,0.2616542096555233,-0.29907486264184113
1759158628116142600,11.518142578125,-2.6950077305048703,0.39634909582734107,-1.1418261021018028
1759158628126200300,11.528200439453125,-1.6527058324724435,-0.6144651925295591,-1.3640268377691507
1759158628136259600,11.538259521484376,-0.37206864105165005,-2.1662965753674506,-1.2919848071262239
1759158628146318300,11.548318359375,0.3446721000820398,-2.8666180966198445,-1.1079988704975694
1759158628156377600,11.558377685546875,0.9605286008395254,-2.9207524223893877,-0.8149321622293442
1759158628166436400,11.568436279296876,1.0641780681453645,-3.025888621121645,-0.8326515049237757
1759158628176494300,11.578494384765625,0.691482673497498,-2.7298750457465646,-0.9642073624175042
1759158628186553600,11.5885537109375,0.6294172624677419,-2.500985626095533,-0.9981759752538054
1759158628196612400,11.5986123046875,0.9697906424425542,-2.33450268599689,-1.0857917148645966
1759158628206671400,11.60867138671875,1.5339920670256018,-2.142095031046867,-1.010929585299641
1759158628216729300,11.618729248046876,2.1640974578879772,-2.1219208425462246,-0.8320663985121994
1759158628226788600,11.62878857421875,2.5319062495380638,-2.1664117261797187,-0.5811458373822271
1759158628236847400,11.638847412109374,2.3966161739520726,-1.5469190608769654,0.016130831393972037
1759158628246906600,11.64890673828125,1.787765898694843,-0.45887189523577687,0.903159092541039
1759158628256965400,11.65896533203125,0.9320657458126544,0.45669455119669433,1.4680229265555738
1759158628267023400,11.6690234375,-0.07915230103954672,1.3217618134915827,1.8036778997063636
1759158628277082400,11.679082275390625,-0.9112702105432748,1.3416910873204468,2.0049751096852124
1759158628287141400,11.689141357421875,-1.4001520441174506,1.0058505284696817,2.3830308623224497
1759158628297200400,11.699200439453126,-1.9395202023476361,0.8004179722517728,2.580344701753557
1759158628307258400,11.70925830078125,-2.095285349076986,0.5562859752833843,2.753664502134919
1759158628317317400,11.7193173828125,-1.7935311842232942,0.5125269130557775,2.42928232588768
1759158628327376400,11.72937646484375,-1.3658347639739512,0.578394346717,1.7043603241249918
1759158628337435400,11.739435302734375,-0.6338479383915663,0.3306950126558542,1.260165042886883
1759158628347494400,11.749494384765624,-0.17709084335267541,-0.024445874470472334,1.1352547608874737
1759158628357552600,11.759552734375,-0.2969851968862116,-0.13354863874614237,1.4723643167607485
1759158628367611400,11.769611328125,-0.6492799008011818,-0.34779110888540743,2.1226374663829803
1759158628377670400,11.77967041015625,-0.5416828649133444,-0.6501736347705125,2.4493112606987357
1759158628387729400,11.7897294921875,-0.407859062487632,-0.3487041320770979,2.5143290917932988
1759158628397787400,11.799787353515624,-0.5589047794796526,0.2584726570099592,2.2320850985735654
1759158628407846400,11.809846435546875,-0.6513024926699698,0.49891398276686666,1.8470817187555133
1759158628417905400,11.819905517578125,-0.5597213565595448,0.283783039355278,1.7112430693760514
1759158628427964400,11.82996435546875,-0.3017081337548792,0.20854221267104148,1.6923481070309876
1759158628438023400,11.8400234375,-0.1052834982484579,0.4782768529295921,1.4382834757216274
1759158628448081400,11.850081298828124,0.12737491854727268,0.624838702505827,1.029305492206663
1759158628458140400,11.860140380859375,0.5361550414025783,0.3030330987483263,0.5284231319762765
1759158628468199400,11.870199462890625,0.9193177617900073,-0.042464930763840676,0.2607159058921039
1759158628478258400,11.880258544921874,1.1888647705219686,0.4744020573228597,0.0007432195827364921
1759158628488316400,11.89031640625,1.4359965338282286,0.7802449527949095,-0.7308319564588367
1759158628498375400,11.90037548828125,1.0877255324713886,0.39415363160967826,-1.3570289417058228
1759158628508434400,11.910434326171876,-0.03233414350226521,0.10028875870108604,-0.8865843898370861
1759158628518493400,11.920493408203125,-2.0905530598580837,0.23420739980340002,-0.14997472675964235
1759158628528551400,11.930551513671874,-2.0834763994701206,0.344912338578701,0.32105697734728456
1759158628538610400,11.9406103515625,-1.2560429945208131,-0.04226210166811943,0.16283260089755058
1759158628548668700,11.950668701171875,-0.46061830051168795,-0.3487584926128387,-0.01932327075973153
1759158628558727400,11.9607275390625,0.2870822270311415,-0.23559680833518504,0.4105640836626291
1759158628568786700,11.97078662109375,0.932823870703578,-0.014341829085350036,1.0800441841885446
1759158628578844700,11.9808447265625,0.07901625356972217,0.3017816373825073,1.1581835087932646
1759158628588903700,11.990903564453125,-1.4153215561985968,0.4355342742681503,0.6365168653398752
1759158628598962400,12.00096240234375,-1.8871219065904616,0.547718637946248,0.2141119756273925
1759158628609021700,12.011021728515624,-1.5886749665886162,0.4238794923096895,0.2632645674616098
1759158628619079700,12.02107958984375,-0.9784211081437766,0.18907061948180198,0.7166409340210258
1759158628629138400,12.031138427734374,-0.4418272369325161,0.22760464053750037,0.9202353150263428
1759158628639197700,12.04119775390625,-0.048995209315419196,0.21729951962232588,0.835041541865468
1759158628649256400,12.05125634765625,0.31160511226058,-0.17238544214069842,0.6984561657719314
1759158628659314700,12.061314697265624,0.7539514046311379,-0.524876107019186,0.541045736053586
1759158628669373400,12.07137353515625,0.9781073660194873,-0.4253682695627212,0.31779695263803004
1759158628679432700,12.0814326171875,0.959950362560153,0.0436836589038372,0.031239918524771926
1759158628689491500,12.091491455078126,0.8019130331151187,0.4504103563606739,-0.3328846316546202
1759158628699549700,12.1015498046875,0.6044920800477266,0.6809194861680269,-0.6645436670370399
1759158628709608400,12.1116083984375,0.3745978672683239,0.7789397154152393,-0.7899952163062989
1759158628719667700,12.121667724609376,0.16995675368905067,0.7383926009714603,-0.7084530975207686
1759158628729726500,12.1317265625,-0.15490370759442448,0.39625498780310153,-0.3644229486040771
1759158628739785700,12.14178564453125,-0.49327349266186354,-0.17889409338235854,0.05546542824283242
1759158628749843700,12.15184375,-0.8213800962597131,-0.6522083554685115,0.47930531919449565
1759158628759902500,12.16190234375,-1.029276412242651,-0.8124468482196331,0.7680632243528962
1759158628769961500,12.17196142578125,-1.1253833552144468,-0.49318800633549686,0.4918042968921363
1759158628780020500,12.1820205078125,-0.8794096759021282,-0.2897252888858318,-0.17529373080283403
1759158628790078700,12.19207861328125,-0.5424911125563084,-0.12770634245872498,-0.9879660583414137
1759158628800137500,12.202137451171875,-0.013391834884136915,-0.33050971921682354,-1.5975712436191736
1759158628810196700,12.21219677734375,0.3715881640583277,-0.6475590683579444,-1.8234100435279308
1759158628820255500,12.22225537109375,0.5594137519150972,-0.6092477501422167,-2.0517561500824986
1759158628830313700,12.232313720703125,0.5769571535207331,-0.5417278730988502,-1.981277861624956
1759158628840372500,12.24237255859375,0.41218393994942304,-0.8400643384635448,-1.7747073874183
1759158628850431700,12.252431640625,0.25675606235042214,-0.9269161079645156,-1.5395686981141565
1759158628860489700,12.26248974609375,0.3694891459524631,-0.6335925023257732,-1.1753865725286303
1759158628870548500,12.272548583984374,0.500821277692914,-0.3141220635175705,-0.8368295943260192
1759158628880607500,12.282607421875,0.5147640244580804,-0.16358020439445972,-0.5648699714943767
1759158628890666500,12.29266650390625,0.5713935280442237,-0.021985037314891813,0.23388196724131702
1759158628900724700,12.302724853515626,0.5921253504276275,-0.12315934667885303,1.5021883771382272
1759158628910783500,12.312783447265625,0.18818799142837522,-0.024579145461320874,1.8509173513956367
1759158628920842800,12.3228427734375,-0.624813421934098,0.41281566198170183,1.3217447162263094
1759158628930901500,12.332901611328126,-1.0505125308863819,0.7251227850317955,0.8236853044621646
1759158628940959500,12.34295947265625,-1.0771282967418432,0.6474281354546546,0.5627119166776537
1759158628951018500,12.3530185546875,-0.9612428865887224,0.5682254194021225,0.26408143680244683
1759158628961077500,12.363077392578125,-1.0884423024386167,0.359575070181489,-0.015047347006201743
1759158628971136500,12.373136474609375,-1.1384114713527262,-0.05500234077572822,0.00655322103574872
1759158628981194500,12.383194580078126,-0.49352659064009785,-0.13169628887772558,-0.16113266511186958
1759158628991253500,12.39325341796875,-0.00470320925489068,0.33870120897889133,-0.6295401581950485
1759158629001312500,12.4033125,0.07857552406489848,0.48933366899490355,-0.9008953853927553
1759158629011371500,12.41337158203125,-0.034644758532196285,0.45219197908043857,-0.8236310900568962
1759158629021429500,12.423429443359375,-0.036690585146099325,0.4662374555677175,-0.6478457763448358
1759158629031488800,12.43348876953125,0.37142610536441206,0.39000118810534473,-0.34910642926767466
1759158629041547500,12.443547607421875,0.8080261091679334,0.21139701758027077,-0.09377733098044991
1759158629051606500,12.4536064453125,0.903978738360852,-0.35609073519706724,-0.029182985994964838
1759158629061664500,12.46366455078125,0.4547871101401746,-0.6091665015995502,0.035519349409639835
1759158629071723500,12.4737236328125,0.3314564985476434,-0.5963719019562006,0.10076149077937006
1759158629081782500,12.483782470703124,0.4639459836296737,-0.5726753845483065,0.1686250666938722
1759158629091841500,12.493841552734375,0.13245339085534213,-0.37139994800984855,0.559333964677155
1759158629101899500,12.5038994140625,0.017976970717310903,0.08296879058778285,1.1116919528618454
1759158629111958500,12.51395849609375,0.08559680100381374,0.15574936463832853,1.0810416707932948
1759158629122017500,12.524017578125,-0.05729249753952026,-0.02458323711454868,0.709870709233731
1759158629132075500,12.534075439453124,0.34657077331021424,-0.5529360803335904,0.5946778113894164
1759158629142134800,12.544134765625,0.6423842960685491,-1.104473399785161,0.33968744353726504
1759158629152193500,12.554193603515625,0.3524982636630535,-1.027259811723232,-0.13268237730562688
1759158629162252500,12.56425244140625,0.21812954070568083,-0.7173831306904553,-0.6910185631170869
1759158629172310500,12.574310546875,0.05573416218161582,-0.5482014530271292,-1.436768102722615
1759158629182369500,12.58436962890625,-0.3304439605042338,0.1513596052467823,-1.8347922921553252
1759158629192428500,12.594428466796876,-0.5357523058205843,0.5152870254188776,-1.9078053597874938
1759158629202487600,12.604487548828125,-0.748163030488044,0.7967740627914667,-1.5797126385845244
1759158629212545500,12.614545654296874,-0.8590462484396993,0.6294441504746675,-1.08881844227463
1759158629222604500,12.6246044921875,-0.9763288120396435,-0.029973113459348676,-0.5666165229007601
1759158629232663600,12.63466357421875,-1.2469267911292612,-0.22622516887784003,-0.16916954883411525
1759158629242721500,12.644721435546876,-1.3748925151765345,0.040222704795002936,0.3242718477405607
1759158629252780800,12.65478076171875,-1.283522975990176,0.21494389640688896,0.7859034169480205
1759158629262839600,12.664839599609374,-1.0879666477508843,0.23240765690505502,0.8403528000161051
1759158629272898600,12.674898681640625,-0.9335001625299453,0.19370704711079598,0.7448559517666697
1759158629282956500,12.68495654296875,-0.6731484137751161,0.011684592574834823,0.44108226378411053
1759158629293015600,12.695015625,-0.1305979722470045,-0.09410100997686385,0.43603754761517044
1759158629303074600,12.705074462890625,0.14835048655867575,-0.1277308923780918,0.7246430386908352
1759158629313133600,12.715133544921875,0.23001097102686763,-0.021661796709895133,1.0165333966560661
