time,seconds_elapsed,z,y,x
1759158616638895600,0.0408955078125,1.77727139268741,-9.502980356913804,1.644705773629248
1759158616648954400,0.050954345703125,1.7874784600555895,-9.500809442615509,1.6461777458779512
1759158616659012600,0.0610126953125,1.7971533202432095,-9.498768876698612,1.6474267230257391
1759158616669071400,0.0710712890625,1.8059261170245706,-9.496974394497276,1.6481844095252454
1759158616679130600,0.081130615234375,1.8131882169820368,-9.495500230291485,1.6487069720946252
1759158616689188600,0.091188720703125,1.8186615338265895,-9.494619940325617,1.6477479178041219
1759158616699247400,0.101247314453125,1.8235061973787843,-9.494321249639988,1.6441000628210602
1759158616709306400,0.111306396484375,1.8269652517914772,-9.494060552877187,1.641773081178218
1759158616719364400,0.1213642578125,1.8291800052314995,-9.493727375400066,1.6412210002534091
1759158616729423600,0.131423583984375,1.8302765682965516,-9.493172079604864,1.6432115895487367
1759158616739482400,0.141482421875,1.8295744113765655,-9.492683419305086,1.6468173589557409
1759158616749540400,0.151540283203125,1.827006168323755,-9.492271915894746,1.6520276409499346
1759158616759599400,0.161599365234375,1.823759441487491,-9.491951013377308,1.6574524424776433
1759158616769658400,0.171658447265625,1.8215993408441542,-9.491711943924427,1.661198058746755
1759158616779717400,0.18171728515625,1.821734073139727,-9.491433126983045,1.66263875907436
1759158616789775400,0.191775390625,1.8238859904766083,-9.490925761982798,1.6631708201244473
1759158616799834400,0.20183447265625,1.826867490505427,-9.490247132068871,1.6637779922373592
1759158616809893400,0.211893310546875,1.8294971083566545,-9.48933586244285,1.6660872920930385
1759158616819951600,0.22195166015625,1.831106735510379,-9.48831178009212,1.6701450430512428
1759158616830010400,0.23201025390625,1.83146826229915,-9.487522675541042,1.6742251519717275
1759158616840069600,0.242069580078125,1.830591041073203,-9.487303479832411,1.6764236849293113
1759158616850128400,0.25212841796875,1.828558073940873,-9.487724335592985,1.6762557810164986
1759158616860186400,0.262186279296875,1.825409108390659,-9.488650218266248,1.6744491699859498
1759158616870245400,0.272245361328125,1.821852292691916,-9.48970995645225,1.6723184415675698
1759158616880304400,0.282304443359375,1.8187933435127137,-9.490597845202684,1.6706044772565365
1759158616890362600,0.292362548828125,1.81762546877712,-9.490952065467834,1.6698653493270277
1759158616900421400,0.30242138671875,1.8182380477175115,-9.490765602985023,1.670255663818866
1759158616910480400,0.31248046875,1.8202556711502371,-9.490245963025092,1.6710107199698685
1759158616920538400,0.322538330078125,1.8234942146800457,-9.489570255720615,1.6713139407001434
1759158616930597600,0.33259765625,1.828005262363702,-9.488809208220243,1.6707153902851044
1759158616940656400,0.342656494140625,1.8324612188592553,-9.48823813033402,1.6690686459913848
1759158616950715600,0.352715576171875,1.834770664845407,-9.488080893945693,1.6674280391775071
1759158616960773400,0.3627734375,1.834455023024976,-9.488254496946931,1.6667859418816864
1759158616970832400,0.372832275390625,1.8322224416673183,-9.488588258945942,1.667341383807361
1759158616980891400,0.382891357421875,1.8284414618238805,-9.489079841855167,1.6686965978085995
1759158616990950400,0.392950439453125,1.8244791340641677,-9.489549212932586,1.6703607316285372
1759158617001008400,0.40300830078125,1.8220802562288938,-9.489753211072086,1.6718214518308638
1759158617011067400,0.4130673828125,1.8217578924067317,-9.489712294539808,1.6724055353291332
1759158617021126400,0.42312646484375,1.8231326878912746,-9.489500113093852,1.672109913383424
1759158617031184400,0.433184326171875,1.8249444134883581,-9.489235324677825,1.6716386426098644
1759158617041243600,0.44324365234375,1.826222470600158,-9.488920851901174,1.6720251577094196
1759158617051302400,0.453302490234375,1.826117841181904,-9.488652556353808,1.6736650338709353
1759158617061361700,0.463361572265625,1.823807956804335,-9.488697564539313,1.6759259645402431
1759158617071419400,0.47341943359375,1.8195210732653735,-9.48916985822618,1.6779107086166738
1759158617081478400,0.483478515625,1.8144079680353402,-9.489964223474264,1.6789621173657476
1759158617091537400,0.493537353515625,1.810398440133035,-9.490653374782203,1.6793907180413603
1759158617101596400,0.503596435546875,1.808682868386805,-9.490954988077283,1.6795251580759882
1759158617111654400,0.513654296875,1.8084869074232874,-9.49105201871097,1.6791900809027254
1759158617121713400,0.52371337890625,1.808458265850693,-9.491038574707508,1.679300117148459
1759158617131772400,0.5337724609375,1.8077743752397595,-9.491042081838845,1.6800170332461595
1759158617141831400,0.54383154296875,1.8060032739140093,-9.491130929166077,1.68142850747928
1759158617151889400,0.553889404296875,1.8035105803154408,-9.491283489379287,1.683231319117546
1759158617161948400,0.563948486328125,1.8011681088425218,-9.491440141245722,1.6848564361013472
1759158617172007400,0.57400732421875,1.7997345689080655,-9.491546524229646,1.6857869949497282
1759158617182066400,0.58406640625,1.7987844285763799,-9.491697330877184,1.6859480307303367
1759158617192124400,0.59412451171875,1.7972601416185496,-9.49202407861352,1.6857371644586323
1759158617202183400,0.604183349609375,1.794487023643404,-9.492551901879906,1.6857240127161144
1759158617212242400,0.614242431640625,1.7903418866626917,-9.493258588844537,1.6861505675651132
1759158617222301400,0.624301513671875,1.7858125726699827,-9.493951247283816,1.6870597913645207
1759158617232359400,0.634359375,1.7816678740806877,-9.494549797698856,1.6880699913203716
1759158617242418400,0.64441845703125,1.7782145187564193,-9.495148348113894,1.688345739521831
1759158617252477400,0.6544775390625,1.7756496367044745,-9.495774955579638,1.6875220020487904
1759158617262536400,0.664536376953125,1.7737724446557461,-9.496445986708999,1.685717290714383
1759158617272594400,0.674594482421875,1.7719624726243317,-9.497166117677091,1.6835590897671877
1759158617282653400,0.6846533203125,1.7697212695688007,-9.497791556099056,1.6823922379449008
1759158617292712400,0.69471240234375,1.767289804638177,-9.498200136899948,1.6826453359231353
1759158617302771500,0.704771484375,1.7648919497162103,-9.498448558703064,1.6837562197744846
1759158617312829400,0.714829345703125,1.7628461231023071,-9.498608717700838,1.6849894148312508
1759158617322888400,0.724888427734375,1.7608417975425719,-9.498896886992455,1.6854615623876452
1759158617332947500,0.734947509765625,1.7587085849061608,-9.499359243807197,1.6850770931147039
1759158617343006500,0.74500634765625,1.7564368405818938,-9.499886482551693,1.6844770813949406
1759158617353064400,0.755064453125,1.754420240062475,-9.500346501278877,1.683981260702014
1759158617363123500,0.76512353515625,1.7526875710509717,-9.50065571335852,1.6840465810231864
1759158617373182500,0.775182373046875,1.7506524119615554,-9.500857957932352,1.685019956099987
1759158617383241500,0.785241455078125,1.7487790193051098,-9.500977784919739,1.6862890992529689
1759158617393299500,0.795299560546875,1.7476646283224224,-9.50102922284603,1.6871563836067913
1759158617403358500,0.8053583984375,1.747516159762442,-9.50106780129075,1.6870954471997917
1759158617413417200,0.815417236328125,1.747369590898603,-9.501266538733244,1.6861287941247223
1759158617423476500,0.8254765625,1.7463742962509392,-9.501694408756494,1.6847477150298653
1759158617433535200,0.83553515625,1.7442432755716144,-9.50218540714383,1.684190665668994
1759158617443593500,0.845593505859375,1.7408746759213507,-9.502509232270716,1.6858460316605866
1759158617453652500,0.855652587890625,1.7365037673607469,-9.502657700830698,1.689516098475456
1759158617463711500,0.86571142578125,1.7316225711904465,-9.502817859828472,1.6936159350097177
1759158617473770500,0.8757705078125,1.7271140077248215,-9.503073295894264,1.6967803903900085
1759158617483828500,0.885828369140625,1.724373184584081,-9.503370233014225,1.697903110809624
1759158617493887500,0.895887451171875,1.72359167881757,-9.50363969760537,1.6971835643634199
1759158617503946500,0.905946533203125,1.7238861317194998,-9.503781151902675,1.696098107214272
1759158617514005500,0.916005615234375,1.7236888555817305,-9.503794595906138,1.6962259713776409
1759158617524064500,0.926064453125,1.721944057741016,-9.503778229293227,1.6980847509868442
1759158617534122500,0.93612255859375,1.718277644187957,-9.503947156119347,1.7008531927868722
1759158617544182000,0.94618212890625,1.7137714188098907,-9.50429202403426,1.7034760886363685
1759158617554241000,0.956240966796875,1.7096056774325668,-9.504718140491843,1.7052826996669173
1759158617564300000,0.966300048828125,1.7063246099352836,-9.50522725905776,1.7057253288678824
1759158617574358000,0.97635791015625,1.7044794204600153,-9.505705982485413,1.7049064137004315
1759158617584417000,0.9864169921875,1.703448616107553,-9.506163663125038,1.703382711264491
1759158617594476000,0.99647607421875,1.7016493116006255,-9.506728311270475,1.7020282279156147
1759158617604535000,1.00653515625,1.6979402279496192,-9.50757469896674,1.7010080910876393
1759158617614594000,1.016593994140625,1.692038748820871,-9.508758355793356,1.7002699860714374
1759158617624652000,1.026652099609375,1.6848682726696134,-9.510196279641985,1.699345126311481
1759158617634711000,1.0367109375,1.6782925475411117,-9.511558800166846,1.698227082066983
1759158617644769800,1.046769775390625,1.6732697509430348,-9.512582882517576,1.6974492295622825
1759158617654829000,1.0568291015625,1.6690256836324928,-9.51343453091085,1.696850825277716
1759158617664887800,1.0668876953125,1.6648016361966729,-9.514323588705063,1.6960181738458573
1759158617674946000,1.076946044921875,1.6606266885995864,-9.515269929644464,1.6948011992715297
1759158617685005000,1.087005126953125,1.656336005668342,-9.516178276661037,1.6938970900386572
1759158617695064000,1.09706396484375,1.6508422305576502,-9.516887886235118,1.6952749542631207
1759158617705123000,1.107123046875,1.6448089417427778,-9.517920736414194,1.695337790366262
1759158617715182000,1.11718212890625,1.6397677327051758,-9.51919616317749,1.6930588856488464
1759158617725240000,1.127239990234375,1.634395976538956,-9.52018458969295,1.6926956052944062
1759158617735299000,1.137299072265625,1.6291189129188657,-9.52115548055172,1.6923234109811485
1759158617745358000,1.147358154296875,1.6242323099210858,-9.522070257309078,1.6918809279106557
1759158617755417000,1.1574169921875,1.6191346945211291,-9.523125319319963,1.6908223587684332
1759158617765476000,1.16747607421875,1.612704076951742,-9.52441828173995,1.689681372039765
1759158617775535000,1.17753515625,1.6048412346221506,-9.52594680648148,1.6885542677059768
1759158617785593000,1.187593017578125,1.5957684319809078,-9.527649518746138,1.6875414374016224
1759158617795651800,1.19765185546875,1.5858293678991495,-9.529553891062736,1.686155682131648
1759158617805711000,1.207711181640625,1.5747059163384138,-9.531668106737733,1.6846296416081488
1759158617815769900,1.217769775390625,1.5614816931061446,-9.533757772493361,1.685115671559423
1759158617825829000,1.2278291015625,1.5473758647337554,-9.53657633704543,1.682176403237134
1759158617835886800,1.237886962890625,1.5325075275562703,-9.53987830120027,1.6770570143967867
1759158617845946000,1.247946044921875,1.5145565680630504,-9.543283725729584,1.6739862286493181
1759158617856004900,1.2580048828125,1.4916525162070988,-9.547145077332853,1.6725304768830538
1759158617866064100,1.268064208984375,1.4638615690924226,-9.551249005520344,1.6736584579996763
1759158617876123000,1.278122802734375,1.433752262032777,-9.556097614595293,1.672043277888
1759158617886182100,1.28818212890625,1.4018608938619495,-9.561201075214147,1.6699121110782027
1759158617896239900,1.298239990234375,1.3684504994302986,-9.566401566466688,1.6678392503269015
1759158617906299100,1.308299072265625,1.3314460260294376,-9.572285948330164,1.6640217378653586
1759158617916358000,1.31835791015625,1.2886644305318593,-9.579397241640091,1.6567675289534032
1759158617926417200,1.328417236328125,1.2344050170779228,-9.586831775555014,1.6550794297359883
1759158617936476000,1.338475830078125,1.1583085234124213,-9.591171850585937,1.6846742114022373
1759158617946534000,1.348533935546875,1.0600216791182755,-9.592249708950519,1.7422605773217974
1759158617956593200,1.35859326171875,0.9429952822364867,-9.58924409739375,1.8241560395896435
1759158617966652000,1.36865185546875,0.8150606109146028,-9.581382862499355,1.924362819095701
1759158617976711000,1.3787109375,0.681377678264305,-9.568478957262634,2.037226981731504
1759158617986770000,1.38877001953125,0.5465217928444966,-9.55075040834844,2.1575157414101063
1759158617996829000,1.398828857421875,0.41455213038548827,-9.528884613499045,2.280114239335805
1759158618006888000,1.408887939453125,0.2901834079168737,-9.50465033595264,2.397459492908418
1759158618016946200,1.4189462890625,0.17890879776114596,-9.480728777617216,2.5008278051853177
1759158618027005000,1.4290048828125,0.08587542614894919,-9.460294476875662,2.581825003439188
1759158618037064200,1.439064208984375,0.017544681388913887,-9.446185287502407,2.6343179917424915
1759158618047123000,1.449123046875,-0.019866805335192476,-9.440555757182835,2.6544103471785783
1759158618057182000,1.459181884765625,-0.024369749627495184,-9.44483738002479,2.6390979194954034
1759158618067241000,1.469240966796875,-0.001399446439431631,-9.45826618591845,2.590669988673925
1759158618077299200,1.47929931640625,0.03698630527321947,-9.478120640945434,2.5167893444269893
1759158618087358000,1.48935791015625,0.07466946567022241,-9.499657349970937,2.433374709767848
1759158618097417200,1.499417236328125,0.09864088189620523,-9.519716387659312,2.3527983672745525
1759158618107476000,1.50947607421875,0.10252424440188333,-9.537860531637072,2.277958814867586
1759158618117535200,1.51953515625,0.0852781178429257,-9.555130230867862,2.20512694902122
1759158618127594000,1.529593994140625,0.049064219431020316,-9.572338555300234,2.130333281582594
1759158618137653000,1.539653076171875,-0.0018721325665319454,-9.589404840913414,2.0527353703781963
1759158618147711000,1.5497109375,-0.06133172189376782,-9.605653380402922,1.9743444090999662
1759158618157770000,1.55977001953125,-0.12238583242255262,-9.62018751718998,1.8993185403406618
1759158618167829000,1.5698291015625,-0.17913347336249424,-9.63238415094018,1.831797786514461
1759158618177888000,1.579887939453125,-0.22739746406022457,-9.642240943565964,1.7736546634949744
1759158618187947000,1.589947021484375,-0.2652415666230023,-9.64998995025754,1.7256090099893509
1759158618198006000,1.600006103515625,-0.2926708956173621,-9.655871994033456,1.6878569330915807
1759158618208065000,1.61006494140625,-0.3120207803893834,-9.660319036570192,1.6586938208408653
1759158618218124000,1.6201240234375,-0.3276330312693491,-9.663435707286,1.6373887286141513
1759158618228182000,1.63018212890625,-0.34432317704651505,-9.664954879677294,1.6249566786728797
1759158618238241000,1.640240966796875,-0.36452695696782317,-9.66503905082941,1.6200488867565987
1759158618248300000,1.650300048828125,-0.38873803630173204,-9.663992756646872,1.6206614656969904
1759158618258359000,1.660359130859375,-0.41660577497966583,-9.662029347619415,1.625430872055888
1759158618268418000,1.67041796875,-0.4471941342605278,-9.659255791252852,1.633762062549591
1759158618278477000,1.68047705078125,-0.47896187605168666,-9.655810619235039,1.6450924348592757
1759158618288536000,1.6905361328125,-0.5105222587024792,-9.651812489509583,1.658994557353109
1759158618298595000,1.700594970703125,-0.5398877616574987,-9.647308748349547,1.6758162205554543
1759158618308653000,1.710653076171875,-0.5658546351501718,-9.642388827604055,1.695447972742468
1759158618318712000,1.720712158203125,-0.5883571570005267,-9.637218146967887,1.7170565779604017
1759158618328771000,1.73077099609375,-0.608311419140175,-9.632055065116285,1.738927487376332
1759158618338830000,1.740830078125,-0.627343378803134,-9.6270667553097,1.7596623784996568
1759158618348889000,1.75088916015625,-0.647620589286834,-9.622234512847662,1.7786437039539218
1759158618358948000,1.760947998046875,-0.6710318600125611,-9.617505146238207,1.7954694588094948
1759158618369007000,1.771007080078125,-0.6986610406942665,-9.612980362290143,1.8091067928873001
1759158618379066000,1.781066162109375,-0.7308866092555224,-9.608681788313389,1.8191811737865209
1759158618389123800,1.791123779296875,-0.7673863480046391,-9.60448433662355,1.8263012349247931
1759158618399183000,1.80118310546875,-0.8068204597052187,-9.600386253654957,1.8308470616608856
1759158618409241900,1.811241943359375,-0.847346239100024,-9.59655763527751,1.832605303505063
1759158618419301000,1.821301025390625,-0.8870385633453727,-9.592987375575303,1.8325168945692478
1759158618429359900,1.83135986328125,-0.9247071266781538,-9.589362170815468,1.8328759371399879
1759158618439419100,1.841419189453125,-0.9600367987345904,-9.585358195871114,1.8356446712009609
1759158618449478000,1.851477783203125,-0.9919074894435703,-9.581083587291836,1.8410168657585977
1759158618459537200,1.861537109375,-1.0209982671104372,-9.576396890780329,1.8494785507641731
1759158618469596000,1.871595947265625,-1.0481810191988945,-9.571132102119922,1.8614825845517218
1759158618479655000,1.881655029296875,-1.07492859474048,-9.565215571552514,1.8765857533983885
1759158618489713000,1.891712890625,-1.1024500041987746,-9.558624502724408,1.8941116193473337
1759158618499772200,1.901772216796875,-1.132811824714765,-9.551011105111241,1.9144995967291294
1759158618509831000,1.911830810546875,-1.1680378172010182,-9.542166119876503,1.9373023801676927
1759158618519890200,1.92189013671875,-1.2088183020092547,-9.531964459335803,1.9623380372248589
1759158618529949000,1.931948974609375,-1.255934857971221,-9.520344164168835,1.9889822985224426
1759158618540008200,1.94200830078125,-1.3105078674189745,-9.507458379110693,2.015240044720471
1759158618550066700,1.952066650390625,-1.3711463143855334,-9.493788750198483,2.0392007660225033
1759158618560125700,1.962125732421875,-1.434749017985165,-9.479951363503933,2.059711200740188
1759158618570184700,1.972184814453125,-1.497120426224172,-9.466555875357985,2.076859757809341
1759158618580243700,1.98224365234375,-1.5553120645605027,-9.453719774660467,2.0925071165353057
1759158618590302700,1.992302734375,-1.608430783546716,-9.441596790668369,2.107029562884569
1759158618600360700,2.002360595703125,-1.6580216206677256,-9.430340068116784,2.118968860872835
1759158618610419700,2.012419677734375,-1.707283664225787,-9.419501278716325,2.128045316775888
1759158618620478700,2.022478759765625,-1.756013062211871,-9.408793422219157,2.13574829236865
1759158618630537700,2.032537841796875,-1.8017352412059902,-9.398498238176106,2.1429799971878527
1759158618640596700,2.0425966796875,-1.8379665382772683,-9.389117830890417,2.1533063070215284
1759158618650655700,2.05265576171875,-1.859884647835791,-9.380701300200819,2.1710955000817775
1759158618660714800,2.06271484375,-1.8697294577628374,-9.373187855830787,2.1949590446196496
1759158618670773800,2.072773681640625,-1.8700930303782224,-9.366426691132784,2.2233266225785018
1759158618680832500,2.08283251953125,-1.8618666154332457,-9.360928093716502,2.2531933530539274
1759158618690891800,2.092891845703125,-1.8457278199285267,-9.357234499895572,2.2816290278129276
1759158618700950500,2.102950439453125,-1.8237514043115077,-9.355395594030618,2.3067010713577267
1759158618711009800,2.113009765625,-1.7990598845168948,-9.354966554963589,2.327742544212192
1759158618721067800,2.12306787109375,-1.7730302479863165,-9.355025591674446,2.3473873020112515
1759158618731126500,2.13312646484375,-1.748812337052822,-9.354988766795396,2.3656378289729356
1759158618741185800,2.143185791015625,-1.7302404691822826,-9.354807565009594,2.379963875967264
1759158618751244500,2.15324462890625,-1.718759728616476,-9.354493676754831,2.38950634194687
1759158618761303600,2.163303466796875,-1.7112674731649458,-9.353893372774124,2.3972104865834116
1759158618771362600,2.173362548828125,-1.7052959975399076,-9.35395767018199,2.4012084701783953
1759158618781421600,2.183421630859375,-1.6998969149753451,-9.355474504485725,2.399133417470008
1759158618791480600,2.19348046875,-1.6919183373115956,-9.358810370910167,2.391746229828149
1759158618801539600,2.20353955078125,-1.6788674248196183,-9.363315281113982,2.383301349826902
1759158618811598600,2.2135986328125,-1.6572323699861764,-9.368674762320518,2.3773751746483147
1759158618821657600,2.22365771484375,-1.621639370818436,-9.375251802623271,2.376000086902827
1759158618831716600,2.233716552734375,-1.5726429924592376,-9.383602866861224,2.3759582935877144
1759158618841775600,2.243775634765625,-1.5186176800221205,-9.39364436840415,2.371421819201857
1759158618851834600,2.253834716796875,-1.4724423504330217,-9.404761974745988,2.356429124992341
1759158618861893600,2.2638935546875,-1.4497460961088537,-9.415647525897622,2.3268454492419957
1759158618871952600,2.27395263671875,-1.4643702492669224,-9.424067563718557,2.283192769998312
1759158618882010600,2.2840107421875,-1.5230302357673644,-9.427765833714604,2.228895508752018
1759158618892069600,2.294069580078125,-1.6255692576132714,-9.424455686253308,2.169691770763695
1759158618902128600,2.304128662109375,-1.7636768748380243,-9.411018697053194,2.119573256506771
1759158618912187600,2.314187744140625,-1.925107646113634,-9.382702118629217,2.104575155469775
1759158618922246700,2.32424658203125,-2.098797448851168,-9.335987713727354,2.1458736728027463
1759158618932305700,2.3343056640625,-2.2645710716366767,-9.272273658707737,2.2510173241890965
1759158618942364700,2.34436474609375,-2.392932955394685,-9.197512139973044,2.41868479789719
1759158618952423700,2.354423583984375,-2.4718720520749686,-9.120654525741934,2.6218156530439853
1759158618962482700,2.364482666015625,-2.524367378465831,-9.051081223300098,2.806399190239608
1759158618972541700,2.374541748046875,-2.5904151371300217,-8.98845379447341,2.944115762320161
1759158618982600700,2.3846005859375,-2.6884815436065197,-8.923595830115675,3.0515348112925884
1759158618992659500,2.394659423828125,-2.814819812582433,-8.850795966842771,3.1481089333847163
1759158619002718700,2.40471875,-2.9512884304285047,-8.769272114366293,3.249635124926269
1759158619012777500,2.414777587890625,-3.074896982179582,-8.682570566990972,3.365761211967468
1759158619022836700,2.424836669921875,-3.1690622895643115,-8.597138016638159,3.495228718879819
1759158619032895500,2.4348955078125,-3.2298151566907762,-8.519370886346698,3.6275340795665976
1759158619042954800,2.444954833984375,-3.262973329927027,-8.452465926331282,3.7522313033372163
1759158619053013500,2.455013427734375,-3.278305631354451,-8.395870178884268,3.8642560925394296
1759158619063072800,2.46507275390625,-3.283527165395021,-8.347268352800608,3.9638302732303736
1759158619073131500,2.475131591796875,-3.279717836239934,-8.307600943800807,4.04939404874742
1759158619083190800,2.485190673828125,-3.259718419784307,-8.276585627812146,4.128283753328025
1759158619093249500,2.49524951171875,-3.210210292510688,-8.256404425048828,4.206748802755773
1759158619103307800,2.505307861328125,-3.1191713004529475,-8.252682774177194,4.28186600306034
1759158619113366500,2.515366455078125,-2.9828128649830816,-8.268919038707017,4.347204736672341
1759158619123425800,2.52542578125,-2.812464189366996,-8.30873199365735,4.3846769737154245
1759158619133484500,2.535484619140625,-2.6314418517842886,-8.377583996087312,4.366001207078993
1759158619143543800,2.545543701171875,-2.464434011028707,-8.478501115819812,4.267544924502075
1759158619153602600,2.5556025390625,-2.308249177582562,-8.598689922255277,4.111557659454643
1759158619163661800,2.565661865234375,-2.132570100723952,-8.716402109444141,3.9556089728519317
1759158619173720600,2.575720458984375,-1.9253114981226622,-8.825034918120503,3.8186771214082835
1759158619183779800,2.58577978515625,-1.6905144618630408,-8.930034338730573,3.6833442295938728
1759158619193838600,2.595838623046875,-1.4435191844180226,-9.03366130194366,3.532649517996609
1759158619203897600,2.605897705078125,-1.2068664372891187,-9.130335961800814,3.3690953248262403
1759158619213956600,2.61595654296875,-0.9866562178518623,-9.214692991876602,3.207233907048404
1759158619224015600,2.626015625,-0.76876465062052,-9.282640738943218,3.0678923641145226
1759158619234074600,2.63607470703125,-0.5352191122593358,-9.330552829197048,2.970642826978862
1759158619244133600,2.646133544921875,-0.2693147891449742,-9.357433237338066,2.921696425241232
1759158619254192600,2.656192626953125,0.031344182616844775,-9.366971465533972,2.9033158421590923
1759158619264251600,2.666251708984375,0.34465945979617535,-9.366030385291577,2.8860113638758658
1759158619274310700,2.676310546875,0.6396310518376529,-9.361094682455063,2.8515155122950673
1759158619284369700,2.68636962890625,0.8925062541667371,-9.357999639049172,2.7931489557832476
1759158619294428700,2.6964287109375,1.0836421356152743,-9.361145535859466,2.7138682060584425
1759158619304487700,2.70648779296875,1.2018671676971018,-9.377293537583947,2.6062013198047875
1759158619314546700,2.716546630859375,1.268711191305518,-9.4105195153594,2.4500803453750906
1759158619324605700,2.726605712890625,1.331808283470571,-9.46000046236515,2.214739849888533
1759158619334664700,2.736664794921875,1.4313998536877333,-9.513157467535137,1.902976624456793
1759158619344723700,2.7467236328125,1.5576391923338173,-9.550042552340031,1.5939945541761815
1759158619354782500,2.756782470703125,1.694708406421542,-9.563333411067724,1.3568379491783678
1759158619364841700,2.766841796875,1.8388558883324264,-9.556604395073652,1.208431348518282
1759158619374900500,2.776900390625,1.9893407565712928,-9.538520456850527,1.1088411665406077
1759158619384959700,2.786959716796875,2.1545088146790863,-9.511022793594002,1.0338885822132229
1759158619395018500,2.7970185546875,2.335109273587912,-9.473025948154925,0.9896607334300875
1759158619405077800,2.807077880859375,2.520501058426499,-9.426256013673543,0.9814139332842081
1759158619415136500,2.817136474609375,2.6935300591677427,-9.375486780422925,1.0077443793922662
1759158619425195800,2.82719580078125,2.8559073175132275,-9.318910906720161,1.0826344929426908
1759158619435254500,2.837254638671875,3.007929770582914,-9.25522257066369,1.2097936498474329
1759158619445313800,2.847313720703125,3.1254113638862964,-9.196276460698247,1.3530341729812323
1759158619455372500,2.85737255859375,3.190942989721894,-9.15210531053841,1.492393836093694
1759158619465431800,2.867431884765625,3.2046351227268577,-9.125071757662296,1.6228927318803965
1759158619475490600,2.877490478515625,3.176561997669935,-9.113680595076083,1.738003796660155
1759158619485549600,2.887549560546875,3.1213886842414733,-9.113945968014,1.8339290994547306
1759158619495608600,2.897608642578125,3.0537659313455223,-9.12047624656558,1.913582481884211
1759158619505667600,2.90766748046875,2.977084258203208,-9.133015410143136,1.9736684095345436
1759158619515726600,2.9177265625,2.888608979153633,-9.154074564784764,2.007299168718606
1759158619525785600,2.92778564453125,2.788562504775822,-9.182903768905996,2.0170798273682595
1759158619535844600,2.9378447265625,2.680425370661914,-9.217516817125677,2.00576246067062
1759158619545904000,2.947904052734375,2.573974582199752,-9.254564399015903,1.9743563917987048
1759158619555963400,2.95796337890625,2.481571316051483,-9.289995193359255,1.9256658645182847
1759158619566022100,2.968022216796875,2.4069838387094435,-9.324324163940549,1.8530504179015754
1759158619576081200,2.9780810546875,2.3375696723520756,-9.362670553469657,1.745440522532165
1759158619586140200,2.98814013671875,2.2510316449753938,-9.408708082023262,1.6060624469801783
1759158619596199200,2.99819921875,2.141765652962029,-9.457097142139077,1.4651028013251721
1759158619606258400,3.008258544921875,2.0308217908643185,-9.498917929780482,1.347847271862626
1759158619616317200,3.018317138671875,1.9280498370453714,-9.537539629119633,1.2199796013623476
1759158619626376400,3.02837646484375,1.810357815861702,-9.583702245357632,1.0225698272760957
1759158619636435200,3.038435302734375,1.6632041378721594,-9.634670216050743,0.7597778457622975
1759158619646494500,3.048494384765625,1.475307238344848,-9.682764677134156,0.4877814345842227
1759158619656553200,3.05855322265625,1.2384493240326642,-9.724603584954142,0.2621552727791481
1759158619666612500,3.068612548828125,0.9589550679124891,-9.758483642724157,0.15093614653716794
1759158619676671200,3.078671142578125,0.6552344983566551,-9.782175483956932,0.2237855023744516
1759158619686730500,3.08873046875,0.40168417324498296,-9.789317172405124,0.42226219330616294
1759158619696789200,3.098789306640625,0.24037145712478086,-9.784518247690796,0.6130167472869158
1759158619706848300,3.10884814453125,0.15617281421478837,-9.774788296315073,0.7742678511466831
1759158619716907300,3.1189072265625,0.1174064274416305,-9.758298349285125,0.9655041242297738
1759158619726966300,3.12896630859375,0.12045664532510562,-9.730074709841608,1.2171765266403556
1759158619737025300,3.139025390625,0.17434521617265417,-9.685257078471778,1.528322204695642
1759158619747084300,3.149084228515625,0.24865552054112774,-9.621095279684662,1.882305738480389
1759158619757143300,3.159143310546875,0.2524569403843954,-9.539846152496338,2.257867190083861
1759158619767202300,3.169202392578125,0.12375737650408408,-9.446202823159098,2.6314067804709076
1759158619777261300,3.17926123046875,-0.16220023954445495,-9.347730173969268,2.9604081409513947
1759158619787320300,3.1893203125,-0.6077947383223101,-9.25298502086997,3.1911183462888
1759158619797379300,3.19937939453125,-1.183789440019056,-9.159038909193873,3.29863588719964
1759158619807438300,3.209438232421875,-1.789688391190022,-9.049441054877638,3.3279169267416
1759158619817497300,3.219497314453125,-2.2805492697522043,-8.926008736476302,3.3609333534196018
1759158619827556400,3.229556396484375,-2.511006377111375,-8.81561943952143,3.4856977972075343
1759158619837615400,3.239615478515625,-2.421435704040527,-8.727602133372425,3.759785079717636
1759158619847674400,3.24967431640625,-2.1060081108823416,-8.637797359284757,4.1380642658472055
1759158619857733400,3.2597333984375,-1.8575231794014573,-8.505143039029836,4.514701822249591
1759158619867792400,3.26979248046875,-1.8059182259790598,-8.372361877524853,4.776256955444812
1759158619877851100,3.27985107421875,-1.8571265812993047,-8.297333232286572,4.886281510740519
1759158619887910400,3.289910400390625,-1.9336150699570773,-8.281676813471316,4.883168054895103
1759158619897969200,3.29996923828125,-1.963510149744153,-8.312990235623717,4.817592005395889
1759158619908028400,3.3100283203125,-1.9149990706838667,-8.37617296024561,4.7268254005387424
1759158619918087200,3.320087158203125,-1.7976377427592873,-8.459856036582588,4.622740172164142
1759158619928146400,3.330146484375,-1.6354922473430633,-8.555870771226287,4.504735139508545
1759158619938205200,3.340205078125,-1.4481165952108799,-8.657407484161853,4.372946496172249
1759158619948264400,3.350264404296875,-1.250866907057166,-8.757835943594575,4.2315526968836785
1759158619958323200,3.3603232421875,-1.055344846413657,-8.852909013473987,4.084437597338855
1759158619968382500,3.370382568359375,-0.8682386588726192,-8.94151025699079,3.932674087466299
1759158619978441200,3.380441162109375,-0.6910138869419693,-9.022688657030463,3.779413617034256
1759158619988500500,3.39050048828125,-0.520878050358966,-9.096596773806214,3.6264290409341453
1759158619998559200,3.400559326171875,-0.3538072273697704,-9.163919666972756,3.473868827725947
1759158620008618200,3.4106181640625,-0.18399908837117254,-9.224847890666126,3.3224545696824785
1759158620018677200,3.42067724609375,0.0022927862560623907,-9.279085676810144,3.173160957054794
1759158620028736300,3.430736328125,0.23304493189528583,-9.324707610300182,3.027525574673712
1759158620038795300,3.440795166015625,0.5224465783173218,-9.363295991891622,2.8681235327467323
1759158620048854300,3.450854248046875,0.843871840987727,-9.401863915216921,2.6576760709762572
1759158620058913300,3.460913330078125,1.116357387389615,-9.448490057313442,2.3770116020329297
1759158620068972300,3.47097216796875,1.3607700279302894,-9.49741337043643,2.029244750805944
1759158620079032000,3.481031982421875,1.5745419579483568,-9.543079727590083,1.6188994244605301
1759158620089091300,3.49109130859375,1.6895577456600963,-9.58887175695002,1.1701849852975457
1759158620099150000,3.501150146484375,1.6274876584552227,-9.639537529826164,0.775237865222618
1759158620109209300,3.511209228515625,1.4692849093154072,-9.67906406905055,0.572128345124796
1759158620119268000,3.52126806640625,1.3086331595882772,-9.706783850625158,0.48603192403577267
1759158620129327400,3.531327392578125,1.1925599717780948,-9.731196407347918,0.2280511787286028
1759158620139386000,3.54138623046875,1.091294696195051,-9.742749482497572,-0.24145276782177388
1759158620149445400,3.5514453125,0.9881788243092596,-9.73215853037834,-0.6920795434121042
1759158620159504100,3.561504150390625,0.9301492446668446,-9.711358903455734,-0.9973479999970644
1759158620169563400,3.5715634765625,0.9645442662216722,-9.68874433606565,-1.1697311771154404
1759158620179622100,3.5816220703125,1.109962425655499,-9.664323011514544,-1.2406494644254444
1759158620189681400,3.591681396484375,1.3421638193987309,-9.638117141634226,-1.2147724611733108
1759158620199740200,3.601740234375,1.5902543447345494,-9.611793782854079,-1.1202296257130802
1759158620209799200,3.611799072265625,1.8000277066357433,-9.590483868321776,-0.9761699682161211
1759158620219858200,3.621858154296875,1.9726031183905899,-9.57385831221342,-0.7876857703201472
1759158620229917200,3.631917236328125,2.1118151897259057,-9.559163431906699,-0.5770718659415841
1759158620239976200,3.64197607421875,2.2178015755467118,-9.545705399918555,-0.36225992535129187
1759158620250035200,3.65203515625,2.295382389485836,-9.533004908299446,-0.15307362435674293
1759158620260094200,3.66209423828125,2.3483627229146657,-9.521183537602424,0.05146688752542249
1759158620270153200,3.6721533203125,2.3818451596692203,-9.509558566260337,0.25593985059671104
1759158620280212200,3.682212158203125,2.394049976725876,-9.499120758876204,0.45344618039261547
1759158620290271200,3.692271240234375,2.3782266769111153,-9.493200136655568,0.6273332227353007
1759158620300330200,3.702330322265625,2.3236014988847074,-9.496826510459185,0.7625977985538542
1759158620310389200,3.71238916015625,2.2279880385182795,-9.512030509331822,0.8530700966395437
1759158620320448300,3.7224482421875,2.1033757165521383,-9.536287583231925,0.8974625613998621
1759158620330507300,3.73250732421875,1.968170542770624,-9.564721650555729,0.9015524610619992
1759158620340566300,3.742566162109375,1.8387629493519664,-9.593081483599542,0.873004996491596
1759158620350625300,3.752625244140625,1.7200016915015874,-9.620143093526362,0.815387139455229
1759158620360684000,3.76268408203125,1.6090978691533206,-9.645705989328027,0.7358963271763175
1759158620370744300,3.772744384765625,1.500523804926872,-9.669904611039161,0.641686961454153
1759158620380803300,3.78280322265625,1.391082748607546,-9.693755442225932,0.5161193480571732
1759158620390862300,3.7928623046875,1.2837252205640077,-9.716206343486904,0.3431625357693061
1759158620400921300,3.80292138671875,1.1852507447432725,-9.733872348558902,0.13160373348975554
1759158620410980400,3.81298046875,1.1029777543999255,-9.744001528385281,-0.09083256449913606
1759158620421039400,3.823039306640625,1.0392741477090865,-9.746938750880956,-0.2957639845281839
1759158620431098000,3.83309814453125,0.9843065129205584,-9.746399821698665,-0.45738056069947775
1759158620441157400,3.843157470703125,0.9197588566210121,-9.746270642361043,-0.5784798695759847
1759158620451216100,3.853216064453125,0.8459927055992186,-9.745071787965298,-0.6987554409794509
1759158620461275400,3.863275390625,0.7876292178273201,-9.740506672006845,-0.820091152427718
1759158620471334100,3.873334228515625,0.7190374737687408,-9.745354696559906,-0.8254982721682638
1759158620481393400,3.883393310546875,0.5825403239479288,-9.770447052240371,-0.6077868838094175
1759158620491452200,3.8934521484375,0.4526950332317501,-9.793928465592861,-0.21075603452930225
1759158620501511400,3.903511474609375,0.36637422880232334,-9.79835037368834,0.1687422085338272
1759158620511570200,3.913570068359375,0.3046790393244475,-9.79307097198069,0.416314354285039
1759158620521629400,3.92362939453125,0.2554645064362325,-9.787672912329434,0.5537062609884887
1759158620531688200,3.933688232421875,0.18126255781305953,-9.784830382379889,0.6282002878934144
1759158620541747200,3.943747314453125,0.09619886817210353,-9.77934522896707,0.7249328884828835
1759158620551806200,3.95380615234375,0.012973838942573639,-9.764010881713032,0.913412775529921
1759158620561865200,3.963865234375,-0.11968361512599512,-9.732354929733276,1.1989015228245408
1759158620571924200,3.97392431640625,-0.32341238136701284,-9.679335871729254,1.5415191015295684
1759158620581983000,3.98398291015625,-0.5642468711599707,-9.607325697529316,1.8844849822156131
1759158620592042200,3.994042236328125,-0.8832890746187418,-9.523170327505468,2.1678126790188252
1759158620602102300,4.004102294921875,-1.3357996911942958,-9.422015307363868,2.3688959539860486
1759158620612161300,4.014161376953125,-1.869587272813171,-9.28715149436593,2.534528122474253
1759158620622220300,4.02422021484375,-2.2932265266261993,-9.124181530824304,2.767819868737459
1759158620632279000,4.034279052734375,-2.4931360816389323,-8.976041472145914,3.0635484896913168
1759158620642338300,4.04433837890625,-2.4792893425941465,-8.853446773612498,3.4117420418977735
1759158620652397000,4.05439697265625,-2.3521894415959714,-8.735392641118167,3.7855636640965935
1759158620662456300,4.064456298828125,-2.2818268884725867,-8.617736568030715,4.086349276179075
1759158620672515000,4.07451513671875,-2.2494005366422236,-8.53870570141375,4.266271543565392
1759158620682574300,4.08457421875,-2.205029918387532,-8.509953654181956,4.346137107440829
1759158620692633000,4.094633056640625,-2.1205051305294034,-8.527662913873792,4.3534813327237964
1759158620702692400,4.1046923828125,-1.986274062477052,-8.58012842964828,4.31352516991049
1759158620712751000,4.114751220703125,-1.8069522452019153,-8.6554551810503,4.241272711387277
1759158620722810400,4.124810302734375,-1.5969162868417799,-8.741555839923024,4.14794210126102
1759158620732869000,4.134869140625,-1.377458712402731,-8.82804579037428,4.04210155365169
1759158620742928400,4.144928466796875,-1.1639498172350227,-8.909457414647937,3.9290164417415854
1759158620752987100,4.154987060546875,-0.974558368301019,-8.984049422034621,3.8088676750555632
1759158620763046100,4.165046142578125,-0.8120179552830755,-9.052536098283529,3.6827418797865508
1759158620773105200,4.175105224609375,-0.6760305450826883,-9.117074913689494,3.548563126443326
1759158620783164200,4.1851640625,-0.5557443792199716,-9.180819948369264,3.40206937366724
1759158620793223200,4.19522314453125,-0.42218832435235376,-9.244152895116805,3.2461949213445185
1759158620803282200,4.2052822265625,-0.24598379884753374,-9.305116190123558,3.086212156920135
1759158620813342200,4.21534228515625,-0.01084934961037943,-9.361569314229488,2.9208409774556756
1759158620823401200,4.225401123046875,0.27569678179966284,-9.412904949191212,2.737078985776007
1759158620833460000,4.2354599609375,0.5942463611695915,-9.457956973838806,2.522758189703524
1759158620843519200,4.245519287109375,0.9108926824677736,-9.49776700617969,2.2656280333437024
1759158620853578000,4.255577880859375,1.1926182047713547,-9.535974864020943,1.952743256536126
1759158620863637200,4.26563720703125,1.4478957920670508,-9.568360299319028,1.587597400484979
1759158620873696000,4.275696044921875,1.664119937542826,-9.59146352700889,1.185294145493582
1759158620883755300,4.28575537109375,1.7582045809067786,-9.617193011549114,0.7672644021254033
1759158620893814000,4.29581396484375,1.6510538274817168,-9.65735317250192,0.4241883025305345
1759158620903873300,4.305873291015625,1.3935004772737623,-9.703965870594978,0.24817097016088663
1759158620913932000,4.31593212890625,1.095156193928793,-9.744910459923744,0.08807134702433832
1759158620923991300,4.3259912109375,0.9052220894854516,-9.76172014042735,-0.24449869312262162
1759158620934050000,4.336050048828125,0.8347286765240133,-9.752119368389248,-0.6080996395530178
1759158620944109300,4.346109375,0.833029690586403,-9.731142631334066,-0.8839211619772016
1759158620954168000,4.35616796875,0.8458332041885703,-9.711183546888828,-1.071383834805712
1759158620964227000,4.36622705078125,0.8794898284662515,-9.695168231633305,-1.1834683913711457
1759158620974286000,4.3762861328125,0.9855944338392466,-9.68010568705797,-1.2225077316004782
1759158620984345000,4.386344970703125,1.1791969245970249,-9.662719083449243,-1.1881657554071396
1759158620994404000,4.396404052734375,1.407615219604969,-9.644194415721296,-1.0855874975293873
1759158621004464000,4.406464111328125,1.607478158996999,-9.629445759400724,-0.927458617343381
1759158621014523400,4.4165234375,1.7593172183237968,-9.621109308210015,-0.7137652324542403
1759158621024582100,4.42658203125,1.8769718301065266,-9.613888124784827,-0.4695898347355425
1759158621034641200,4.43664111328125,1.9582854008331894,-9.606258945080638,-0.23510809323647988
1759158621044700200,4.4467001953125,2.0119784125760196,-9.598006665042043,-0.02432556799247395
1759158621054759200,4.45675927734375,2.0545238612301646,-9.587646014547348,0.16230521602258086
1759158621064818200,4.466818115234375,2.093449511951953,-9.575082885572314,0.3250393615143373
1759158621074877200,4.476877197265625,2.127334099766612,-9.561765723359585,0.4663520949233323
1759158621084936200,4.486936279296875,2.1500701015792787,-9.549423543658852,0.5967429637582973
1759158621094995200,4.4969951171875,2.1440347669377924,-9.543207737883925,0.7075790911652148
1759158621105054200,4.50705419921875,2.1080818484164774,-9.54552887430787,0.7805425475019961
1759158621115113200,4.51711328125,2.05131571283862,-9.556409164762496,0.7984479873530567
1759158621125172200,4.527172119140625,1.9879886113099752,-9.572965162765978,0.7593534098051488
1759158621135231200,4.537231201171875,1.9256468675568699,-9.591841712671517,0.6773663967963308
1759158621145290200,4.547290283203125,1.8567286680229007,-9.61199778099358,0.5765694693773985
1759158621155349200,4.557349365234375,1.7681868996083736,-9.634179802185296,0.4759232024755329
1759158621165408300,4.567408203125,1.6561404830962418,-9.658292499178648,0.38078813674319534
1759158621175467300,4.57746728515625,1.525327552924305,-9.68331588127613,0.2778003482164815
1759158621185526000,4.587526123046875,1.38799340429008,-9.706715461564064,0.1534606691792607
1759158621195586300,4.59758642578125,1.2472582150407134,-9.727010646095872,0.001217624027237616
1759158621205645000,4.60764501953125,1.0965987939525395,-9.743329912734032,-0.18805477523645384
1759158621215704300,4.617704345703125,0.9096960930943488,-9.753839031788706,-0.4532959217343479
1759158621225763000,4.62776318359375,0.7068257885798811,-9.748191965812444,-0.8022180074110626
1759158621235822000,4.637822021484375,0.5362885681217536,-9.728966456338762,-1.109056855117902
1759158621245881000,4.647881103515625,0.37729324383214113,-9.72270388881266,-1.2235422622799872
1759158621255940000,4.657940185546875,0.18343436716049907,-9.74510452119112,-1.0815179830681532
1759158621265999000,4.6679990234375,0.003088920482013782,-9.772506322857737,-0.81761387559399
1759158621276058000,4.67805810546875,-0.14618876934698782,-9.788796363401412,-0.5731146162157877
1759158621286117000,4.6881171875,-0.26630285744527354,-9.795151869907974,-0.39302294707931573
1759158621296176000,4.698176025390625,-0.3451721585586667,-9.797638426026701,-0.23981455389438194
1759158621306235100,4.708235107421875,-0.3903243556451052,-9.79876246162057,-0.047869726116559465
1759158621316294100,4.718294189453125,-0.4082702736370265,-9.795669756302237,0.22039023391297086
1759158621326353200,4.728353271484375,-0.37629696280378844,-9.782156194734572,0.5815705290677026
1759158621336412200,4.738412109375,-0.30886067239064724,-9.746250768616795,1.0419181594118476
1759158621346471400,4.748471435546875,-0.2793636702767573,-9.673716278281807,1.584788042152673
1759158621356530200,4.7585302734375,-0.36334695340301837,-9.557750642499327,2.165121832499653
1759158621366589200,4.768589111328125,-0.6055542659191414,-9.408812711441517,2.6977640434756873
1759158621376648200,4.778648193359375,-1.020367129600048,-9.247831291368604,3.0994957091242075
1759158621386708200,4.788708251953125,-1.5657437344647942,-9.089141781625152,3.332616774995625
1759158621396767200,4.798767333984375,-2.141957814533263,-8.93324804008007,3.4321228588864203
1759158621406826200,4.808826171875,-2.5372151696011422,-8.783657198071479,3.546866259397566
1759158621416885200,4.81888525390625,-2.579484285531938,-8.66271318935454,3.8044717781841753
1759158621426944300,4.8289443359375,-2.412794570814818,-8.548149237063527,4.15667807316333
1759158621437003000,4.8390029296875,-2.340290037226677,-8.425598377671838,4.438774766866863
1759158621447062300,4.849062255859375,-2.3515981977045533,-8.328681141230463,4.612316393305361
1759158621457121000,4.85912109375,-2.3972756607741115,-8.263088432857394,4.705830543304979
1759158621467180300,4.86918017578125,-2.4176849732048806,-8.228179032039641,4.756287641866505
1759158621477239000,4.879239013671875,-2.362034251523018,-8.238597550201415,4.766202594420314
1759158621487298300,4.88929833984375,-2.241715388967097,-8.29996591887772,4.7175917082473635
1759158621497357000,4.899357177734375,-2.0797465652920306,-8.39780494633913,4.617565984396636
1759158621507416300,4.909416259765625,-1.8936859412811695,-8.511950965479016,4.486762844966352
1759158621517475000,4.91947509765625,-1.7036109670624136,-8.627617910575866,4.339620565153658
1759158621527534300,4.929534423828125,-1.5211301012344658,-8.737632528999447,4.184532879294455
1759158621537593000,4.939593017578125,-1.3472294322252272,-8.838996223455666,4.02833723219335
1759158621547651300,4.9496513671875,-1.1767406905513256,-8.931013997417688,3.8759047370180486
1759158621557710300,4.95971044921875,-1.0014157608926295,-9.014499505355953,3.7291198923408984
1759158621567770400,4.969770263671875,-0.8103324864141642,-9.09076499891281,3.5877234627038237
1759158621577829400,4.979829345703125,-0.5907655333165079,-9.160029673796892,3.4518472577929495
1759158621587888400,4.989888427734375,-0.32971929949149487,-9.222404004645346,3.317967195135355
1759158621597947400,4.999947509765625,-0.034467933810700194,-9.281287570768594,3.166522834214568
1759158621608006400,5.01000634765625,0.2639128205035813,-9.340554583251476,2.9756928038448094
1759158621618065400,5.0200654296875,0.5068494154086336,-9.402456035891175,2.7399446043401956
1759158621628124400,5.03012451171875,0.6593138035595416,-9.470359943816065,2.4592662530019878
1759158621638183400,5.040183349609375,0.7769907002393156,-9.540403201857208,2.1324578725211323
1759158621648242400,5.050242431640625,0.9525045765988528,-9.603935470569134,1.739983133909106
1759158621658301400,5.060301513671875,1.2041596625484525,-9.64812357186377,1.2783093329951167
1759158621668360400,5.0703603515625,1.4806640892028808,-9.662715576317906,0.7809883185081183
1759158621678419500,5.08041943359375,1.629024074242264,-9.664057054054737,0.35022290260959416
1759158621688478500,5.090478515625,1.6413820360340177,-9.667245036441088,0.14360529219242743
1759158621698537500,5.100537353515625,1.5777144505046308,-9.678584176579117,0.07881046533193439
1759158621708596500,5.110596435546875,1.520083953182399,-9.687135147303342,-0.13832351586460134
1759158621718655200,5.1206552734375,1.4850691922940313,-9.680093412098287,-0.5106229060653596
1759158621728714500,5.130714599609375,1.4433334525875747,-9.662159696000813,-0.8542948161289096
1759158621738773200,5.140773193359375,1.4012757874503732,-9.642056819170714,-1.1124471551433206
1759158621748832500,5.15083251953125,1.4240778402365744,-9.614579614180325,-1.3046942127041519
1759158621758892300,5.160892333984375,1.5413355616562068,-9.580333645707368,-1.4184041785143315
1759158621768951300,5.170951416015625,1.7336572918884454,-9.542979774346946,-1.447881617411226
1759158621779010300,5.18101025390625,1.919130325269699,-9.512377715334296,-1.4149239351831375
1759158621789069300,5.1910693359375,2.0528475985810157,-9.493947155630588,-1.349507021768391
1759158621799128300,5.20112841796875,2.170933441387862,-9.48223099887371,-1.242873277954757
1759158621809187300,5.211187255859375,2.2813109017744657,-9.47260976856947,-1.1116066126659512
1759158621819246300,5.221246337890625,2.3620742912724615,-9.46656464318633,-0.9874954451549798
1759158621829305300,5.231305419921875,2.413992402297258,-9.464825690564513,-0.8718423093877732
1759158621839364400,5.2413642578125,2.44307382761389,-9.46725496353805,-0.7568727719705551
1759158621849423400,5.25142333984375,2.450566959848255,-9.47340997903645,-0.6477727841738611
1759158621859482400,5.261482421875,2.4300023107253015,-9.485186926069854,-0.5446870151653885
1759158621869541400,5.271541259765625,2.379895486906171,-9.503265019074082,-0.4409398961713537
1759158621879600400,5.281600341796875,2.3059186888083816,-9.52561304448247,-0.34031606029700484
1759158621889659400,5.291659423828125,2.2163462621718644,-9.549433480530977,-0.2578920441104099
1759158621899718400,5.301718505859375,2.123102015154809,-9.57186100091636,-0.20564813519734887
1759158621909777400,5.31177734375,2.042668149872124,-9.58958195104599,-0.1944465403664857
1759158621919836200,5.321836181640625,1.9830365418605505,-9.6013700039953,-0.22724388093370942
1759158621929895400,5.3318955078125,1.9420517666518686,-9.60761620490849,-0.3041958771836944
1759158621939954200,5.3419541015625,1.9018993506141006,-9.61126829767525,-0.4203532178796828
1759158621950013400,5.352013427734375,1.8372665733143687,-9.616704351249336,-0.5602036601837724
1759158621960073500,5.362073486328125,1.7370765988126395,-9.625847442647814,-0.7042787344455719
1759158621970132200,5.37213232421875,1.61585026602298,-9.637089552152156,-0.828190506926924
1759158621980191500,5.38219140625,1.4865530011110006,-9.648922028765082,-0.926732202764973
1759158621990250200,5.392250244140625,1.3366143685780465,-9.660605452296137,-1.0278833504490554
1759158622000309500,5.4023095703125,1.1635907746642826,-9.667261987575888,-1.1664003521922974
1759158622010368300,5.4123681640625,1.0299787883583456,-9.662767014244197,-1.3192594752818345
1759158622020427500,5.422427490234375,0.8783809173762798,-9.667935941314697,-1.3891932815991341
1759158622030486300,5.432486328125,0.6502416585054248,-9.705598440232873,-1.2445650304339826
1759158622040545500,5.442545654296875,0.39299591294191777,-9.758525143778323,-0.8872044214315712
1759158622050604300,5.452604248046875,0.16082823880519717,-9.79288684758544,-0.4938634213790297
1759158622060663600,5.46266357421875,-0.017295173882052768,-9.804517664146422,-0.20372646468607708
1759158622070722300,5.472722412109375,-0.15015311553385108,-9.805487970483302,-0.014738491119584068
1759158622080781600,5.482781494140625,-0.2590880489619449,-9.801693838897346,0.17338316620746627
1759158622090840300,5.49284033203125,-0.3310916472906247,-9.791734170418977,0.42745855637285857
1759158622100899600,5.502899658203125,-0.327321079243347,-9.77056395661831,0.7741627102717756
1759158622110958300,5.512958251953125,-0.2799461098072119,-9.730524791696666,1.1869814409933983
1759158622121017300,5.523017333984375,-0.24622140699569134,-9.666150811463593,1.6356348706841468
1759158622131076400,5.533076416015625,-0.30672420835122466,-9.576649988758563,2.0890378329895434
1759158622141135400,5.54313525390625,-0.5320641553597525,-9.466754028278588,2.5035674592822788
1759158622151194400,5.5531943359375,-0.9573002133775502,-9.33724560483396,2.840737513171136
1759158622161253400,5.56325341796875,-1.524112770307064,-9.18347660035789,3.084028090879321
1759158622171313400,5.5733134765625,-2.073127585543692,-9.010427141350506,3.268749867501855
1759158622181372400,5.583372314453125,-2.3119515392318366,-8.851135574060677,3.5330838177606463
1759158622191431200,5.59343115234375,-2.1611273560360074,-8.729857218822836,3.91018110062927
1759158622201490400,5.603490478515625,-1.8906781377673147,-8.624769535407424,4.267213208329677
1759158622211549200,5.613549072265625,-1.784180295293033,-8.535076989522576,4.487712985298037
1759158622221608400,5.6236083984375,-1.7745104035414754,-8.473165600010752,4.607276061050594
1759158622231667200,5.633667236328125,-1.7790601758003233,-8.443706281292439,4.65930756932199
1759158622241726500,5.6437265625,-1.7408208999074994,-8.454827979287504,4.65358159289062
1759158622251785500,5.653785400390625,-1.651927979967743,-8.501640583866834,4.600397699713707
1759158622261844500,5.663844482421875,-1.5236055514372884,-8.574035373470187,4.509425635412335
1759158622271903500,5.673903564453125,-1.368781192689389,-8.660853825223445,4.39163190741986
1759158622281962500,5.68396240234375,-1.202887231459841,-8.750632295826078,4.260264412105083
1759158622292021500,5.694021484375,-1.0326453041538595,-8.837508615246415,4.123401534244418
1759158622302080500,5.70408056640625,-0.8607903886932879,-8.918650774928928,3.9858611955136056
1759158622312139500,5.714139404296875,-0.6919143429130316,-8.993509908819197,3.848171219179034
1759158622322198300,5.7241982421875,-0.5318004263896495,-9.063938951307534,3.705749830408394
1759158622332257500,5.734257568359375,-0.3814117485342547,-9.131434278431534,3.55553062736839
1759158622342316300,5.74431640625,-0.23416189842754973,-9.196060772120951,3.398236663636565
1759158622352375600,5.75437548828125,-0.0783678635304328,-9.257303468590974,3.2352056175574657
1759158622362434300,5.764434326171875,0.10348852285677566,-9.314998701712488,3.0643904934734105
1759158622372493600,5.77449365234375,0.32076942911017686,-9.372131624776124,2.8689117605149743
1759158622382552300,5.78455224609375,0.5613795355627313,-9.430031440559029,2.632440799693763
1759158622392611600,5.794611572265625,0.7573802100360393,-9.490994735565781,2.3489931297726927
1759158622402670300,5.80467041015625,0.9052219433549791,-9.554070492681861,2.0175914301522075
1759158622412730400,5.81473046875,1.0647909393467008,-9.609802901297806,1.6395982213571667
1759158622422789400,5.824789306640625,1.2399722958162427,-9.64996832294762,1.229208617478609
1759158622432848400,5.834848388671875,1.3763821692124008,-9.673718031847477,0.8337338933330029
1759158622442907400,5.844907470703125,1.3896294810593128,-9.690192196786404,0.5826547441078349
1759158622452966400,5.85496630859375,1.3272677174314855,-9.701135615605116,0.544709701921232
1759158622463025400,5.865025390625,1.2066741295874117,-9.719500708857177,0.495616146797873
1759158622473084400,5.87508447265625,1.0843629972357303,-9.74424644305706,0.2102850560166873
1759158622483143400,5.885143310546875,0.976767787978798,-9.755972536686063,-0.19317443807143717
1759158622493202400,5.895202392578125,0.8681091872740536,-9.754923904415964,-0.5081621419750154
1759158622503261400,5.905261474609375,0.7893877519324421,-9.75032722427547,-0.69164210184291
1759158622513320400,5.915320556640625,0.7793918430969119,-9.741756379806995,-0.8130795200999825
1759158622523379200,5.925379150390625,0.8514580583330243,-9.728882285186648,-0.8911910799149423
1759158622533438500,5.9354384765625,0.9830223913941531,-9.71421955358386,-0.9154187815900892
1759158622543498000,5.945498046875,1.1189082409162074,-9.70235726635456,-0.8846899543926119
1759158622553557200,5.95555712890625,1.2429689934141934,-9.694704705774784,-0.7988093680113554
1759158622563616000,5.965615966796875,1.3683400247931479,-9.68710066051185,-0.6768264447007328
1759158622573675300,5.97567529296875,1.4834827998854219,-9.678267950236798,-0.5484546971358358
1759158622583734000,5.985734130859375,1.587078929568827,-9.668363226816057,-0.41752928303275255
1759158622593793300,5.995793212890625,1.683339747928083,-9.657225746729969,-0.2734494412642903
1759158622603852000,6.00585205078125,1.7746341760516167,-9.644086279171704,-0.1125195595823694
1759158622613911000,6.0159111328125,1.84549810282588,-9.631294602137803,0.05185321539530996
1759158622623970000,6.025969970703125,1.8827131502375005,-9.6221982724905,0.19770484804268926
1759158622634029000,6.036029052734375,1.8820261908866465,-9.619435237517953,0.30791352773364633
1759158622644088000,6.046088134765625,1.8534376636534928,-9.622748892110586,0.3712974374834448
1759158622654147000,6.05614697265625,1.8161244165644048,-9.629482584279774,0.38096937506161627
1759158622664206000,6.0662060546875,1.7807479827567934,-9.637689856132864,0.3380196199228987
1759158622674266000,6.07626611328125,1.747904282297194,-9.646343702709673,0.2515257970141247
1759158622684324900,6.086324951171875,1.713610675290227,-9.654732176348567,0.14168360341484657
1759158622694384000,6.096384033203125,1.6699563886113464,-9.663387191969155,0.024001425488467794
1759158622704443000,6.10644287109375,1.599881274127215,-9.674746790373325,-0.10024805223136209
1759158622714502100,6.116502197265625,1.4966665449768304,-9.68907751354277,-0.22837500385548917
1759158622724561000,6.126560791015625,1.3621573906354605,-9.705309101897477,-0.3491187407599762
1759158622734620200,6.1366201171875,1.1902080748897046,-9.723965287050603,-0.44529951615296304
1759158622744679000,6.146678955078125,0.9778347596231848,-9.744137721985577,-0.5157543872023
1759158622754738200,6.15673828125,0.7229744478914887,-9.763050512248277,-0.574934196325764
1759158622764797000,6.166796875,0.49317682735435664,-9.772087805184722,-0.6583809066236018
1759158622774856200,6.176856201171875,0.3057540664111264,-9.772888600173593,-0.7533814227234572
1759158622784915000,6.1869150390625,0.06230130214486271,-9.780027950534224,-0.719431222326681
1759158622794974200,6.19697412109375,-0.20446522728940472,-9.796249017494917,-0.40256727622244504
1759158622805033000,6.207032958984375,-0.4162529794866219,-9.797672328296303,0.05228742382780183
1759158622815092000,6.217092041015625,-0.5696781389610841,-9.782892692315578,0.3753194960737601
1759158622825151000,6.22715087890625,-0.7072383879687637,-9.768091429024935,0.5045487007182091
1759158622835210000,6.2372099609375,-0.8052071792896837,-9.757311091813445,0.5629391860948875
1759158622845269000,6.24726904296875,-0.8228992686510086,-9.747388832736014,0.6940096346918493
1759158622855328000,6.257327880859375,-0.7584261388923973,-9.73128291658759,0.9472685025762766
1759158622865387000,6.267386962890625,-0.6494258851431309,-9.698722124722599,1.297474490583688
1759158622875446000,6.277446044921875,-0.5592139915592969,-9.643974635490775,1.6886143273301422
1759158622885505000,6.287505126953125,-0.5380823196707293,-9.568881692844629,2.0778210040569305
1759158622895564000,6.29756396484375,-0.6714012047816068,-9.474726906853913,2.439085780891031
1759158622905623000,6.307623046875,-1.047457600295171,-9.357831881266831,2.7393814174994824
1759158622915682000,6.31768212890625,-1.657366663890332,-9.209265706130862,2.9347841626122593
1759158622925741000,6.327740966796875,-2.367913518819958,-9.005165859821439,3.0774001971721647
1759158622935800000,6.337800048828125,-2.8161975306764244,-8.771388668128848,3.3618694652259347
1759158622945859000,6.347859130859375,-2.719227102743089,-8.595648654863238,3.8588901815921064
1759158622955918000,6.35791796875,-2.3573111685238777,-8.469929686829447,4.344395816731453
1759158622965976800,6.367976806640625,-2.2042374528355895,-8.376255377832054,4.59891827481091
1759158622976036000,6.3780361328125,-2.229576769014448,-8.326657526448368,4.676122802783548
1759158622986094800,6.3880947265625,-2.2966534323349594,-8.306222641184926,4.680001105521619
1759158622996154000,6.398154052734375,-2.3119120840042826,-8.307390515920519,4.670407055485248
1759158623006212900,6.408212890625,-2.2453667510814963,-8.33624076282978,4.651427045205235
1759158623016272100,6.418272216796875,-2.1160791307806965,-8.395514789575337,4.605206561300158
1759158623026332200,6.428332275390625,-1.946713913244009,-8.477288817420602,4.529488472492993
1759158623036391000,6.438390869140625,-1.7605245482869445,-8.569827400386332,4.430461404290795
1759158623046450200,6.4484501953125,-1.5772195065945387,-8.663210617482662,4.316424983005225
1759158623056509000,6.458509033203125,-1.404077839259058,-8.753737276104092,4.191779489421844
1759158623066568200,6.468568115234375,-1.2458221908882259,-8.83880508479774,4.061259843108058
1759158623076627000,6.478626953125,-1.1034865807048975,-8.918643760666251,3.9256218308672306
1759158623086686200,6.488686279296875,-0.9697011375281959,-8.994347528687118,3.785730545096099
1759158623096745000,6.498744873046875,-0.8156901409897953,-9.065295042091607,3.6504032062396403
1759158623106804200,6.50880419921875,-0.6182238874759525,-9.132791538259386,3.518562540455162
1759158623116863000,6.518863037109375,-0.39735626357588916,-9.20176921289563,3.3674843824982643
1759158623126922200,6.528922119140625,-0.22278604300832375,-9.276617825391888,3.1725553923770784
1759158623136981000,6.53898095703125,-0.1393959308690857,-9.35906639149785,2.925546963189542
1759158623147040300,6.549040283203125,-0.05632365250736475,-9.447869295066594,2.6277330603942275
1759158623157099000,6.55909912109375,0.08649352151467464,-9.537829551976918,2.2787509881585835
1759158623167158000,6.569157958984375,0.2906130497721024,-9.621763388204574,1.8728544579155741
1759158623177217000,6.579217041015625,0.5689635974835604,-9.68471581120193,1.4328081130504606
1759158623187276000,6.589276123046875,0.8886309471033513,-9.707781044968963,1.0675616461690514
1759158623197335000,6.5993349609375,1.14733076393269,-9.693343354293704,0.9450582791808992
1759158623207394000,6.60939404296875,1.2945707319661974,-9.665757428231835,1.0332570063114166
1759158623217453000,6.619453125,1.30856754700616,-9.660401454156636,1.0652085802368818
1759158623227512000,6.629511962890625,1.250246875462681,-9.688621001946926,0.8590126384310424
1759158623237571000,6.639571044921875,1.1563500097557902,-9.724915135121345,0.5091942249691114
1759158623247630000,6.649630126953125,1.0298126380112023,-9.750594935300946,0.18915524729164315
1759158623257689000,6.659689208984375,0.920186507448554,-9.76328665909171,-0.043108831857680344
1759158623267748000,6.669748046875,0.8928541177563368,-9.76373557190299,-0.20650973872905595
1759158623277807000,6.67980712890625,0.9547005522731691,-9.754920981806515,-0.31691326513867824
1759158623287866000,6.6898662109375,1.0649612544123084,-9.741730076321959,-0.36735052648857236
1759158623297925000,6.699925048828125,1.2062952132724225,-9.726440152731538,-0.3341021907508373
1759158623307984100,6.709984130859375,1.3539353596046566,-9.70994786761403,-0.23271869561560452
1759158623318043000,6.72004296875,1.4882228340193628,-9.692500473728776,-0.10501577808982691
1759158623328102100,6.73010205078125,1.583225030619651,-9.677972766682505,0.024875096200592816
1759158623338161000,6.740160888671875,1.6316209588676691,-9.668659579414129,0.15883958573862908
1759158623348220200,6.75022021484375,1.6447718246027827,-9.663311204123497,0.2924435714012012
1759158623358279000,6.76027880859375,1.634582439021766,-9.660449969473481,0.41741990437414495
1759158623368338200,6.770338134765625,1.5994804382413625,-9.661191727751493,0.5229070719685405
1759158623378397000,6.78039697265625,1.5433650216571986,-9.666075992661714,0.5961304578831419
1759158623388456200,6.790456298828125,1.4816199286229907,-9.673479546916484,0.6316504283472896
1759158623398515000,6.800514892578125,1.434575414983928,-9.68113386106193,0.6229330150149762
1759158623408574200,6.81057421875,1.4250442010506987,-9.68521850002706,0.5798123968213796
1759158623418633000,6.820633056640625,1.4516320559859275,-9.684811088269948,0.5172670202549546
1759158623428692200,6.830692138671875,1.4970546675115823,-9.682060328257084,0.4323267834637314
1759158623438751000,6.8407509765625,1.528401991933584,-9.68204922234118,0.303775003156811
1759158623448810000,6.85081005859375,1.5131293117389082,-9.688284317338466,0.1339545800653752
1759158623458869000,6.860868896484375,1.4421489189781247,-9.699926239815353,-0.04504951759667601
1759158623468928000,6.870927978515625,1.3200197921298444,-9.715386259275673,-0.1979862770662643
1759158623478987000,6.880987060546875,1.1463464290704577,-9.733937230488657,-0.32666911814063787
1759158623489046000,6.8910458984375,0.9326349240027367,-9.75034359088838,-0.4810121596449986
1759158623499105000,6.90110498046875,0.7325175714582204,-9.756457689854502,-0.6673408965401351
1759158623509164000,6.9111640625,0.588164191711694,-9.75429788147211,-0.8234843019973486
1759158623519223000,6.92122314453125,0.41922604048065837,-9.758170923513173,-0.8790488067004829
1759158623529282000,6.931281982421875,0.23318079670201985,-9.776940505912899,-0.7262605568900704
1759158623539341000,6.941341064453125,0.05875755142366979,-9.799595989835261,-0.36722229699902237
1759158623549400300,6.951400390625,-0.07312005340429023,-9.806375274711847,0.006614704290375812
1759158623559459300,6.961459228515625,-0.1722104143673554,-9.80150094667375,0.26699604560751466
1759158623569518300,6.971518310546875,-0.27410706492280584,-9.791847567665576,0.4636366984847933
1759158623579577000,6.9815771484375,-0.38731826916430145,-9.77565163514614,0.6760219233848154
1759158623589636400,6.99163623046875,-0.4631166566660627,-9.7487045915097,0.9584675766564905
1759158623599695000,7.001695068359375,-0.4856595835920423,-9.707847680464386,1.3008496661052107
1759158623609754400,7.01175439453125,-0.5260959676703438,-9.65226315588653,1.651480528461188
1759158623619813000,7.021813232421875,-0.6394011155392975,-9.576807225146888,2.0115392905063927
1759158623629872400,7.031872314453125,-0.8900110032849013,-9.467728426268696,2.395910948292166
1759158623639931100,7.04193115234375,-1.2932374375358222,-9.314078664258123,2.783139018422365
1759158623649990400,7.051990478515625,-1.7973884441733359,-9.12260215267837,3.1173586980730295
1759158623660049200,7.062049072265625,-2.234205743989348,-8.917765224266052,3.4135324324458836
1759158623670108400,7.0721083984375,-2.383031446844339,-8.731718921041487,3.774734519307315
1759158623680167200,7.082167236328125,-2.248971935966611,-8.587441383010148,4.167540535700321
1759158623690226400,7.092226318359375,-2.109337109174579,-8.48646698013246,4.438579244294762
1759158623700285200,7.10228515625,-2.045190215695649,-8.43312877317667,4.56835917815715
1759158623710344200,7.11234423828125,-2.0164142030663785,-8.415831016895174,4.612834864221513
1759158623720403200,7.1224033203125,-1.9565819579161703,-8.428247430875897,4.615933999280632
1759158623730462200,7.132462158203125,-1.8490235004730522,-8.464650869643688,4.593605847616494
1759158623740521200,7.142521240234375,-1.7072800109639763,-8.522114047574997,4.541932651263475
1759158623750580200,7.152580322265625,-1.5428499117419123,-8.592181271013617,4.468157805478572
1759158623760639200,7.16263916015625,-1.3687237634137273,-8.666679754897952,4.38014312967807
1759158623770698200,7.1726982421875,-1.19805213945359,-8.741668652647734,4.279989980055391
1759158623780757200,7.18275732421875,-1.033790820927173,-8.8149694511801,4.171090629397332
1759158623790816300,7.192816162109375,-0.8796229533266275,-8.887116988024115,4.051639197325707
1759158623800875300,7.202875244140625,-0.7246763564385473,-8.958302986359596,3.923521643717587
1759158623810934300,7.212934326171875,-0.5530210552033037,-9.028968760213255,3.787120538149774
1759158623820993300,7.2229931640625,-0.35233583964295684,-9.098214145874977,3.6426258502364157
1759158623831052300,7.23305224609375,-0.12220891408622264,-9.164698834651707,3.487658575886488
1759158623841111300,7.243111328125,0.1053142039139755,-9.228896289274095,3.314626944796741
1759158623851170300,7.25317041015625,0.282241490735393,-9.291486308699845,3.1239380764633413
1759158623861229000,7.26322900390625,0.34700744769442826,-9.352465970319509,2.9293954553112385
1759158623871288300,7.273288330078125,0.339249015587382,-9.415545234566926,2.720812326107919
1759158623881347000,7.28334716796875,0.3894721957951784,-9.485841006064414,2.457141808193922
1759158623891406300,7.29340625,0.542429591627419,-9.558858896002173,2.1223526580922303
1759158623901465000,7.303465087890625,0.7993406253438442,-9.620953240865468,1.722987867705524
1759158623911524400,7.3135244140625,1.1563985981378704,-9.65116308569014,1.299301998271793
1759158623921583000,7.3235830078125,1.5032808485500513,-9.63915408346653,0.998623207564652
1759158623931642400,7.333642333984375,1.7336279196634887,-9.60698258318007,0.9331696884665638
1759158623941701000,7.343701171875,1.7717565747886894,-9.594892332413792,0.9845412715245038
1759158623951760400,7.353760498046875,1.6663018116265533,-9.622212885537744,0.8982588994093239
1759158623961819100,7.363819091796875,1.517629107376188,-9.670703652462363,0.5870945166535675
1759158623971878400,7.37387841796875,1.3612541581854223,-9.70965151501596,0.20014020369714125
1759158623981937200,7.383937255859375,1.2002469460841267,-9.732148593506217,-0.12282823329465463
1759158623991996400,7.393996337890625,1.0796995354693382,-9.74109177841842,-0.3402235962405801
1759158624002055200,7.40405517578125,1.0466651347432285,-9.739186821579933,-0.47235655950251965
1759158624012114200,7.4141142578125,1.0913988872218876,-9.731178871691226,-0.5323451642582193
1759158624022173200,7.424173095703125,1.17330289812237,-9.722439100396633,-0.5176110844522714
1759158624032232200,7.434232177734375,1.2582082097306846,-9.716007021522522,-0.43187202543355524
1759158624042291200,7.444291259765625,1.3399553495690226,-9.710516607412695,-0.2842094480738044
1759158624052350200,7.45435009765625,1.4029872675433754,-9.705199796304106,-0.10534742119698784
1759158624062409200,7.4644091796875,1.4290065288104117,-9.701683312615751,0.07534680324278306
1759158624072468200,7.47446826171875,1.4308040797516703,-9.698454413697123,0.25135637699766084
1759158624082527200,7.48452734375,1.431843359671533,-9.692503980860113,0.41903997985664754
1759158624092586200,7.494586181640625,1.4391669805578886,-9.683964116051792,0.565727172845602
1759158624102645200,7.504645263671875,1.4457314536400139,-9.676299280512332,0.6704348439674824
1759158624112704300,7.514704345703125,1.449068635238707,-9.671835286840796,0.7253813629027456
1759158624122763300,7.52476318359375,1.446653390790522,-9.67188438667953,0.7295304454062134
1759158624132822300,7.534822265625,1.438615338024497,-9.676113402551412,0.6881873582791537
1759158624142881300,7.54488134765625,1.4255598954878748,-9.683141693753004,0.6123211297055706
1759158624152940300,7.554940185546875,1.4017567028351128,-9.69247358572185,0.5113135552106425
1759158624162999300,7.564999267578125,1.3595795029714703,-9.70405647148788,0.39144535903166977
1759158624173058300,7.575058349609375,1.2982592112205922,-9.71684990208745,0.2602732949574478
1759158624183117300,7.585117431640625,1.221133520637825,-9.729500709345936,0.12666972941998392
1759158624193176300,7.59517626953125,1.1391012071825564,-9.740262926378845,0.010291794501076219
1759158624203235300,7.6052353515625,1.0539392173994333,-9.749518830502033,-0.08052015532664954
1759158624213294300,7.61529443359375,0.9574673866380006,-9.75872037408948,-0.1448894685177598
1759158624223353300,7.625353271484375,0.8527327544439584,-9.767573542630672,-0.1942621967755258
1759158624233412400,7.635412353515625,0.7153244445949792,-9.776777424305676,-0.2707783406252041
1759158624243471400,7.645471435546875,0.5205580246243625,-9.784414202794432,-0.40578667666036633
1759158624253530400,7.6555302734375,0.29551424755081535,-9.787543732991814,-0.5357739696631207
1759158624263589400,7.66558935546875,0.037219556906668,-9.794909293323755,-0.47830538490433244
1759158624273648400,7.6756484375,-0.16368068736055866,-9.804270995908976,-0.14092459260793402
1759158624283707400,7.685707275390625,-0.3107665790772065,-9.798838449466228,0.23780874876361338
1759158624293766100,7.69576611328125,-0.4511915333336219,-9.78643431044519,0.4387674475030973
1759158624303825400,7.705825439453125,-0.5739115022145211,-9.776222128510474,0.5162213471269235
1759158624313884200,7.71588427734375,-0.6634568216484039,-9.764543381154537,0.619604455114156
1759158624323942100,7.725942138671875,-0.7035910444423555,-9.746332017159462,0.827267985254526
1759158624334001400,7.73600146484375,-0.6609463001322001,-9.717621470981836,1.1407769583750516
1759158624344060200,7.74606005859375,-0.5656227260904386,-9.677229839360713,1.483806478881836
1759158624354119400,7.756119384765625,-0.4893841936057433,-9.626010524255037,1.8085358611315487
1759158624364178200,7.76617822265625,-0.4904604080025106,-9.556592120113969,2.145085445034504
1759158624374237200,7.7762373046875,-0.6508115673478693,-9.457346148464083,2.5110657060831785
1759158624384296200,7.786296142578125,-0.9980887353617698,-9.318876419928669,2.886654045693576
1759158624394355200,7.796355224609375,-1.4795637267455457,-9.140073511961102,3.2311531272962686
1759158624404414200,7.806414306640625,-2.0159141445897517,-8.938416382628679,3.4944515970274805
1759158624414473200,7.81647314453125,-2.3894188097938893,-8.728793388983608,3.777463359749317
1759158624424532200,7.8265322265625,-2.3668157867111264,-8.546816527155041,4.185751022912561
1759158624434591200,7.83659130859375,-2.041027543058246,-8.405675533583759,4.620517819939553
1759158624444650200,7.846650146484375,-1.814081366429478,-8.29784118180871,4.901564127807319
1759158624454709200,7.856709228515625,-1.7340891074344515,-8.234493037492037,5.035518717005848
1759158624464768300,7.866768310546875,-1.7100540057219564,-8.20932820109725,5.084588160601258
1759158624474827300,7.8768271484375,-1.6801210781425238,-8.217139751631022,5.081949044269323
1759158624484886300,7.88688623046875,-1.621411991803348,-8.251573936152457,5.045089678427577
1759158624494945300,7.8969453125,-1.5259060834646223,-8.306146653339267,4.9849710175514215
1759158624505004300,7.90700439453125,-1.4006450883314012,-8.372444295111299,4.910270873615145
1759158624515063300,7.917063232421875,-1.2596395577080548,-8.442315703716874,4.828148470723629
1759158624525122000,7.9271220703125,-1.1179626306291668,-8.514317110088466,4.735711886827647
1759158624535181300,7.937181396484375,-0.9896184286583214,-8.589073368126153,4.628051138053834
1759158624545240000,7.947239990234375,-0.886941678842157,-8.667896729472279,4.500139920672774
1759158624555299000,7.957299072265625,-0.8086371537383645,-8.751199866580963,4.351204619963467
1759158624565358000,7.967358154296875,-0.7343100808981805,-8.837557130563258,4.1867365268185734
1759158624575417000,7.9774169921875,-0.6249422359455377,-8.922796204170584,4.020387149971723
1759158624585476000,7.98747607421875,-0.4600410851456225,-9.004577246278524,3.8569843479707835
1759158624595535000,7.99753515625,-0.25882534290514886,-9.087485246589779,3.677090137635171
1759158624605594000,8.007593994140626,-0.06604566260522697,-9.175432410112023,3.4608480181112884
1759158624615652000,8.017652099609375,0.06408956010139082,-9.268868234178424,3.202245304980874
1759158624625711000,8.027711181640624,0.17655204203454777,-9.369217198634146,2.890844775381684
1759158624635770000,8.03777001953125,0.32916623218599705,-9.469245260572434,2.5289210962474344
1759158624645829000,8.0478291015625,0.5151871087083593,-9.559155833122134,2.1277938262328506
1759158624655888100,8.05788818359375,0.7302391781974583,-9.631139703837036,1.6965464355036615
1759158624665947100,8.067947021484375,0.9858600990381091,-9.672595165297388,1.2803764946579932
1759158624676006100,8.078006103515625,1.2155323396299034,-9.675064185759425,1.0421039643075316
1759158624686065200,8.088065185546874,1.3583349097378552,-9.650374565660952,1.0934250592872499
1759158624696124200,8.098124267578125,1.373201054958254,-9.628231122913956,1.2577318243905902
1759158624706183200,8.10818310546875,1.3134114799059926,-9.640517773035167,1.2270968860216438
1759158624716242200,8.1182421875,1.2313732481665909,-9.681402741131185,0.9615434769704937
1759158624726301200,8.12830126953125,1.138480371870473,-9.717907886707783,0.6607076690707355
1759158624736360200,8.138360107421875,1.034213649449125,-9.741761055982112,0.44596075654067097
1759158624746419200,8.148419189453126,0.9629228024996817,-9.754443427422641,0.3065694927135482
1759158624756478000,8.15847802734375,0.9551730651557445,-9.757440855672955,0.22441271262839435
1759158624766537200,8.168537109375,1.0067861288193614,-9.752685770100355,0.204668421711307
1759158624776596000,8.178595947265626,1.1056394478898495,-9.74072060701847,0.25748753669643776
1759158624786655200,8.1886552734375,1.2398505691327153,-9.720624159929155,0.3776243024174124
1759158624796714000,8.1987138671875,1.3867499801002443,-9.693733814916014,0.5280614225244149
1759158624806773200,8.208773193359375,1.518809257071465,-9.665108024412392,0.6703051531732082
1759158624816832000,8.21883203125,1.6137918721884488,-9.640392100828885,0.7930497815713285
1759158624826891300,8.228891357421874,1.6685785243868827,-9.621372927582263,0.9030038289140909
1759158624836950000,8.238949951171875,1.6893891110949217,-9.608057518935203,1.0007797280114143
1759158624847008300,8.24900830078125,1.679754875178635,-9.600673253902793,1.0843846976108849
1759158624857067000,8.25906689453125,1.6439423880413173,-9.600839258119464,1.136548600090295
1759158624867126300,8.269126220703125,1.601053386646509,-9.60686977045536,1.1467630470473318
1759158624877185000,8.27918505859375,1.5808055483877659,-9.614100890752672,1.113774312093854
1759158624887244300,8.289244384765626,1.5982918129786847,-9.61897404974699,1.0446003111679107
1759158624897303000,8.299302978515625,1.639183795337379,-9.622146250042318,0.9475089602686464
1759158624907362300,8.3093623046875,1.6832297116823494,-9.625181087693571,0.8324731526821851
1759158624917421000,8.319421142578125,1.7103420288830995,-9.631779755306244,0.6884209478393196
1759158624927480300,8.329480224609375,1.6996556535653768,-9.645262337213754,0.5004655230578035
1759158624937539000,8.3395390625,1.6377110924363136,-9.664656773513554,0.28756491424785924
1759158624947598300,8.349598388671875,1.5316602630771696,-9.685874918109178,0.09065502510829829
1759158624957657000,8.359656982421875,1.3921882256314158,-9.707100076967476,-0.06630140006511938
1759158624967716000,8.369716064453126,1.2189776577781886,-9.728809219950437,-0.18636170758297665
1759158624977775000,8.379775146484375,1.022979577120766,-9.74866542854309,-0.2956251788456924
1759158624987834000,8.389834228515625,0.7994381674341857,-9.763557877248525,-0.4519066958656534
1759158624997893000,8.39989306640625,0.5913061795318499,-9.767776371726393,-0.6413262383829802
1759158625007952100,8.4099521484375,0.38718532696701585,-9.76947966851294,-0.7601003557149321
1759158625018010000,8.420010009765624,0.1645848331260495,-9.78283248656094,-0.662942150124535
1759158625028069400,8.4300693359375,-0.05106804266725667,-9.801060217168926,-0.32709384635873134
1759158625038128000,8.440128173828125,-0.21673934672260656,-9.804164028403163,0.042263891766406596
1759158625048187100,8.450187255859374,-0.3229787391901016,-9.797057411268353,0.2893589215251617
1759158625058246100,8.46024609375,-0.37840526019465176,-9.78949077540636,0.4393653768636286
1759158625068305200,8.47030517578125,-0.40095717414468524,-9.780256498593092,0.5968045212198049
1759158625078364200,8.4803642578125,-0.3799401416117325,-9.7648344730556,0.820991535333544
1759158625088423200,8.490423095703125,-0.30734734521824864,-9.738902743941544,1.1089128435373306
1759158625098482200,8.500482177734375,-0.2338392606107518,-9.698882868242263,1.430854933156073
1759158625108541200,8.510541259765626,-0.22238962756926192,-9.64016004563868,1.7855583056479691
1759158625118600200,8.52060009765625,-0.34140981035046275,-9.555418984681367,2.178943437103182
1759158625128659200,8.5306591796875,-0.6423518551036715,-9.440538221526145,2.5756580052420497
1759158625138718200,8.54071826171875,-1.098979259348288,-9.296637115591764,2.921505578844249
1759158625148777200,8.550777099609375,-1.5979944374673067,-9.130261727520823,3.2023627938807007
1759158625158836200,8.560836181640624,-1.96212147186473,-8.96752674177885,3.450210596501827
1759158625168895200,8.570895263671876,-2.058955267806351,-8.826922339302302,3.743869425444305
1759158625178953200,8.580953125,-1.8979405299857257,-8.708951208916305,4.089301988504827
1759158625189012000,8.591011962890626,-1.7437210052631795,-8.60215438349545,4.37410151142627
1759158625199071200,8.6010712890625,-1.7002267314516006,-8.523051620686054,4.542819663231074
1759158625209130000,8.6111298828125,-1.7023304257325826,-8.478877547916769,4.623970006220042
1759158625219189200,8.621189208984376,-1.6935601131692528,-8.470922789520024,4.641736841318011
1759158625229248000,8.631248046875,-1.6439143309906123,-8.489099082201719,4.6263539787471295
1759158625239307300,8.641307373046875,-1.5514442832164466,-8.5278721727103,4.586809611605108
1759158625249366000,8.651365966796876,-1.429099613921344,-8.580449332165717,4.528130043621361
1759158625259425300,8.66142529296875,-1.291596976852417,-8.638667712378501,4.458205151262879
1759158625269484000,8.671484130859374,-1.1501284318272025,-8.69904005575478,4.37884753690958
1759158625279543000,8.68154296875,-1.0144587092738597,-8.760886563336848,4.288136461631954
1759158625289602000,8.69160205078125,-0.8867056781291961,-8.825569171127677,4.182520078167319
1759158625299661000,8.7016611328125,-0.7553850906960665,-8.892617339006065,4.064619382669031
1759158625309720000,8.711719970703125,-0.6020817675029858,-8.960840980404615,3.9384254905998706
1759158625319778300,8.7217783203125,-0.40248971747420725,-9.028370209798217,3.8074811891332265
1759158625329837000,8.731837158203126,-0.1466669265190605,-9.093923170682787,3.667345865473151
1759158625339896300,8.741896240234375,0.1422240943665616,-9.158182000103592,3.5039757966980334
1759158625349955000,8.751955078125,0.3966784739121794,-9.223848358234763,3.3066040895998476
1759158625360014000,8.76201416015625,0.5198644894022494,-9.293665990826486,3.086729166531563
1759158625370073000,8.772072998046875,0.5586871181409806,-9.37040670067966,2.837906673659384
1759158625380132000,8.782132080078124,0.6119295365720987,-9.450756248679756,2.5454119200602174
1759158625390191000,8.792191162109376,0.7221553135283291,-9.528491814789176,2.2037942391127348
1759158625400250000,8.80225,0.9206354933250694,-9.593875848847627,1.8111793613776563
1759158625410309000,8.81230908203125,1.2027107058491557,-9.628550271865725,1.4194767761819065
1759158625420368100,8.8223681640625,1.4631601428247987,-9.628616907361149,1.148597861259058
1759158625430427100,8.83242724609375,1.6508860696993768,-9.608367315536738,1.0603003499291836
1759158625440486100,8.842486083984374,1.6904633161976932,-9.603797523403166,1.0391352506950498
1759158625450544000,8.852544189453125,1.6050006629675626,-9.631914779862761,0.90586133723706
1759158625460603100,8.86260302734375,1.478091900627315,-9.67380512560904,0.6349173211887479
1759158625470662100,8.872662109375,1.298601156526059,-9.71490928941369,0.32333526101019233
1759158625480721200,8.88272119140625,1.0672134172532708,-9.748148711192608,0.0709474586055614
1759158625490780200,8.8927802734375,0.8837219130780547,-9.766304545608163,-0.09328461556006222
1759158625500839200,8.902839111328126,0.8198490142349153,-9.770686706215143,-0.1785994578173384
1759158625510898200,8.912898193359375,0.8548144560888409,-9.767357854053378,-0.19601599990660323
1759158625520957200,8.922957275390624,0.9192237998962401,-9.76224270299673,-0.15501798162385821
1759158625531016200,8.93301611328125,0.9809732037793845,-9.757293556156753,-0.05758771762643009
1759158625541075200,8.9430751953125,1.0314776486139743,-9.751772746908664,0.09683427999881096
1759158625551134500,8.953134521484374,1.0755267798293382,-9.742886260619759,0.29969325026851146
1759158625561193200,8.963193115234375,1.1155177216950802,-9.728569565975665,0.5300580762343481
1759158625571251500,8.97325146484375,1.146702402901277,-9.709301386404038,0.7647994733165949
1759158625581310200,8.983310302734376,1.1703484322309494,-9.686755208075047,0.9835920079756527
1759158625591369500,8.993369384765625,1.1920857053298501,-9.663820907211303,1.1661439662784336
1759158625601428200,9.00342822265625,1.217782164383307,-9.6438881262511,1.297231183347106
1759158625611487500,9.013487548828126,1.2458053858838976,-9.629351066854596,1.3762038900360465
1759158625621546200,9.023546142578125,1.2722390731707214,-9.621035658451914,1.4097769276835024
1759158625631605500,9.03360546875,1.2994165645621716,-9.618965281918644,1.3990730167090892
1759158625641664300,9.043664306640625,1.331246850195527,-9.622790977686643,1.3416618612259625
1759158625651723300,9.05372314453125,1.3591155387215315,-9.632724927201867,1.2384684671245514
1759158625661782300,9.0637822265625,1.3675195021905004,-9.6495784468472,1.0889954793419687
1759158625671841300,9.07384130859375,1.338882459640503,-9.67395359416902,0.8901572068225592
1759158625681899300,9.083899169921875,1.2648093615613878,-9.702660048693417,0.6549909719243645
1759158625691958300,9.093958251953126,1.157174843207374,-9.729467391598224,0.410823976707831
1759158625702017300,9.104017333984375,1.041216879274696,-9.749256380173563,0.19565184276932848
1759158625712076300,9.114076171875,0.9250598125733435,-9.76287632472515,0.029691682152485008
1759158625722135300,9.12413525390625,0.8059017374251037,-9.772972771325707,-0.09957808968108146
1759158625732194300,9.1341943359375,0.685516823895648,-9.780368142274021,-0.21179924170561135
1759158625742253300,9.14425341796875,0.5325416732110083,-9.787075530958175,-0.31610819583348926
1759158625752312000,9.15431201171875,0.3472920367894694,-9.791231481593847,-0.4260700246239081
1759158625762371300,9.164371337890625,0.1687870523225516,-9.792545486801862,-0.49794254391882564
1759158625772430000,9.17443017578125,0.0060851325957191876,-9.799079857006669,-0.3851698954913765
1759158625782489300,9.1844892578125,-0.13259914686842822,-9.805635854521393,-0.047827814070438034
1759158625792547300,9.19454736328125,-0.22803084832662715,-9.799240016004443,0.30539608328631146
1759158625802606300,9.2046064453125,-0.2726916816995479,-9.789169288367033,0.5178775533687323
1759158625812665300,9.214665283203125,-0.2874575631495565,-9.781354230701924,0.6425393404997884
1759158625822724400,9.224724365234374,-0.27758265034519136,-9.772451377800106,0.7697699552055448
1759158625832783000,9.234783203125,-0.2335795136960223,-9.758805714285373,0.9388993912249803
1759158625842842400,9.24484228515625,-0.13583145245369524,-9.736277656134963,1.1648254310257733
1759158625852901000,9.254901123046874,-0.023086303954524916,-9.701515554833412,1.4319380522176623
1759158625862960400,9.26496044921875,0.01285878060349496,-9.654291446843743,1.7218825368121264
1759158625873019100,9.27501904296875,-0.04580809914532583,-9.591728899946808,2.041327256657183
1759158625883078400,9.285078369140624,-0.22432392010008914,-9.514055293157696,2.3670279681570827
1759158625893136400,9.295136474609375,-0.5419940132217481,-9.428902728790044,2.64053087490797
1759158625903195400,9.3051953125,-0.9816287450786679,-9.336825333595275,2.8338071293860674
1759158625913254100,9.315254150390626,-1.493744812311232,-9.223676508799194,2.9770626308932897
1759158625923313400,9.3253134765625,-1.9186799511536954,-9.071801355245709,3.192412770013511
1759158625933372200,9.3353720703125,-2.003754043457657,-8.914177428907156,3.5626956966921686
1759158625943431400,9.345431396484376,-1.8406819347158074,-8.77705210071802,3.9680736098885534
1759158625953490200,9.355490234375,-1.730117573454976,-8.680095701310037,4.222914047876
1759158625963549400,9.365549560546874,-1.7075101664580403,-8.631182325059175,4.3309900994524355
1759158625973608200,9.375608154296875,-1.728834255646169,-8.60912889868319,4.366281485325098
1759158625983666200,9.385666259765625,-1.740984712167084,-8.600290927711129,4.378853674389422
1759158625993725200,9.39572509765625,-1.7145115696527062,-8.600131353235245,4.389601278375089
1759158626003784200,9.4057841796875,-1.6414853502780198,-8.612797942584752,4.392682585516572
1759158626013843200,9.41584326171875,-1.5287037513591348,-8.642538416332005,4.374925102768838
1759158626023902200,9.425902099609376,-1.3934573687843979,-8.687736571452021,4.33034712537378
1759158626033961200,9.435961181640625,-1.2574762421943246,-8.743923738098143,4.258279083506762
1759158626044020200,9.446020263671874,-1.1288750697877257,-8.80618408717811,4.1649896821737284
1759158626054079200,9.456079345703126,-1.0109418602593243,-8.873198937308787,4.051505634073913
1759158626064138200,9.46613818359375,-0.893948269668594,-8.944535157769918,3.920014804640412
1759158626074197200,9.476197265625,-0.752901384121552,-9.018913230144976,3.7766041125714778
1759158626084255200,9.486255126953125,-0.5584839967843145,-9.094125999778509,3.6270310984805225
1759158626094314200,9.496314208984375,-0.3137677701871842,-9.167886817038058,3.4672470714986323
1759158626104373200,9.506373291015626,-0.09677918881070799,-9.240243612718581,3.2831241375520825
1759158626114432300,9.516432373046875,0.002999745502862788,-9.315399683728813,3.0649165631741284
1759158626124491300,9.5264912109375,0.06150013269665651,-9.397643082651495,2.801949809615314
1759158626134550300,9.53655029296875,0.16737901215553283,-9.484332355067133,2.4879317909941077
1759158626144609300,9.546609375,0.32439145553223786,-9.568251578247546,2.1245465148746967
1759158626154668300,9.556668212890624,0.5411311858473346,-9.639848495471478,1.7178174793303012
1759158626164727300,9.566727294921876,0.841800733802095,-9.682273678746819,1.309706780169159
1759158626174785300,9.576785400390625,1.156310408397764,-9.68490227368474,1.0178502514082939
1759158626184844300,9.58684423828125,1.4095045404829083,-9.659620532912015,0.9356490841921419
1759158626194903300,9.5969033203125,1.5634573770932851,-9.632678749972582,0.9682478699799626
1759158626204962300,9.60696240234375,1.6232934216357766,-9.626043257480859,0.9351938877705485
1759158626215021300,9.617021240234376,1.6302220518551767,-9.64019511695206,0.7611866165816783
1759158626225080300,9.627080322265625,1.5852734875820575,-9.664956048721075,0.4958900318358093
1759158626235139300,9.637139404296875,1.4565648362129926,-9.695318453758954,0.22271319696782155
1759158626245198300,9.6471982421875,1.2900734205469488,-9.721422616830468,-0.003222707210681983
1759158626255257300,9.65725732421875,1.1668219386052339,-9.735563954907656,-0.16642446964336557
1759158626265315300,9.6673154296875,1.1129733709745109,-9.739429398164152,-0.27419158313479275
1759158626275374000,9.6773740234375,1.1104727863304316,-9.738350955277681,-0.3189934689462185
1759158626285433300,9.687433349609375,1.1352768265888094,-9.736107560265063,-0.29955035293279214
1759158626295492000,9.6974921875,1.162856834366545,-9.734797062188386,-0.22774410380711776
1759158626305551400,9.70755126953125,1.1910390458211302,-9.733401808437705,-0.11270615906249731
1759158626315610000,9.717610107421875,1.2249883694350718,-9.729762575152515,0.03892191982816439
1759158626325669400,9.72766943359375,1.2624303574703633,-9.722641344970464,0.21651594976289196
1759158626335728000,9.73772802734375,1.2939407634995876,-9.712726100155711,0.39882987979240714
1759158626345786400,9.747786376953124,1.3171440905630587,-9.701101713335513,0.569341198624298
1759158626355845000,9.75784521484375,1.3329618374198675,-9.689223644015192,0.715909039549902
1759158626365904400,9.767904296875,1.3437880595996976,-9.678345107126235,0.8332097963936627
1759158626375963100,9.777963134765624,1.3514470499202609,-9.66931073679924,0.9210865250281989
1759158626386022400,9.7880224609375,1.357355104920268,-9.662654201519489,0.9803485690750181
1759158626396081200,9.7980810546875,1.3644948936723171,-9.658282562306523,1.0129619679100812
1759158626406140400,9.808140380859374,1.3752512654863298,-9.656040920859574,1.0197781507309525
1759158626416199200,9.81819921875,1.3930994952574371,-9.655348262420295,1.0019553476620464
1759158626426257400,9.82825732421875,1.411766494065523,-9.65700362841189,0.9589523644987493
1759158626436316200,9.838316162109376,1.4172040089443325,-9.66332347908318,0.8843575075678527
1759158626446375400,9.84837548828125,1.3976891611352562,-9.676241997367143,0.766291830766201
1759158626456434200,9.85843408203125,1.3447051744446157,-9.695113286575674,0.6057708312792703
1759158626466493400,9.868493408203125,1.259091714566946,-9.716111650940775,0.42689555219523606
1759158626476552200,9.87855224609375,1.1589444832284004,-9.734457454970478,0.2599351855768822
1759158626486611500,9.888611572265624,1.0574870460741221,-9.748880532598495,0.10686640179203823
1759158626496670200,9.898670166015625,0.9376306133981793,-9.761511466112733,-0.06429182750810869
1759158626506728200,9.908728271484375,0.7679927894651889,-9.77190484983325,-0.30074228439740835
1759158626516787200,9.918787109375,0.5877539304103702,-9.7712899328053,-0.5889233029833063
1759158626526846200,9.92884619140625,0.4641720840031281,-9.759274500840903,-0.8435098027423024
1759158626536905200,9.9389052734375,0.35801351995319125,-9.751610249823331,-0.9738075499337165
1759158626546964200,9.948964111328126,0.24660222300682216,-9.765289231085777,-0.8652688492815941
1759158626557023200,9.959023193359375,0.14368022059216162,-9.791032159629463,-0.5342528610430658
1759158626567082200,9.969082275390624,0.0873214967714157,-9.804673731490968,-0.17638879603054372
1759158626577141200,9.979141357421875,0.08655204676887951,-9.805887198933958,0.0864343112738803
1759158626587199200,9.98919921875,0.10436367998979985,-9.801899006080626,0.28684609845401715
1759158626597258000,9.999258056640626,0.13615655622221529,-9.793577752459049,0.4875188746578991
1759158626607317200,10.009317138671875,0.20279747674027457,-9.77798212392032,0.7213237580750137
1759158626617376000,10.0193759765625,0.25652652791086583,-9.753985746783018,0.9819991858262568
1759158626627435300,10.029435302734376,0.2000697322768159,-9.724414784383773,1.251435939116776
1759158626637494000,10.039493896484375,0.0464616357171908,-9.685387426853179,1.5367138932049274
1759158626647553300,10.04955322265625,-0.20532164318934082,-9.634709963539242,1.8167540927700698
1759158626657612000,10.059612060546876,-0.559058435671404,-9.570919920673965,2.0628518368534743
1759158626667670300,10.069670166015625,-0.9818984288655221,-9.49185339822173,2.2607466910429297
1759158626677729000,10.07972900390625,-1.4304879995398223,-9.390742217221856,2.436815790132433
1759158626687788300,10.089788330078125,-1.8156952313669026,-9.265073518070578,2.651801333723962
1759158626697847000,10.099846923828125,-1.9974125654764472,-9.133408208853005,2.959993714931607
1759158626707906300,10.10990625,-2.0429925595209,-9.005584962016343,3.3009064624801274
1759158626717965000,10.119965087890625,-2.073174347294867,-8.90482566319406,3.5463217772573232
1759158626728024300,10.1300244140625,-2.1036131785698235,-8.850264051923155,3.663061320021748
1759158626738082000,10.14008203125,-2.129148747973144,-8.82332285350561,3.7129593233957885
1759158626748141300,10.150141357421875,-2.11367221576944,-8.801460565787552,3.773201902912557
1759158626758200000,10.160199951171874,-2.0324694119408724,-8.789449809998274,3.84512965952605
1759158626768259300,10.17025927734375,-1.8990626658834515,-8.798186658683418,3.893054317000508
1759158626778318000,10.180318115234375,-1.7360813041649759,-8.825812916755675,3.906586875529587
1759158626788377300,10.19037744140625,-1.5555964344598352,-8.866606699436902,3.8902179245308037
1759158626798436000,10.20043603515625,-1.3627163396924733,-8.914809297069906,3.852214649350941
1759158626808494000,10.210494140625,-1.1634027778115124,-8.966637099462748,3.796883515012264
1759158626818553000,10.220552978515625,-0.9675765465896576,-9.020897681960463,3.7225785078734157
1759158626828612000,10.230612060546875,-0.7768440583102405,-9.076930534827708,3.629909868787229
1759158626838671000,10.240671142578124,-0.5787636549534276,-9.13198489805162,3.5273645633310076
1759158626848730000,10.250730224609375,-0.35814525657407936,-9.182667037540673,3.423559613202512
1759158626858789000,10.2607890625,-0.10198101350381039,-9.228270850852132,3.3164760797947643
1759158626868848000,10.27084814453125,0.177412659185566,-9.271953340712189,3.189014067485928
1759158626878906400,10.28090625,0.4359790588935837,-9.317246188378334,3.0280747329890727
1759158626888965000,10.290965087890624,0.5942757333945483,-9.369597137862444,2.8333535403996706
1759158626899024100,10.301024169921876,0.6297158800881356,-9.430393259608746,2.6156328727558256
1759158626909083100,10.311083251953125,0.6814101922944188,-9.49433644720912,2.35873301802054
1759158626919142100,10.32114208984375,0.804053917601332,-9.555717090845107,2.052352362409979
1759158626929201200,10.331201171875,0.9953196359746157,-9.606169513231515,1.7032982478514314
1759158626939260200,10.34126025390625,1.2635701751552522,-9.634568509241937,1.322453595148027
1759158626949318100,10.351318115234376,1.5823365573473274,-9.629171618634462,0.9724475866921245
1759158626959377400,10.36137744140625,1.8670595079012213,-9.597202947443723,0.7603720122631639
1759158626969436200,10.371436279296875,2.094617825078964,-9.556034486231207,0.6820349000640213
1759158626979495200,10.3814951171875,2.2717640518806874,-9.520795415067672,0.6032529667068273
1759158626989554200,10.39155419921875,2.399822714908421,-9.498230532038212,0.4414106920208782
1759158626999613200,10.40161328125,2.4910206969201565,-9.482399925699829,0.22200420844824983
1759158627009671200,10.411671142578125,2.5348981248304248,-9.473366724416612,0.0009723599409455346
1759158627019730200,10.421730224609375,2.496768885183334,-9.481941660538315,-0.17122752254353835
1759158627029789200,10.4317890625,2.3801328027933835,-9.508462587717174,-0.30741083890851584
1759158627039848200,10.44184814453125,2.2308061646789312,-9.538885783031581,-0.4511563158897683
1759158627049907200,10.4519072265625,2.1037528793014584,-9.559429389366507,-0.6015882483649998
1759158627059966200,10.46196630859375,2.0325589899204672,-9.568071545505523,-0.7007797864139079
1759158627070025200,10.472025146484375,1.996320824716985,-9.575046060693264,-0.7096406268049031
1759158627080083200,10.482083251953124,1.9599569873072207,-9.587484101983904,-0.6396056982006877
1759158627090142200,10.49214208984375,1.9122106090091169,-9.604645080143213,-0.5144119230847806
1759158627100201200,10.502201171875,1.8542255991607903,-9.623335752087831,-0.35163788397405293
1759158627110260200,10.51226025390625,1.7823130401164293,-9.641680387073755,-0.17814431619467214
1759158627120319200,10.5223193359375,1.7000792858049272,-9.658135847312211,-0.022959371372917665
1759158627130378200,10.532378173828125,1.6195890141598879,-9.671498602232337,0.09700510652107186
1759158627140436200,10.542436279296876,1.5515359070226549,-9.681418523222208,0.18237271101204677
1759158627150495200,10.5524951171875,1.5057552758395671,-9.687248544549941,0.24557817718870936
1759158627160554200,10.56255419921875,1.482882934296131,-9.689331780564784,0.2971740522555075
1759158627170613200,10.57261328125,1.4780371017001568,-9.688673608916996,0.33969544418063014
1759158627180672300,10.58267236328125,1.4911096415020524,-9.685449386173486,0.37286501559372986
1759158627190731300,10.592731201171874,1.5197184808708726,-9.680719435042143,0.3801431533705443
1759158627200790300,10.602790283203126,1.5543307984381913,-9.677375385311246,0.32068302946835753
1759158627210848000,10.612847900390625,1.5850928703181444,-9.676351302960514,0.1614916163510643
1759158627220907300,10.6229072265625,1.5936355116054415,-9.675852121266722,-0.09258994782678782
1759158627230966000,10.632966064453125,1.5637410163402556,-9.67339303767681,-0.38802955923881377
1759158627241025300,10.643025390625,1.5039875355146823,-9.667305826717614,-0.6720141490481794
1759158627251084000,10.653083984375,1.4418765317775308,-9.656199326291679,-0.9215086228977888
1759158627261143300,10.663143310546875,1.4027343156956136,-9.640872577822208,-1.1208445427410303
1759158627271201000,10.673200927734374,1.3806317894808948,-9.625113867676257,-1.2733530257619916
1759158627281260300,10.68326025390625,1.3654751368813216,-9.612231589749454,-1.3823438540957866
1759158627291319000,10.693319091796875,1.336316116283834,-9.606455928957462,-1.44936148070544
1759158627301378300,10.70337841796875,1.2537221503578126,-9.61224152662158,-1.484382232943177
1759158627311437000,10.71343701171875,1.1293760781124234,-9.618343935149907,-1.5434911322548985
1759158627321496300,10.723496337890625,1.0799378012046217,-9.594690087839961,-1.7164045437924562
1759158627331554000,10.733553955078126,1.1559994427524507,-9.537422724741697,-1.9676497337669132
1759158627341613300,10.74361328125,1.2570558248251675,-9.503524546793102,-2.067180367577076
1759158627351672000,10.753672119140624,1.3070526123985646,-9.530267592290043,-1.906829500492662
1759158627361731300,10.7637314453125,1.3259013975143432,-9.56652957676053,-1.7011401930347083
1759158627371790000,10.7737900390625,1.3624603191047906,-9.581267127165198,-1.585372417911887
1759158627381849300,10.783849365234374,1.4655787482738494,-9.581774492165446,-1.4872989971727133
1759158627391907300,10.7939072265625,1.629048039639741,-9.576362988510727,-1.3453167304717004
1759158627401966000,10.803966064453125,1.824393355476856,-9.565836333799362,-1.1561773566026239
1759158627412025000,10.814025146484376,2.0146223512135446,-9.55045054861903,-0.9489808594521134
1759158627422084000,10.824083984375,2.1580536476790906,-9.537087209177017,-0.7464373757392168
1759158627432143000,10.83414306640625,2.2382453747689723,-9.531723636317253,-0.5539800729611888
1759158627442202000,10.8442021484375,2.2539728129938243,-9.537072011607885,-0.36637265789974477
1759158627452260400,10.85426025390625,2.2090509905971585,-9.553034719893336,-0.17315668224152175
1759158627462319000,10.864319091796874,2.109340031784028,-9.57706616834402,0.029473694303538647
1759158627472378400,10.87437841796875,1.9492257499344645,-9.608477205651997,0.2193112613035366
1759158627482437000,10.88443701171875,1.7420551178775727,-9.643002575588225,0.38490039436761286
1759158627492496100,10.89449609375,1.4891479860402643,-9.678368488001823,0.531048913902603
1759158627502554000,10.90455419921875,1.2027590750355273,-9.710631758224963,0.6537444789946079
1759158627512613400,10.91461328125,0.92365359903723,-9.734214293864369,0.7498796982128173
1759158627522672000,10.924672119140626,0.6846180484250187,-9.747563020259141,0.8286815783794969
1759158627532731400,10.9347314453125,0.49636261778362095,-9.752064423331618,0.9062183339811861
1759158627542790100,10.9447900390625,0.3528271668238565,-9.750271694695948,0.9889831994947046
1759158627552849400,10.954849365234375,0.2554712467042729,-9.744041860395669,1.0764606996785848
1759158627562907400,10.964907470703125,0.20963338717492297,-9.733599376836418,1.176216155220568
1759158627572966400,10.97496630859375,0.20610071953674777,-9.718636785504222,1.294607995236665
1759158627583025400,10.985025390625,0.22988349045598877,-9.699441086646914,1.4277167812608182
1759158627593084400,10.99508447265625,0.26158119921823964,-9.677306996250152,1.565787281345576
1759158627603143400,11.005143310546876,0.2851566292634234,-9.654484923589228,1.6970502933725713
1759158627613201400,11.015201416015625,0.2946228882016614,-9.632556584897637,1.81589119233042
1759158627623260400,11.025260498046874,0.28864901969013734,-9.612637832462788,1.91945020487383
1759158627633319400,11.0353193359375,0.26614107274599375,-9.59782429421246,1.9953321059405802
1759158627643378400,11.04537841796875,0.22763035950064658,-9.588433365532754,2.044635212161392
1759158627653437400,11.0554375,0.18365880529982967,-9.581362988755107,2.0818638497069477
1759158627663496400,11.065496337890625,0.1467367220859509,-9.57563116710484,2.1109578422442077
1759158627673554400,11.075554443359374,0.14072758133164606,-9.568704582712053,2.1425442361190914
1759158627683613400,11.085613525390626,0.18932300507398322,-9.560902384528518,2.173409622243047
1759158627693672400,11.09567236328125,0.2940405948016792,-9.555997076830268,2.1833104001410306
1759158627703731500,11.1057314453125,0.43649270750414576,-9.554794715303181,2.164660206337273
1759158627713790500,11.11579052734375,0.5925873053835704,-9.5552640863806,2.125126360589266
1759158627723848400,11.125848388671875,0.7468320741452277,-9.555809445303678,2.073438405058533
1759158627733907500,11.135907470703126,0.8960962414827197,-9.555697801622747,2.01396856347993
1759158627743966500,11.145966552734375,1.0343091457128524,-9.557053307884932,1.9399261528000233
1759158627754025500,11.156025390625,1.142919961753115,-9.567253799381852,1.8253170461930333
1759158627764084200,11.166084228515626,1.2150561004202811,-9.59278980717659,1.6347484432384372
1759158627774142500,11.176142578125,1.2861109466567635,-9.621656420698761,1.3928547267161309
1759158627784201500,11.186201416015624,1.3814018970705568,-9.641592124268412,1.1409751843608915
1759158627794260500,11.196260498046875,1.4956274111874401,-9.649566171887516,0.905186214454472
1759158627804319500,11.206319580078125,1.6209909899123012,-9.647221654587984,0.6884155410118401
1759158627814378500,11.21637841796875,1.76346542404443,-9.634300798216461,0.4907537649258971
1759158627824436500,11.2264365234375,1.9204152505137024,-9.611318566557765,0.32395448888707906
1759158627834495500,11.23649560546875,2.0719955127738414,-9.583381342840195,0.1897996096097864
1759158627844554500,11.246554443359376,2.202276381895691,-9.555818213132023,0.0817853712231852
1759158627854613500,11.256613525390625,2.3101088339745997,-9.530676173090935,-0.0026515428449012685
1759158627864672500,11.266672607421874,2.401862404042482,-9.50778337328136,-0.0592798034657957
1759158627874730200,11.276730224609375,2.479497432386875,-9.487605677649379,-0.08843820757535285
1759158627884789500,11.28678955078125,2.5398887727245687,-9.47150677576363,-0.09949825677736662
1759158627894848300,11.29684814453125,2.5821134649917483,-9.459957207745314,-0.1107938409014605
1759158627904907500,11.306907470703125,2.607050630110502,-9.452748883801698,-0.13857394696171393
1759158627914966300,11.31696630859375,2.612740950706601,-9.450359358316659,-0.1862017860472202
1759158627925024500,11.3270244140625,2.5972405992358922,-9.453623913070558,-0.2317810129066929
1759158627935083300,11.337083251953125,2.5662957181349397,-9.461331418707966,-0.2602189892206341
1759158627945142500,11.347142578125,2.531480717602372,-9.470514842116833,-0.26707040775166824
1759158627955201300,11.357201171875,2.5032439264163373,-9.478287814205885,-0.2573129290482029
1759158627965260500,11.367260498046875,2.4848703575968742,-9.483729128476977,-0.2338558646856807
1759158627975319300,11.3773193359375,2.4770330880999563,-9.486600884521007,-0.1976862529400736
1759158627985377500,11.38737744140625,2.4794386879369616,-9.486795530310273,-0.15318387979818507
1759158627995436500,11.3974365234375,2.4904969653069973,-9.484584868523479,-0.10232451144554652
1759158628005495600,11.40749560546875,2.5036390632137655,-9.481585102185607,-0.04142651849365793
1759158628015554300,11.41755419921875,2.5086414015457033,-9.480262913671135,0.041630279171140865
1759158628025612300,11.4276123046875,2.505735743232071,-9.480024428740144,0.14425834927367978
1759158628035671600,11.437671630859375,2.5050547752305863,-9.477912551152706,0.2534690583026968
1759158628045730300,11.447730224609375,2.502953419037163,-9.475207968369126,0.35504604844972487
1759158628055789600,11.45778955078125,2.4965704400017854,-9.473346266150473,0.4395698499271646
1759158628065848300,11.467848388671875,2.485401687994599,-9.47283188688755,0.508535249603726
1759158628075906600,11.477906494140624,2.474073946033418,-9.472595155522226,0.5650637039681896
1759158628085965300,11.48796533203125,2.465233929234743,-9.471149632889032,0.6247550428103655
1759158628096024600,11.498024658203125,2.4638249392196534,-9.466848136302827,0.6918979032348841
1759158628106083300,11.508083251953124,2.4576027037039396,-9.46331937765479,0.7590607835341244
1759158628116142600,11.518142578125,2.419973668663949,-9.46812882376313,0.8177109062276781
1759158628126200300,11.528200439453125,2.3534587308794257,-9.481434295538067,0.8567552148930728
1759158628136259600,11.538259521484376,2.275758236083388,-9.499151738536357,0.8703060397312045
1759158628146318300,11.548318359375,2.2029082500584423,-9.517540212664008,0.8567572607196867
1759158628156377600,11.558377685546875,2.144301893441379,-9.534182719907164,0.8195708548806607
1759158628166436400,11.568436279296876,2.099759571881592,-9.54860696657896,0.7651650186933576
1759158628176494300,11.578494384765625,2.060502935639769,-9.5619574465394,0.70264090411067
1759158628186553600,11.5885537109375,2.018869195003062,-9.574918634921312,0.6445823906347156
1759158628196612400,11.5986123046875,1.9714859509289264,-9.587723171436785,0.5993198285089806
1759158628206671400,11.60867138671875,1.9175489012971518,-9.60026818023324,0.5729402825621888
1759158628216729300,11.618729248046876,1.8605555328346788,-9.612060909357666,0.5630180600173771
1759158628226788600,11.62878857421875,1.8090809277936815,-9.622037528970838,0.5603460643291474
1759158628236847400,11.638847412109374,1.7712398574382067,-9.62861515379548,0.5682039747552946
1759158628246906600,11.64890673828125,1.7525101686574518,-9.63029331614077,0.5971074496891349
1759158628256965400,11.65896533203125,1.7531811997868119,-9.626486909595132,0.6538382216926664
1759158628267023400,11.6690234375,1.7678128055989741,-9.617372459769248,0.7425556389350444
1759158628277082400,11.679082275390625,1.7902412027671932,-9.603482466104627,0.859387828418985
1759158628287141400,11.689141357421875,1.8155457398936152,-9.585322540035843,0.9978810839604586
1759158628297200400,11.699200439453126,1.837467356583476,-9.563794598838687,1.1523653970990329
1759158628307258400,11.70925830078125,1.8480837354049084,-9.540826980227232,1.3143833936780691
1759158628317317400,11.7193173828125,1.8435104361400008,-9.51921428335607,1.4684778307162225
1759158628327376400,11.72937646484375,1.8262695246122775,-9.501434296515583,1.5993386916831134
1759158628337435400,11.739435302734375,1.804013853662461,-9.489863101187348,1.690688503255695
1759158628347494400,11.749494384765624,1.7837497949212788,-9.485622394877671,1.7353928835093975
1759158628357552600,11.759552734375,1.7704666811086236,-9.485605443742871,1.7490340169794856
1759158628367611400,11.769611328125,1.7670730931475758,-9.48534474698007,1.7538744427479802
1759158628377670400,11.77967041015625,1.7758936745934186,-9.483284307318925,1.7561041014961898
1759158628387729400,11.7897294921875,1.7966452245905995,-9.479942011153698,1.753035946097225
1759158628397787400,11.799787353515624,1.824838615026325,-9.475849188882112,1.7460305973798036
1759158628407846400,11.809846435546875,1.8528924508608877,-9.471782670095562,1.738534396405518
1759158628417905400,11.819905517578125,1.8733898799665272,-9.468688211211562,1.7334144230432806
1759158628427964400,11.82996435546875,1.881731445723772,-9.46721872318089,1.7324078763492405
1759158628438023400,11.8400234375,1.87729185584113,-9.467007126256823,1.7383730683639644
1759158628448081400,11.850081298828124,1.8631044866651296,-9.467074346274137,1.7532057497061788
1759158628458140400,11.860140380859375,1.8441304677344859,-9.467438503411412,1.771207708734274
1759158628468199400,11.870199462890625,1.8257839330524206,-9.468350942081212,1.7852787580542264
1759158628478258400,11.880258544921874,1.8172051975384353,-9.466873270744085,1.8017910630464553
1759158628488316400,11.89031640625,1.8283479383215306,-9.462067916288971,1.815704437586665
1759158628498375400,11.90037548828125,1.8620801120534538,-9.456356552904843,1.8111789229862392
1759158628508434400,11.910434326171876,1.9028038982383906,-9.452488771560787,1.7888989943780005
1759158628518493400,11.920493408203125,1.9163751813426613,-9.452332704216241,1.7751887411944567
1759158628528551400,11.930551513671874,1.8961296811714767,-9.454550380265712,1.7850922955714166
1759158628538610400,11.9406103515625,1.8518997865617275,-9.45777927918434,1.8141794199764727
1759158628548668700,11.950668701171875,1.7973308687672018,-9.462830717355013,1.8425081272296606
1759158628558727400,11.9607275390625,1.753376283967495,-9.467205863699316,1.8622817721053957
1759158628568786700,11.97078662109375,1.741050178618729,-9.467295295548439,1.8733532012179492
1759158628578844700,11.9808447265625,1.7528472916573286,-9.463044652366637,1.8837991919085382
1759158628588903700,11.990903564453125,1.7627797798678277,-9.458532143378257,1.897146895390004
1759158628598962400,12.00096240234375,1.7563386409044264,-9.456842290595173,1.9114903319105505
1759158628609021700,12.011021728515624,1.7338237344965337,-9.45824981930554,1.9250357499212025
1759158628619079700,12.02107958984375,1.701470009510964,-9.461216267895699,1.9392770412415266
1759158628629138400,12.031138427734374,1.6642169681765138,-9.464285007816553,1.9565476172551513
1759158628639197700,12.04119775390625,1.6243796094372867,-9.466998358428478,1.9767986703842877
1759158628649256400,12.05125634765625,1.5837046308301388,-9.46921428091228,1.9990609172053635
1759158628659314700,12.061314697265624,1.5456791438184678,-9.470766186529398,2.0213485907286404
1759158628669373400,12.07137353515625,1.5127600400350987,-9.471363567900656,2.0433346509568393
1759158628679432700,12.0814326171875,1.4857266332894563,-9.471001748850941,2.0647339973382652
1759158628689491500,12.091491455078126,1.4644978211693465,-9.470264666748045,2.0831953905716536
1759158628699549700,12.1015498046875,1.4485358435362576,-9.46973392087221,2.0967251726217566
1759158628709608400,12.1116083984375,1.4375133681319654,-9.469443413493037,2.1056090285621583
1759158628719667700,12.121667724609376,1.4308664774633943,-9.469148229938744,2.1114551242418584
1759158628729726500,12.1317265625,1.4274215977065263,-9.468333406424522,2.117427330519259
1759158628739785700,12.14178564453125,1.4246176462017,-9.466744675928354,2.1264001799173653
1759158628749843700,12.15184375,1.4188827558115125,-9.464790034729242,2.138903687659651
1759158628759902500,12.16190234375,1.4080093334890902,-9.463317039567231,2.1525633796997368
1759158628769961500,12.17196142578125,1.3912892309650777,-9.462951713386177,2.165011650123447
1759158628780020500,12.1820205078125,1.3702208701036869,-9.463653139653802,2.175349796525389
1759158628790078700,12.19207861328125,1.3478406959913671,-9.465561603623629,2.181026819248497
1759158628800137500,12.202137451171875,1.3294547060817479,-9.468509932035207,2.179512176901847
1759158628810196700,12.21219677734375,1.3187179157510398,-9.472133383229375,2.17027015517354
1759158628820255500,12.22225537109375,1.3170415069714188,-9.476327327787876,2.1529111702241
1759158628830313700,12.232313720703125,1.322243313398212,-9.480102170151472,2.1330108302287756
1759158628840372500,12.24237255859375,1.3270539285503327,-9.483435113966465,2.115133082102239
1759158628850431700,12.252431640625,1.3268588443696498,-9.487263732343912,2.0980165276065468
1759158628860489700,12.26248974609375,1.3239597619272767,-9.491186458745599,2.0820409598395226
1759158628870548500,12.272548583984374,1.3219140814438461,-9.494922138142584,2.066252000685781
1759158628880607500,12.282607421875,1.3233843001268804,-9.499718140247463,2.0431400051675737
1759158628890666500,12.29266650390625,1.3342412097059189,-9.504393730843066,2.0141237540416417
1759158628900724700,12.302724853515626,1.3594479855462909,-9.505422489368915,1.9922987295940517
1759158628910783500,12.312783447265625,1.3940801768578588,-9.503295998734234,1.9784585664205252
1759158628920842800,12.3228427734375,1.427319890897721,-9.500308507356047,1.9690857579194008
1759158628930901500,12.332901611328126,1.4534865978114306,-9.497628474491835,1.9628664450131355
1759158628940959500,12.34295947265625,1.472470553614199,-9.495350008165836,1.9597290237702427
1759158628951018500,12.3530185546875,1.4873687014080583,-9.493808623942732,1.9559419064469634
1759158628961077500,12.363077392578125,1.4959054974764585,-9.493902731966973,1.9489637379974125
1759158628971136500,12.373136474609375,1.4955959931358693,-9.495617134669423,1.9408304081633685
1759158628981194500,12.383194580078126,1.4943030307158827,-9.497633150666951,1.931943775743991
1759158628991253500,12.39325341796875,1.4973381606280802,-9.499664948755502,1.9195659402079879
1759158629001312500,12.4033125,1.5026450348645448,-9.502305818653106,1.9022702297531067
1759158629011371500,12.41337158203125,1.5039365359798074,-9.506014025521278,1.8826161196038125
1759158629021429500,12.423429443359375,1.5011938131429254,-9.510183420160413,1.8636510146319865
1759158629031488800,12.43348876953125,1.4999416211247443,-9.513255082690716,1.848923985621333
1759158629041547500,12.443547607421875,1.5097107354670762,-9.51406756811738,1.8367561395741998
1759158629051606500,12.4536064453125,1.5304749988153576,-9.512956976526976,1.8252829977929592
1759158629061664500,12.46366455078125,1.5543971416726707,-9.511721297252178,1.8114574476666747
1759158629071723500,12.4737236328125,1.5804633108213544,-9.510151271456479,1.7970920915752648
1759158629081782500,12.483782470703124,1.6082354071050882,-9.508408811703324,1.7816016769766807
1759158629091841500,12.493841552734375,1.6319234489455818,-9.506777411109208,1.7687281668782233
1759158629101899500,12.5038994140625,1.6504821650736032,-9.503553188365697,1.7688320656441152
1759158629111958500,12.51395849609375,1.6665097552888095,-9.497624967360496,1.7855657583020625
1759158629122017500,12.524017578125,1.6829552786551414,-9.48877705951631,1.8169097217231989
1759158629132075500,12.534075439453124,1.7043623699516057,-9.477572359412909,1.8550393997617065
1759158629142134800,12.544134765625,1.7323643294684588,-9.464580775892735,1.8950005310110747
1759158629152193500,12.554193603515625,1.7653224500879645,-9.450065928328037,1.9365636906296013
1759158629162252500,12.56425244140625,1.803773761296272,-9.434480821183323,1.9767047084905205
1759158629172310500,12.574310546875,1.845411885847151,-9.419757299304008,2.0082342576116323
1759158629182369500,12.58436962890625,1.8866747473448513,-9.406893141555786,2.030069072800875
1759158629192428500,12.594428466796876,1.9261850660867987,-9.396877358976006,2.0393366673618556
1759158629202487600,12.604487548828125,1.9629208055488765,-9.389712874174117,2.037304284751415
1759158629212545500,12.614545654296874,1.9968904412984847,-9.385188674747944,2.0251006367385385
1759158629222604500,12.6246044921875,2.027981452871859,-9.382980351048708,2.0043343275636434
1759158629232663600,12.63466357421875,2.0522762284338474,-9.38335093792677,1.9776894817441701
1759158629242721500,12.644721435546876,2.066368028280884,-9.386288160422444,1.9488729909740388
1759158629252780800,12.65478076171875,2.0707662632398307,-9.390871396559476,1.9219386606886981
1759158629262839600,12.664839599609374,2.067494548092782,-9.396213926631212,1.8992124496176839
1759158629272898600,12.674898681640625,2.056530232616514,-9.401956269675493,1.8826307326510547
1759158629282956500,12.68495654296875,2.0391898062370717,-9.408177336147427,1.870369801492989
1759158629293015600,12.695015625,2.020371123998612,-9.414320661208032,1.859852060740441
1759158629303074600,12.705074462890625,2.0017919496044514,-9.420195106199383,1.8501710630729793
1759158629313133600,12.715133544921875,1.9850743312984704,-9.4246602689147,1.8454352667227387
1759158629323191600,12.725191650390625,1.9721914688497781,-9.427235087838769,1.8460947535447776
1759158629333250600,12.73525048828125,1.9589282287813723,-9.429463285282253,1.8488384992949662
1759158629343309600,12.7453095703125,1.9449096403010189,-9.432069083866477,1.850347004161775
1759158629353367600,12.755367431640625,1.931789900356531,-9.435030856281518,1.8489938359871505
1759158629363426600,12.765426513671875,1.9208419514931738,-9.438187274485825,1.844279228555411
1759158629373485600,12.775485595703126,1.9137837035447358,-9.440876659700274,1.8378395508967338
1759158629383544600,12.785544677734375,1.9099599074728786,-9.442764080882071,1.83211693546623
1759158629393602600,12.7956025390625,1.9064625668764112,-9.44401612676978,1.8293067003510892
1759158629403661600,12.80566162109375,1.9024873796351254,-9.444459194362164,1.8311556892186402
1759158629413720600,12.815720458984375,1.8992934058994053,-9.44392494135499,1.8372130895614622
1759158629423778600,12.825778564453126,1.8986977780938148,-9.442800321239233,1.8436032289899884
1759158629433837600,12.835837646484375,1.9029175877459346,-9.44049379786253,1.8510401009924708
