time,seconds_elapsed,z,y,x
1759158616638895600,0.0408955078125,-0.020502077415585518,0.020175250247120857,0.10557716339826584
1759158616648954400,0.050954345703125,-0.019000377506017685,0.02264745533466339,0.10064470022916794
1759158616659012600,0.0610126953125,-0.017507676035165787,0.03509693592786789,0.09205680340528488
1759158616669071400,0.0710712890625,-0.01241355761885643,0.03544240444898605,0.08034098893404007
1759158616679130600,0.081130615234375,-0.023438511416316032,0.056573256850242615,0.05389845371246338
1759158616689188600,0.091188720703125,0.0269976407289505,0.06707242131233215,0.04425843060016632
1759158616699247400,0.101247314453125,0.026466071605682373,0.0230620875954628,0.04039844498038292
1759158616709306400,0.111306396484375,0.023841198533773422,-0.02649056166410446,0.033709097653627396
1759158616719364400,0.1213642578125,0.00469307042658329,-0.06145493686199188,0.03019772097468376
1759158616729423600,0.131423583984375,-0.014343075454235077,-0.08295541256666183,0.019423343241214752
1759158616739482400,0.141482421875,-0.02754489704966545,-0.09693408012390137,-0.0022771586664021015
1759158616749540400,0.151540283203125,-0.03812592476606369,-0.1091543659567833,-0.014439713209867477
1759158616759599400,0.161599365234375,-0.032200124114751816,-0.09737973660230637,-0.01529192365705967
1759158616769658400,0.171658447265625,-0.013144358992576599,-0.06389804184436798,-0.0003008744679391384
1759158616779717400,0.18171728515625,-0.0020384450908750296,-0.034301526844501495,0.01971384696662426
1759158616789775400,0.191775390625,0.00015849899500608444,-0.023392189294099808,0.03337961062788963
1759158616799834400,0.20183447265625,-0.0051720840856432915,-0.033897291868925095,0.03891712427139282
1759158616809893400,0.211893310546875,-0.02221604250371456,-0.06449174135923386,0.035096339881420135
1759158616819951600,0.22195166015625,-0.03419440984725952,-0.07538726180791855,0.024916404858231544
1759158616830010400,0.23201025390625,-0.02031714655458927,-0.06802739948034286,0.009028801694512367
1759158616840069600,0.242069580078125,-0.0020507914014160633,-0.04405868053436279,-0.006867873016744852
1759158616850128400,0.25212841796875,0.016862332820892334,-0.020191293209791183,-0.02401236817240715
1759158616860186400,0.262186279296875,0.024286426603794098,-0.0070299506187438965,-0.03482506796717644
1759158616870245400,0.272245361328125,0.02334659732878208,-0.010571954771876335,-0.035173676908016205
1759158616880304400,0.282304443359375,0.020261283963918686,-0.032323867082595825,-0.017390424385666847
1759158616890362600,0.292362548828125,0.012502036057412624,-0.05545397847890854,0.0069618141278624535
1759158616900421400,0.30242138671875,0.006453996524214745,-0.07803945243358612,0.02868575230240822
1759158616910480400,0.31248046875,0.008868739940226078,-0.08137356489896774,0.0419883131980896
1759158616920538400,0.322538330078125,0.011109789833426476,-0.055389635264873505,0.050742123275995255
1759158616930597600,0.33259765625,0.016375841572880745,-0.012841508723795414,0.05409541353583336
1759158616940656400,0.342656494140625,0.01971651054918766,-0.0010679407278075814,0.03890527784824371
1759158616950715600,0.352715576171875,0.015500020235776901,-0.014162352308630943,0.011221934109926224
1759158616960773400,0.3627734375,0.004700903315097094,-0.02401817962527275,-0.010252730920910835
1759158616970832400,0.372832275390625,-0.0056844004429876804,-0.023117564618587494,-0.02779572084546089
1759158616980891400,0.382891357421875,-0.009315354749560356,-0.03210306912660599,-0.03775541111826897
1759158616990950400,0.392950439453125,-0.012367572635412216,-0.029456835240125656,-0.03094448149204254
1759158617001008400,0.40300830078125,-0.008493738248944283,-0.01750084012746811,-0.01155773550271988
1759158617011067400,0.4130673828125,-0.0012103538028895855,-0.0065468125976622105,0.008577944710850716
1759158617021126400,0.42312646484375,0.008376493118703365,-0.00752179604023695,0.021211180835962296
1759158617031184400,0.433184326171875,0.0073153735138475895,-0.024085666984319687,0.021715397015213966
1759158617041243600,0.44324365234375,-0.003979359287768602,-0.03659746050834656,0.014803696423768997
1759158617051302400,0.453302490234375,-0.01157223992049694,-0.0544070340692997,-0.001344993244856596
1759158617061361700,0.463361572265625,-0.011473435908555984,-0.06234937906265259,-0.023986656218767166
1759158617071419400,0.47341943359375,-0.005710621830075979,-0.05689362809062004,-0.042819999158382416
1759158617081478400,0.483478515625,0.0017494247294962406,-0.04559223726391792,-0.042992573231458664
1759158617091537400,0.493537353515625,0.0037484578788280487,-0.030729934573173523,-0.024597611278295517
1759158617101596400,0.503596435546875,0.005205473862588406,-0.020695410668849945,-0.0036310749128460884
1759158617111654400,0.513654296875,0.007173902355134487,-0.029432274401187897,0.006591816432774067
1759158617121713400,0.52371337890625,0.0031919442117214203,-0.03629231080412865,0.005269290413707495
1759158617131772400,0.5337724609375,-0.002500309841707349,-0.04329051822423935,-0.0044752685353159904
1759158617141831400,0.54383154296875,-0.008959008380770683,-0.04909062013030052,-0.015006206929683685
1759158617151889400,0.553889404296875,-0.010461732745170593,-0.04843322932720184,-0.018160318955779076
1759158617161948400,0.563948486328125,-0.006508003454655409,-0.044776178896427155,-0.011606544256210327
1759158617172007400,0.57400732421875,0.002389226108789444,-0.03832176327705383,-0.004672447219491005
1759158617182066400,0.58406640625,0.00734670041128993,-0.02920975722372532,-0.006193911656737328
1759158617192124400,0.59412451171875,0.007063266355544329,-0.02755916118621826,-0.015968240797519684
1759158617202183400,0.604183349609375,0.006194010842591524,-0.03981423005461693,-0.0302656888961792
1759158617212242400,0.614242431640625,0.0017419368959963322,-0.0534634105861187,-0.03743947669863701
1759158617222301400,0.624301513671875,-0.0023737121373414993,-0.052303869277238846,-0.037533752620220184
1759158617232359400,0.634359375,0.000498433131724596,-0.044056493788957596,-0.0323876291513443
1759158617242418400,0.64441845703125,0.006875638850033283,-0.031063729897141457,-0.026211759075522423
1759158617252477400,0.6544775390625,0.017455261200666428,-0.01491604931652546,-0.0209785345941782
1759158617262536400,0.664536376953125,0.023825543001294136,-0.0052224090322852135,-0.015400810167193413
1759158617272594400,0.674594482421875,0.02418944612145424,-0.008990570902824402,-0.019219689071178436
1759158617282653400,0.6846533203125,0.008269336074590683,-0.02798449993133545,-0.021127577871084213
1759158617292712400,0.69471240234375,0.0020308722741901875,-0.047097619622945786,-0.017756454646587372
1759158617302771500,0.704771484375,-0.004056314937770367,-0.05797769874334335,-0.012952909804880619
1759158617312829400,0.714829345703125,-0.0017652329988777637,-0.04985576495528221,-0.011582551524043083
1759158617322888400,0.724888427734375,0.008487937040627003,-0.04185269773006439,-0.01396235078573227
1759158617332947500,0.734947509765625,0.013101419433951378,-0.03715716674923897,-0.015870898962020874
1759158617343006500,0.74500634765625,0.012298475950956345,-0.040085844695568085,-0.016982238739728928
1759158617353064400,0.755064453125,0.011049631051719189,-0.03767925873398781,-0.012134891003370285
1759158617363123500,0.76512353515625,0.0008963299915194511,-0.03851096332073212,-0.011365503072738647
1759158617373182500,0.775182373046875,-0.005296956282109022,-0.04294217750430107,-0.013487081974744797
1759158617383241500,0.785241455078125,-0.004936630371958017,-0.04334218427538872,-0.00857514701783657
1759158617393299500,0.795299560546875,0.0028710965998470783,-0.03834986686706543,0.0012402883730828762
1759158617403358500,0.8053583984375,0.008088495582342148,-0.02390168234705925,0.005261395126581192
1759158617413417200,0.815417236328125,0.01662134751677513,-0.02099127136170864,-0.0009862412698566914
1759158617423476500,0.8254765625,0.018438156694173813,-0.028171153739094734,-0.010975224897265434
1759158617433535200,0.83553515625,0.005574170034378767,-0.050100427120923996,-0.019786067306995392
1759158617443593500,0.845593505859375,-0.017605984583497047,-0.07424651086330414,-0.02675795555114746
1759158617453652500,0.855652587890625,-0.027942899614572525,-0.08154278993606567,-0.03509655222296715
1759158617463711500,0.86571142578125,-0.025910908356308937,-0.07553496956825256,-0.03810033202171326
1759158617473770500,0.8757705078125,-0.01099776104092598,-0.06685568392276764,-0.02735985815525055
1759158617483828500,0.885828369140625,0.010077696293592453,-0.04748677834868431,-0.008630109950900078
1759158617493887500,0.895887451171875,0.018462441861629486,-0.031535614281892776,0.004970150534063578
1759158617503946500,0.905946533203125,0.01372813992202282,-0.03342592716217041,0.009734812192618847
1759158617514005500,0.916005615234375,-0.0026020214427262545,-0.05035044997930527,-0.0007546357810497284
1759158617524064500,0.926064453125,-0.013812331482768059,-0.06544525176286697,-0.016382331028580666
1759158617534122500,0.93612255859375,-0.01791052706539631,-0.06381568312644958,-0.03457728773355484
1759158617544182000,0.94618212890625,-0.01478637382388115,-0.051507618278265,-0.03743353113532066
1759158617554241000,0.956240966796875,-0.004160237032920122,-0.0412142388522625,-0.032128870487213135
1759158617564300000,0.966300048828125,0.008364609442651272,-0.031636178493499756,-0.020959841087460518
1759158617574358000,0.97635791015625,0.018328826874494553,-0.020237624645233154,-0.007309017702937126
1759158617584417000,0.9864169921875,0.019186366349458694,-0.020355336368083954,-0.009225960820913315
1759158617594476000,0.99647607421875,0.01740693859755993,-0.03175436332821846,-0.020598791539669037
1759158617604535000,1.00653515625,0.015473483130335808,-0.04074066877365112,-0.04281061887741089
1759158617614594000,1.016593994140625,0.013898042030632496,-0.03617177903652191,-0.06478098779916763
1759158617624652000,1.026652099609375,0.01624881476163864,-0.025787578895688057,-0.0712045282125473
1759158617634711000,1.0367109375,0.013938549906015396,-0.01977686397731304,-0.056652169674634933
1759158617644769800,1.046769775390625,0.01083410158753395,-0.022079965099692345,-0.0421760268509388
1759158617654829000,1.0568291015625,0.011122193187475204,-0.02821327932178974,-0.038706596940755844
1759158617664887800,1.0668876953125,0.01572972722351551,-0.02212023362517357,-0.0404999703168869
1759158617674946000,1.076946044921875,0.014014646410942078,-0.010540055111050606,-0.04112155735492706
1759158617685005000,1.087005126953125,0.007091227453202009,-0.008200468495488167,-0.04589660465717316
1759158617695064000,1.09706396484375,-0.04606511443853378,0.061518337577581406,-0.07907216250896454
1759158617705123000,1.107123046875,0.023132599890232086,0.06541747599840164,-0.06637447327375412
1759158617715182000,1.11718212890625,0.0065166521817445755,0.004245745949447155,-0.053178198635578156
1759158617725240000,1.127239990234375,0.006601872853934765,-0.01552449632436037,-0.055396080017089844
1759158617735299000,1.137299072265625,0.0056504057720303535,-0.013247611932456493,-0.04938996955752373
1759158617745358000,1.147358154296875,0.008593198843300343,0.004281314555555582,-0.04981421306729317
1759158617755417000,1.1574169921875,0.010111147537827492,0.012320677749812603,-0.05949915945529938
1759158617765476000,1.16747607421875,0.009891968220472336,0.008294244296848774,-0.07765232771635056
1759158617775535000,1.17753515625,0.010362242348492146,0.0071641537360847,-0.08908022195100784
1759158617785593000,1.187593017578125,0.009020009078085423,0.016187209635972977,-0.10261467844247818
1759158617795651800,1.19765185546875,0.009588208049535751,0.03895232826471329,-0.11557940393686295
1759158617805711000,1.207711181640625,0.0002964395098388195,0.07784833014011383,-0.13733822107315063
1759158617815769900,1.217769775390625,-0.028092917054891586,0.1676763892173767,-0.17690281569957733
1759158617825829000,1.2278291015625,0.033365920186042786,0.14362086355686188,-0.17199061810970306
1759158617835886800,1.237886962890625,0.019100738689303398,0.1382206529378891,-0.19024315476417542
1759158617845946000,1.247946044921875,0.00011213263496756554,0.17011679708957672,-0.2393060326576233
1759158617856004900,1.2580048828125,-0.05547313019633293,0.2743108570575714,-0.3174978196620941
1759158617866064100,1.268064208984375,-0.05848809331655502,0.39969515800476074,-0.3734303414821625
1759158617876123000,1.278122802734375,-0.045708589255809784,0.45852670073509216,-0.4047222137451172
1759158617886182100,1.28818212890625,-0.05474469065666199,0.5135257840156555,-0.4274866580963135
1759158617896239900,1.298239990234375,-0.05600062757730484,0.5648103952407837,-0.4604402482509613
1759158617906299100,1.308299072265625,-0.026016097515821457,0.5996986031532288,-0.5144278407096863
1759158617916358000,1.31835791015625,0.00523499958217144,0.6334618926048279,-0.5933557748794556
1759158617926417200,1.328417236328125,-0.23131228983402252,0.6968424320220947,-0.7950776815414429
1759158617936476000,1.338475830078125,-0.5305871367454529,0.598442554473877,-1.0076440572738647
1759158617946534000,1.348533935546875,-0.7570556402206421,0.21720892190933228,-1.1709249019622803
1759158617956593200,1.35859326171875,-0.9271121621131897,-0.3085681200027466,-1.2249504327774048
1759158617966652000,1.36865185546875,-1.048578143119812,-0.7754093408584595,-1.210896372795105
1759158617976711000,1.3787109375,-1.1441105604171753,-1.0804709196090698,-1.173945426940918
1759158617986770000,1.38877001953125,-1.2062289714813232,-1.2333635091781616,-1.117305040359497
1759158617996829000,1.398828857421875,-1.212546944618225,-1.2472360134124756,-1.0490338802337646
1759158618006888000,1.408887939453125,-1.1419650316238403,-1.1304795742034912,-0.9561935067176819
1759158618016946200,1.4189462890625,-0.9630498290061951,-0.9117812514305115,-0.8422515988349915
1759158618027005000,1.4290048828125,-0.7085453271865845,-0.5862215757369995,-0.701129138469696
1759158618037064200,1.439064208984375,-0.3895561695098877,-0.17808376252651215,-0.518628716468811
1759158618047123000,1.449123046875,-0.02301493100821972,0.3651489019393921,-0.31869882345199585
1759158618057182000,1.459181884765625,0.34559670090675354,0.9333008527755737,-0.14721481502056122
1759158618067241000,1.469240966796875,0.6699795722961426,1.416572093963623,-0.034232333302497864
1759158618077299200,1.47929931640625,0.8520381450653076,1.6492356061935425,-0.007136557251214981
1759158618087358000,1.48935791015625,0.8584151268005371,1.6322994232177734,-0.07565969228744507
1759158618097417200,1.499417236328125,0.7957064509391785,1.4219233989715576,-0.1988697201013565
1759158618107476000,1.50947607421875,0.7481357455253601,1.064051628112793,-0.3230036497116089
1759158618117535200,1.51953515625,0.7571143507957458,0.6931917071342468,-0.44517335295677185
1759158618127594000,1.529593994140625,0.7918632626533508,0.37722545862197876,-0.545845091342926
1759158618137653000,1.539653076171875,0.8129771947860718,0.15272492170333862,-0.6192299723625183
1759158618147711000,1.5497109375,0.8040856719017029,0.04637077823281288,-0.6461257338523865
1759158618157770000,1.55977001953125,0.7428203821182251,0.030002618208527565,-0.6250712871551514
1759158618167829000,1.5698291015625,0.6525884866714478,0.11935833096504211,-0.5698211193084717
1759158618177888000,1.579887939453125,0.5573118329048157,0.3012002408504486,-0.5014153718948364
1759158618187947000,1.589947021484375,0.45406562089920044,0.5440887808799744,-0.43192893266677856
1759158618198006000,1.600006103515625,0.36469030380249023,0.7857390642166138,-0.37202370166778564
1759158618208065000,1.61006494140625,0.2896791696548462,0.8905259370803833,-0.3221248388290405
1759158618218124000,1.6201240234375,0.2037300169467926,0.8216005563735962,-0.29790329933166504
1759158618228182000,1.63018212890625,0.10734941810369492,0.6400520205497742,-0.2944619655609131
1759158618238241000,1.640240966796875,0.036576658487319946,0.4273681938648224,-0.2999683916568756
1759158618248300000,1.650300048828125,-0.02151806652545929,0.18744932115077972,-0.2996656000614166
1759158618258359000,1.660359130859375,-0.07016817480325699,-0.03888454660773277,-0.2961607575416565
1759158618268418000,1.67041796875,-0.11269087344408035,-0.2287823110818863,-0.28321725130081177
1759158618278477000,1.68047705078125,-0.1470770686864853,-0.3385613262653351,-0.27140891551971436
1759158618288536000,1.6905361328125,-0.1761191189289093,-0.3693791627883911,-0.25445497035980225
1759158618298595000,1.700594970703125,-0.20943507552146912,-0.3584898114204407,-0.2231930047273636
1759158618308653000,1.710653076171875,-0.23474575579166412,-0.3327152132987976,-0.19121110439300537
1759158618318712000,1.720712158203125,-0.24384130537509918,-0.2892743945121765,-0.16357551515102386
1759158618328771000,1.73077099609375,-0.237016960978508,-0.23308143019676208,-0.15547311305999756
1759158618338830000,1.740830078125,-0.21646487712860107,-0.18651875853538513,-0.16526468098163605
1759158618348889000,1.75088916015625,-0.19507063925266266,-0.1401592493057251,-0.19652220606803894
1759158618358948000,1.760947998046875,-0.16631124913692474,-0.09410908818244934,-0.2448747456073761
1759158618369007000,1.771007080078125,-0.12637421488761902,-0.04688724875450134,-0.30032870173454285
1759158618379066000,1.781066162109375,-0.08611966669559479,0.016444414854049683,-0.360180526971817
1759158618389123800,1.791123779296875,-0.05458437651395798,0.08283568918704987,-0.4128192365169525
1759158618399183000,1.80118310546875,-0.01902676746249199,0.16671159863471985,-0.4493879973888397
1759158618409241900,1.811241943359375,0.020180823281407356,0.27864426374435425,-0.4724946618080139
1759158618419301000,1.821301025390625,0.0405016764998436,0.40914222598075867,-0.4802340865135193
1759158618429359900,1.83135986328125,0.03382672742009163,0.5023006796836853,-0.47464120388031006
1759158618439419100,1.841419189453125,0.010639574378728867,0.5248479843139648,-0.4491744637489319
1759158618449478000,1.851477783203125,-0.01845839060842991,0.492492139339447,-0.40823742747306824
1759158618459537200,1.861537109375,-0.06128197908401489,0.4245782494544983,-0.37139883637428284
1759158618469596000,1.871595947265625,-0.10675119608640671,0.315060019493103,-0.3393349051475525
1759158618479655000,1.881655029296875,-0.14709512889385223,0.1931883543729782,-0.3168294429779053
1759158618489713000,1.891712890625,-0.18456020951271057,0.09503009170293808,-0.31506165862083435
1759158618499772200,1.901772216796875,-0.22432345151901245,-0.003692453494295478,-0.33796563744544983
1759158618509831000,1.911830810546875,-0.2674088776111603,-0.1336163729429245,-0.3688068985939026
1759158618519890200,1.92189013671875,-0.30401667952537537,-0.2693747878074646,-0.4004638195037842
1759158618529949000,1.931948974609375,-0.33349788188934326,-0.39335983991622925,-0.4497338831424713
1759158618540008200,1.94200830078125,-0.33555153012275696,-0.49697694182395935,-0.5017765164375305
1759158618550066700,1.952066650390625,-0.31941917538642883,-0.5742741227149963,-0.5347656011581421
1759158618560125700,1.962125732421875,-0.28199368715286255,-0.5773152112960815,-0.5424072742462158
1759158618570184700,1.972184814453125,-0.24337995052337646,-0.48431333899497986,-0.529468297958374
1759158618580243700,1.98224365234375,-0.21091143786907196,-0.3109752833843231,-0.517236053943634
1759158618590302700,1.992302734375,-0.16554635763168335,-0.13252674043178558,-0.5049082636833191
1759158618600360700,2.002360595703125,-0.11286841332912445,-0.025438854470849037,-0.5110768675804138
1759158618610419700,2.012419677734375,-0.07502968609333038,0.06047019362449646,-0.535194456577301
1759158618620478700,2.022478759765625,-0.04194426164031029,0.18282531201839447,-0.5470010638237
1759158618630537700,2.032537841796875,-0.01572117954492569,0.34948593378067017,-0.5311092138290405
1759158618640596700,2.0425966796875,-0.0373787060379982,0.5545223355293274,-0.4383297562599182
1759158618650655700,2.05265576171875,-0.07915731519460678,0.7296193242073059,-0.32751697301864624
1759158618660714800,2.06271484375,-0.12812203168869019,0.7809317111968994,-0.23418636620044708
1759158618670773800,2.072773681640625,-0.1690087467432022,0.7236055731773376,-0.12874436378479004
1759158618680832500,2.08283251953125,-0.1898948699235916,0.642551064491272,-0.024204153567552567
1759158618690891800,2.092891845703125,-0.16978587210178375,0.5872611403465271,0.06483197957277298
1759158618700950500,2.102950439453125,-0.12464265525341034,0.6045345067977905,0.10243906825780869
1759158618711009800,2.113009765625,-0.07636860013008118,0.6857183575630188,0.10028164088726044
1759158618721067800,2.12306787109375,-0.0455065593123436,0.8345062136650085,0.0661550983786583
1759158618731126500,2.13312646484375,-0.007824692875146866,0.9174916744232178,0.0015052668750286102
1759158618741185800,2.143185791015625,0.0489007867872715,0.9384837746620178,-0.07885250449180603
1759158618751244500,2.15324462890625,0.08844366669654846,0.9472527503967285,-0.15020257234573364
1759158618761303600,2.163303466796875,0.11066874861717224,1.0056251287460327,-0.1889020800590515
1759158618771362600,2.173362548828125,0.16793443262577057,0.9717387557029724,-0.19323131442070007
1759158618781421600,2.183421630859375,0.2115643322467804,0.8515352010726929,-0.15491357445716858
1759158618791480600,2.19348046875,0.21036964654922485,0.6667624115943909,-0.06043526902794838
1759158618801539600,2.20353955078125,0.17301152646541595,0.47789809107780457,0.05022389069199562
1759158618811598600,2.2135986328125,0.11212633550167084,0.44501176476478577,0.18306688964366913
1759158618821657600,2.22365771484375,0.0779266431927681,0.46078628301620483,0.34074798226356506
1759158618831716600,2.233716552734375,0.08918781578540802,0.4641575813293457,0.45123642683029175
1759158618841775600,2.243775634765625,0.1562187671661377,0.38749855756759644,0.4602730870246887
1759158618851834600,2.253834716796875,0.27638328075408936,0.29554975032806396,0.32437384128570557
1759158618861893600,2.2638935546875,0.4037857949733734,0.07643420994281769,0.04306821897625923
1759158618871952600,2.27395263671875,0.4795506000518799,-0.28454822301864624,-0.3114485740661621
1759158618882010600,2.2840107421875,0.49420061707496643,-0.734029233455658,-0.6819834113121033
1759158618892069600,2.294069580078125,0.42902904748916626,-1.1199814081192017,-1.0360791683197021
1759158618902128600,2.304128662109375,0.19704513251781464,-1.070479154586792,-1.365100622177124
1759158618912187600,2.314187744140625,-0.2184857577085495,-0.5289384126663208,-1.6786426305770874
1759158618922246700,2.32424658203125,-0.7424135208129883,0.16613395512104034,-1.9079220294952393
1759158618932305700,2.3343056640625,-1.352061152458191,0.5173239707946777,-1.7532680034637451
1759158618942364700,2.34436474609375,-2.047065258026123,0.2030891627073288,-1.1645935773849487
1759158618952423700,2.354423583984375,-2.2956383228302,-0.2592017650604248,-0.5570899844169617
1759158618962482700,2.364482666015625,-1.9015988111495972,-0.4877784848213196,-0.4325049817562103
1759158618972541700,2.374541748046875,-1.4461274147033691,-0.48778408765792847,-0.7354610562324524
1759158618982600700,2.3846005859375,-1.2293862104415894,-0.4192258417606354,-1.1315220594406128
1759158618992659500,2.394659423828125,-1.1758524179458618,-0.30792275071144104,-1.414979100227356
1759158619002718700,2.40471875,-1.2332603931427002,-0.024489689618349075,-1.5118536949157715
1759158619012777500,2.414777587890625,-1.312563180923462,0.3135967254638672,-1.391440987586975
1759158619022836700,2.424836669921875,-1.319852352142334,0.5914257764816284,-1.1314747333526611
1759158619032895500,2.4348955078125,-1.2151341438293457,0.8065937161445618,-0.8704944849014282
1759158619042954800,2.444954833984375,-1.02898108959198,0.9378746747970581,-0.6811107993125916
1759158619053013500,2.455013427734375,-0.8574715256690979,1.0222904682159424,-0.5795631408691406
1759158619063072800,2.46507275390625,-0.705350935459137,1.0183781385421753,-0.4995066821575165
1759158619073131500,2.475131591796875,-0.5788470506668091,0.9525498747825623,-0.3475651144981384
1759158619083190800,2.485190673828125,-0.5532826781272888,1.0040042400360107,-0.1183774396777153
1759158619093249500,2.49524951171875,-0.46934354305267334,1.1973567008972168,0.21572810411453247
1759158619103307800,2.505307861328125,-0.31784743070602417,1.4578361511230469,0.6181412935256958
1759158619113366500,2.515366455078125,-0.09345909208059311,1.6155757904052734,1.0396702289581299
1759158619123425800,2.52542578125,0.335409939289093,1.5254833698272705,1.3570576906204224
1759158619133484500,2.535484619140625,1.0520052909851074,1.2202303409576416,1.4723427295684814
1759158619143543800,2.545543701171875,1.78498113155365,0.5809975862503052,1.5425328016281128
1759158619153602600,2.5556025390625,1.9705277681350708,0.24582521617412567,1.7459461688995361
1759158619163661800,2.565661865234375,1.7403439283370972,0.3450368046760559,2.024902582168579
1759158619173720600,2.575720458984375,1.5606673955917358,0.3767648935317993,2.341296911239624
1759158619183779800,2.58577978515625,1.6101984977722168,0.1559760719537735,2.669473171234131
1759158619193838600,2.595838623046875,1.6909708976745605,-0.3303682804107666,2.8277804851531982
1759158619203897600,2.605897705078125,1.6668592691421509,-1.0892916917800903,2.877758741378784
1759158619213956600,2.61595654296875,1.4857730865478516,-1.7120569944381714,2.921738386154175
1759158619224015600,2.626015625,1.1653964519500732,-1.598972201347351,2.9079208374023438
1759158619234074600,2.63607470703125,0.7370249032974243,-0.6640961766242981,2.8427062034606934
1759158619244133600,2.646133544921875,0.317242830991745,0.6451764702796936,2.829787492752075
1759158619254192600,2.656192626953125,0.13210628926753998,1.7466180324554443,2.779543161392212
1759158619264251600,2.666251708984375,0.169606015086174,2.2388947010040283,2.5965614318847656
1759158619274310700,2.676310546875,0.3199446499347687,2.3780677318573,2.2201788425445557
1759158619284369700,2.68636962890625,0.5258868336677551,2.2659077644348145,1.7223252058029175
1759158619294428700,2.6964287109375,0.7598804235458374,1.6563973426818848,1.161881685256958
1759158619304487700,2.70648779296875,1.2621071338653564,0.7425408363342285,0.6997727155685425
1759158619314546700,2.716546630859375,2.022940158843994,-0.09347526729106903,0.5954796075820923
1759158619324605700,2.726605712890625,2.932363510131836,0.14372053742408752,0.7939985394477844
1759158619334664700,2.736664794921875,3.336885929107666,0.7133232951164246,1.0874240398406982
1759158619344723700,2.7467236328125,2.869239091873169,0.33034417033195496,1.323775053024292
1759158619354782500,2.756782470703125,2.054274559020996,-0.5912834405899048,1.5609556436538696
1759158619364841700,2.766841796875,1.5583858489990234,-1.850868582725525,1.7556215524673462
1759158619374900500,2.776900390625,1.4432568550109863,-2.59002947807312,1.9301187992095947
1759158619384959700,2.786959716796875,1.331946849822998,-3.021139621734619,2.145353317260742
1759158619395018500,2.7970185546875,1.0742721557617188,-3.262054443359375,2.295426607131958
1759158619405077800,2.807077880859375,0.7729897499084473,-3.2343335151672363,2.2552366256713867
1759158619415136500,2.817136474609375,0.40436938405036926,-3.1027486324310303,2.0825750827789307
1759158619425195800,2.82719580078125,-0.053946223109960556,-3.5126771926879883,2.122884511947632
1759158619435254500,2.837254638671875,-0.3795938193798065,-3.536425828933716,1.962145447731018
1759158619445313800,2.847313720703125,-0.48903727531433105,-3.074467897415161,1.454296588897705
1759158619455372500,2.85737255859375,-0.5491933226585388,-2.650148630142212,0.8503073453903198
1759158619465431800,2.867431884765625,-0.5395776629447937,-2.34175181388855,0.31243330240249634
1759158619475490600,2.877490478515625,-0.4986293911933899,-1.8528590202331543,-0.13245999813079834
1759158619485549600,2.887549560546875,-0.5297766923904419,-1.246315836906433,-0.43858423829078674
1759158619495608600,2.897608642578125,-0.5587676167488098,-0.6642315983772278,-0.6421046257019043
1759158619505667600,2.90766748046875,-0.46338415145874023,-0.14892730116844177,-0.8598807454109192
1759158619515726600,2.9177265625,-0.32956749200820923,0.3012790381908417,-1.0981547832489014
1759158619525785600,2.92778564453125,-0.1633225679397583,0.5686865448951721,-1.2632249593734741
1759158619535844600,2.9378447265625,0.02925674058496952,0.693932056427002,-1.3364092111587524
1759158619545904000,2.947904052734375,0.2209169864654541,0.7555125951766968,-1.2527581453323364
1759158619555963400,2.95796337890625,0.40566661953926086,0.8087601065635681,-1.0515393018722534
1759158619566022100,2.968022216796875,0.7135484218597412,0.9087409973144531,-0.9076797366142273
1759158619576081200,2.9780810546875,1.0490102767944336,1.1281039714813232,-0.9926891326904297
1759158619586140200,2.98814013671875,1.2268604040145874,1.4248524904251099,-1.3040410280227661
1759158619596199200,2.99819921875,1.0557368993759155,1.3231898546218872,-1.4120982885360718
1759158619606258400,3.008258544921875,0.8938767313957214,1.2292976379394531,-1.2779592275619507
1759158619616317200,3.018317138671875,1.3023457527160645,1.5647039413452148,-1.2810466289520264
1759158619626376400,3.02837646484375,2.1486949920654297,1.664394497871399,-1.5580822229385376
1759158619636435200,3.038435302734375,2.6581897735595703,1.394195556640625,-1.7887556552886963
1759158619646494500,3.048494384765625,2.525876760482788,0.6908990144729614,-2.218273639678955
1759158619656553200,3.05855322265625,1.825919508934021,0.7091986536979675,-2.6842613220214844
1759158619666612500,3.068612548828125,0.02177521213889122,2.149897813796997,-3.0793514251708984
1759158619676671200,3.078671142578125,-1.8841381072998047,3.5942437648773193,-3.075700521469116
1759158619686730500,3.08873046875,-2.2973060607910156,2.79030704498291,-2.240696907043457
1759158619696789200,3.098789306640625,-1.70103120803833,1.1926491260528564,-1.2580875158309937
1759158619706848300,3.10884814453125,-1.6920925378799438,-0.28377029299736023,-0.5608186721801758
1759158619716907300,3.1189072265625,-2.2221274375915527,-0.9552381634712219,-0.1119295284152031
1759158619726966300,3.12896630859375,-2.887359142303467,-0.8896671533584595,0.3997507691383362
1759158619737025300,3.139025390625,-3.4467101097106934,-0.4017941355705261,0.8547249436378479
1759158619747084300,3.149084228515625,-3.798086166381836,-0.47095614671707153,0.6653019785881042
1759158619757143300,3.159143310546875,-3.9347658157348633,-0.8630075454711914,-0.3717811703681946
1759158619767202300,3.169202392578125,-3.7855358123779297,-1.5656845569610596,-1.736719012260437
1759158619777261300,3.17926123046875,-3.116943836212158,-2.5575292110443115,-3.066572904586792
1759158619787320300,3.1893203125,-2.040999174118042,-3.4487786293029785,-4.430587291717529
1759158619797379300,3.19937939453125,-0.9807985424995422,-3.279794216156006,-5.503339767456055
1759158619807438300,3.209438232421875,-0.4920971691608429,-1.4724032878875732,-5.814988613128662
1759158619817497300,3.219497314453125,-0.1453903317451477,1.979737639427185,-5.037781715393066
1759158619827556400,3.229556396484375,-0.4503048360347748,6.418867588043213,-3.280717372894287
1759158619837615400,3.239615478515625,-1.0761666297912598,10.00781536102295,-1.655108094215393
1759158619847674400,3.24967431640625,-1.8659939765930176,11.477715492248535,-1.351937174797058
1759158619857733400,3.2597333984375,-2.4212515354156494,6.767505645751953,-2.152891159057617
1759158619867792400,3.26979248046875,-1.8171367645263672,1.6967750787734985,-1.1196715831756592
1759158619877851100,3.27985107421875,-0.8860207796096802,-1.6348644495010376,0.006511355750262737
1759158619887910400,3.289910400390625,-0.09110156446695328,-2.6402394771575928,0.7938710451126099
1759158619897969200,3.29996923828125,0.5344448685646057,-1.9029890298843384,1.1956820487976074
1759158619908028400,3.3100283203125,0.976233184337616,-0.8161154389381409,1.4961228370666504
1759158619918087200,3.320087158203125,1.2801686525344849,-0.08171440660953522,1.735625982284546
1759158619928146400,3.330146484375,1.4810329675674438,0.13756735622882843,1.995705246925354
1759158619938205200,3.340205078125,1.6130259037017822,0.196105495095253,2.1376280784606934
1759158619948264400,3.350264404296875,1.655489206314087,0.14217860996723175,2.1814329624176025
1759158619958323200,3.3603232421875,1.670304536819458,-0.07611538469791412,2.1897006034851074
1759158619968382500,3.370382568359375,1.6618928909301758,-0.4030604958534241,2.1998345851898193
1759158619978441200,3.380441162109375,1.634330153465271,-0.6850903034210205,2.194200277328491
1759158619988500500,3.39050048828125,1.617368221282959,-0.9281652569770813,2.203601360321045
1759158619998559200,3.400559326171875,1.6041635274887085,-1.1914044618606567,2.266399383544922
1759158620008618200,3.4106181640625,1.5958449840545654,-1.5198971033096313,2.417266607284546
1759158620018677200,3.42067724609375,1.5725271701812744,-1.6313636302947998,2.746445417404175
1759158620028736300,3.430736328125,1.6024867296218872,-1.4456387758255005,3.2267603874206543
1759158620038795300,3.440795166015625,1.9369685649871826,-0.9690660834312439,3.6794590950012207
1759158620048854300,3.450854248046875,2.6595258712768555,-0.5620812773704529,3.402292490005493
1759158620058913300,3.460913330078125,3.2929978370666504,0.15048524737358093,2.61635422706604
1759158620068972300,3.47097216796875,3.826308488845825,1.142317771911621,2.211435317993164
1759158620079032000,3.481031982421875,4.217537879943848,2.0155551433563232,1.5800471305847168
1759158620089091300,3.49109130859375,3.9441380500793457,4.095977783203125,-0.19438348710536957
1759158620099150000,3.501150146484375,2.356966495513916,5.290063381195068,-1.8478928804397583
1759158620109209300,3.511209228515625,0.18988049030303955,5.553591728210449,-2.090528726577759
1759158620119268000,3.52126806640625,0.7334415316581726,3.9004087448120117,-1.6102385520935059
1759158620129327400,3.531327392578125,3.808884859085083,1.8933286666870117,-1.0486037731170654
1759158620139386000,3.54138623046875,4.917154788970947,2.0996177196502686,-1.0460455417633057
1759158620149445400,3.5514453125,3.7580580711364746,1.4103490114212036,-0.8236404657363892
1759158620159504100,3.561504150390625,2.4194560050964355,-0.4995654225349426,-0.2395930290222168
1759158620169563400,3.5715634765625,1.468726396560669,-2.542088270187378,0.6154559850692749
1759158620179622100,3.5816220703125,0.750254213809967,-4.60142183303833,1.4365497827529907
1759158620189681400,3.591681396484375,0.12809237837791443,-5.952272891998291,1.902938723564148
1759158620199740200,3.601740234375,-0.2481667399406433,-5.945612907409668,1.717874526977539
1759158620209799200,3.611799072265625,-0.6893216371536255,-5.669297218322754,1.381115436553955
1759158620219858200,3.621858154296875,-1.0207139253616333,-5.3699727058410645,1.1756170988082886
1759158620229917200,3.631917236328125,-1.1452817916870117,-4.925209045410156,0.9678251147270203
1759158620239976200,3.64197607421875,-1.181434988975525,-4.474671840667725,0.7926530241966248
1759158620250035200,3.65203515625,-1.2006365060806274,-3.926497220993042,0.602554202079773
1759158620260094200,3.66209423828125,-1.2556278705596924,-3.5333526134490967,0.4660560190677643
1759158620270153200,3.6721533203125,-1.370179533958435,-3.0312891006469727,0.32664698362350464
1759158620280212200,3.682212158203125,-1.3813493251800537,-2.3743598461151123,0.11714967340230942
1759158620290271200,3.692271240234375,-1.2707390785217285,-1.4736254215240479,-0.2546747028827667
1759158620300330200,3.702330322265625,-1.108801245689392,-0.34427011013031006,-0.7682147026062012
1759158620310389200,3.71238916015625,-0.8441475033760071,0.6181145310401917,-1.2390122413635254
1759158620320448300,3.7224482421875,-0.4995048940181732,1.166215181350708,-1.5062377452850342
1759158620330507300,3.73250732421875,-0.18042641878128052,1.5456132888793945,-1.5404177904129028
1759158620340566300,3.742566162109375,0.11943858861923218,1.7346628904342651,-1.445497989654541
1759158620350625300,3.752625244140625,0.4183235466480255,1.759473443031311,-1.323948860168457
1759158620360684000,3.76268408203125,0.6332678198814392,1.5195391178131104,-1.236816167831421
1759158620370744300,3.772744384765625,0.9218646883964539,1.0318002700805664,-1.1874271631240845
1759158620380803300,3.78280322265625,1.4283555746078491,0.6662484407424927,-1.1591291427612305
1759158620390862300,3.7928623046875,1.9517031908035278,0.4373393654823303,-1.0805511474609375
1759158620400921300,3.80292138671875,2.223419189453125,0.3761098384857178,-0.9453461766242981
1759158620410980400,3.81298046875,2.189840793609619,0.5077565312385559,-0.7325388789176941
1759158620421039400,3.823039306640625,1.8296939134597778,0.6028633713722229,-0.5542171001434326
1759158620431098000,3.83309814453125,1.3252660036087036,0.734144389629364,-0.5496928095817566
1759158620441157400,3.843157470703125,1.151753544807434,-0.31685107946395874,-0.7405056357383728
1759158620451216100,3.853216064453125,1.5050350427627563,-1.5116468667984009,-0.8482312560081482
1759158620461275400,3.863275390625,1.0083903074264526,-1.1582515239715576,-0.5520493984222412
1759158620471334100,3.873334228515625,-1.0434998273849487,1.3452703952789307,-0.9656898975372314
1759158620481393400,3.883393310546875,-3.6644985675811768,3.516955614089966,-1.330876111984253
1759158620491452200,3.8934521484375,-4.45707368850708,3.0871150493621826,-0.9730861783027649
1759158620501511400,3.903511474609375,-3.240678071975708,0.20245148241519928,-0.7733442783355713
1759158620511570200,3.913570068359375,-1.7886245250701904,-1.7898731231689453,-0.4182250201702118
1759158620521629400,3.92362939453125,-0.916844367980957,-2.7933082580566406,-0.4134204089641571
1759158620531688200,3.933688232421875,-0.5945354700088501,-2.4785873889923096,-0.7591409087181091
1759158620541747200,3.943747314453125,-1.397070050239563,-0.448973685503006,-0.7746429443359375
1759158620551806200,3.95380615234375,-2.4549777507781982,1.5949491262435913,-1.1085096597671509
1759158620561865200,3.963865234375,-3.272116184234619,2.3706560134887695,-2.082493305206299
1759158620571924200,3.97392431640625,-3.593201160430908,1.1843664646148682,-2.4948675632476807
1759158620581983000,3.98398291015625,-3.435920476913452,-1.4624985456466675,-2.463015079498291
1759158620592042200,3.994042236328125,-2.872178792953491,-4.057658672332764,-3.0599002838134766
1759158620602102300,4.004102294921875,-2.4708681106567383,-4.903825759887695,-4.224465847015381
1759158620612161300,4.014161376953125,-2.2984049320220947,-1.7861196994781494,-5.102128505706787
1759158620622220300,4.02422021484375,-2.0739104747772217,3.8281736373901367,-4.556606292724609
1759158620632279000,4.034279052734375,-1.2766129970550537,8.11005687713623,-3.7348129749298096
1759158620642338300,4.04433837890625,-1.2062135934829712,10.719589233398438,-2.9578332901000977
1759158620652397000,4.05439697265625,-1.509359359741211,9.47283935546875,-2.7762649059295654
1759158620662456300,4.064456298828125,-1.4078478813171387,5.095545291900635,-1.9744408130645752
1759158620672515000,4.07451513671875,-0.9379883408546448,1.9834403991699219,-0.6196699142456055
1759158620682574300,4.08457421875,-0.38422736525535583,0.24017274379730225,0.5837097764015198
1759158620692633000,4.094633056640625,0.09490801393985748,-0.5725800395011902,1.5719738006591797
1759158620702692400,4.1046923828125,0.42907240986824036,-1.0225414037704468,2.34586763381958
1759158620712751000,4.114751220703125,0.6969791054725647,-1.3428725004196167,2.9362409114837646
1759158620722810400,4.124810302734375,0.8456114530563354,-1.6422888040542603,3.2609689235687256
1759158620732869000,4.134869140625,0.9168347716331482,-2.0265495777130127,3.4048805236816406
1759158620742928400,4.144928466796875,0.998054027557373,-2.314986228942871,3.2938857078552246
1759158620752987100,4.154987060546875,1.0842480659484863,-2.557985544204712,3.0184545516967773
1759158620763046100,4.165046142578125,1.1809277534484863,-2.559304714202881,2.6833105087280273
1759158620773105200,4.175105224609375,1.3460779190063477,-2.4856629371643066,2.312389373779297
1759158620783164200,4.1851640625,1.532560110092163,-1.9360021352767944,2.0282516479492188
1759158620793223200,4.19522314453125,1.6677056550979614,-0.8603559732437134,1.9144601821899414
1759158620803282200,4.2052822265625,1.7425113916397095,0.6006576418876648,1.984918475151062
1759158620813342200,4.21534228515625,1.8233228921890259,1.758751392364502,2.254878282546997
1759158620823401200,4.225401123046875,2.031680107116699,1.7910209894180298,2.724698781967163
1759158620833460000,4.2354599609375,2.3679039478302,1.2248225212097168,3.0944559574127197
1759158620843519200,4.245519287109375,2.898818016052246,0.7073341012001038,2.9846444129943848
1759158620853578000,4.255577880859375,3.435213565826416,0.9992455840110779,2.5602595806121826
1759158620863637200,4.26563720703125,3.6852102279663086,2.2297818660736084,2.1630301475524902
1759158620873696000,4.275696044921875,3.6034493446350098,4.077121257781982,1.3348294496536255
1759158620883755300,4.28575537109375,3.03739595413208,6.489075660705566,-0.5676323771476746
1759158620893814000,4.29581396484375,1.5261989831924438,6.6446099281311035,-2.3545053005218506
1759158620903873300,4.305873291015625,0.30934181809425354,5.94216251373291,-3.333930492401123
1759158620913932000,4.31593212890625,2.0205607414245605,4.234572887420654,-2.668774366378784
1759158620923991300,4.3259912109375,3.807129383087158,1.657792091369629,-1.202847957611084
1759158620934050000,4.336050048828125,3.290512800216675,0.14073403179645538,-0.24576915800571442
1759158620944109300,4.346109375,2.4057769775390625,-0.603586733341217,0.06996270269155502
1759158620954168000,4.35616796875,1.5825916528701782,-1.0350769758224487,0.03250221908092499
1759158620964227000,4.36622705078125,1.0032845735549927,-2.3248274326324463,0.3432909846305847
1759158620974286000,4.3762861328125,0.44610723853111267,-4.27898645401001,1.0446088314056396
1759158620984345000,4.386344970703125,-0.004879391752183437,-5.893225193023682,1.5759207010269165
1759158620994404000,4.396404052734375,-0.4175492823123932,-6.396810054779053,1.5954914093017578
1759158621004464000,4.406464111328125,-0.943839430809021,-5.841267108917236,1.2168985605239868
1759158621014523400,4.4165234375,-1.495923399925232,-5.27603816986084,0.9970836639404297
1759158621024582100,4.42658203125,-1.6738462448120117,-4.3824944496154785,0.8029000759124756
1759158621034641200,4.43664111328125,-1.564448595046997,-3.651407480239868,0.5853384733200073
1759158621044700200,4.4467001953125,-1.4283556938171387,-2.9859671592712402,0.46214568614959717
1759158621054759200,4.45675927734375,-1.2596322298049927,-2.5980145931243896,0.4698011577129364
1759158621064818200,4.466818115234375,-1.098677635192871,-2.1152968406677246,0.4492071866989136
1759158621074877200,4.476877197265625,-1.0444656610488892,-1.6005669832229614,0.4073112905025482
1759158621084936200,4.486936279296875,-1.0412216186523438,-1.0981906652450562,0.17918996512889862
1759158621094995200,4.4969951171875,-0.8924369215965271,-0.4619513154029846,-0.19763442873954773
1759158621105054200,4.50705419921875,-0.5352185964584351,0.15408284962177277,-0.522971510887146
1759158621115113200,4.51711328125,-0.05495394021272659,0.8173327445983887,-0.721768319606781
1759158621125172200,4.527172119140625,0.3740626871585846,1.4386367797851562,-0.7677654027938843
1759158621135231200,4.537231201171875,0.6129315495491028,1.8871804475784302,-0.7857263088226318
1759158621145290200,4.547290283203125,0.6810019612312317,2.0104002952575684,-0.9168875217437744
1759158621155349200,4.557349365234375,0.6834079623222351,1.7269588708877563,-1.1227728128433228
1759158621165408300,4.567408203125,0.7666703462600708,1.2491930723190308,-1.3114320039749146
1759158621175467300,4.57746728515625,0.9885527491569519,1.0496011972427368,-1.4340319633483887
1759158621185526000,4.587526123046875,1.2636970281600952,0.9945509433746338,-1.4235422611236572
1759158621195586300,4.59758642578125,1.5537253618240356,1.241678237915039,-1.4786088466644287
1759158621205645000,4.60764501953125,1.9594802856445312,2.1232504844665527,-1.600138783454895
1759158621215704300,4.617704345703125,3.1434779167175293,1.4124646186828613,-2.090489625930786
1759158621225763000,4.62776318359375,3.6698086261749268,-0.4693322479724884,-1.94911527633667
1759158621235822000,4.637822021484375,2.4092319011688232,0.33980536460876465,-1.5431795120239258
1759158621245881000,4.647881103515625,-0.3816102147102356,3.913219690322876,-1.3234127759933472
1759158621255940000,4.657940185546875,-2.5258445739746094,5.674149036407471,-1.3916621208190918
1759158621265999000,4.6679990234375,-2.774625062942505,3.9560673236846924,-1.3103493452072144
1759158621276058000,4.67805810546875,-2.1247079372406006,1.0133121013641357,-1.3440487384796143
1759158621286117000,4.6881171875,-1.5880757570266724,-0.8203598260879517,-1.053774118423462
1759158621296176000,4.698176025390625,-1.7007248401641846,-1.7295763492584229,-0.6368359327316284
1759158621306235100,4.708235107421875,-2.3803491592407227,-2.167673110961914,-0.34730854630470276
1759158621316294100,4.718294189453125,-3.2495222091674805,-2.076749563217163,0.06709446012973785
1759158621326353200,4.728353271484375,-4.243545055389404,-1.4636482000350952,0.6786116361618042
1759158621336412200,4.738412109375,-5.223639965057373,-1.242283821105957,0.8434139490127563
1759158621346471400,4.748471435546875,-5.914860248565674,-1.2409498691558838,0.007188042625784874
1759158621356530200,4.7585302734375,-6.091423034667969,-2.4978833198547363,-1.0587549209594727
1759158621366589200,4.768589111328125,-5.3251752853393555,-4.318233013153076,-2.265453577041626
1759158621376648200,4.778648193359375,-4.054272174835205,-5.455793380737305,-3.463498830795288
1759158621386708200,4.788708251953125,-2.227823257446289,-3.6614320278167725,-5.110019207000732
1759158621396767200,4.798767333984375,-0.6989983916282654,0.7525058388710022,-6.235994338989258
1759158621406826200,4.808826171875,-0.135038360953331,6.281152248382568,-5.147580623626709
1759158621416885200,4.81888525390625,-0.8212786912918091,10.244721412658691,-2.958643674850464
1759158621426944300,4.8289443359375,-1.7023954391479492,7.8656535148620605,-2.2776741981506348
1759158621437003000,4.8390029296875,-1.9467804431915283,2.583188533782959,-1.1139816045761108
1759158621447062300,4.849062255859375,-1.7774003744125366,-0.9776500463485718,0.08634427189826965
1759158621457121000,4.85912109375,-1.3066538572311401,-1.7103490829467773,0.4183329939842224
1759158621467180300,4.86918017578125,-0.5303629636764526,-0.4169153869152069,0.40676209330558777
1759158621477239000,4.879239013671875,0.42646464705467224,0.7476817965507507,0.7006081342697144
1759158621487298300,4.88929833984375,1.224188208580017,1.06265389919281,1.1200666427612305
1759158621497357000,4.899357177734375,1.6622251272201538,1.0379754304885864,1.536248803138733
1759158621507416300,4.909416259765625,1.8292236328125,0.8401533961296082,1.7931724786758423
1759158621517475000,4.91947509765625,1.8601993322372437,0.5288926959037781,1.8941843509674072
1759158621527534300,4.929534423828125,1.7996805906295776,0.1287708729505539,1.9544682502746582
1759158621537593000,4.939593017578125,1.708490252494812,-0.21109217405319214,2.0192599296569824
1759158621547651300,4.9496513671875,1.6100667715072632,-0.3942670524120331,2.0745205879211426
1759158621557710300,4.95971044921875,1.5421106815338135,-0.43538734316825867,2.177847146987915
1759158621567770400,4.969770263671875,1.4936920404434204,-0.23961703479290009,2.306699275970459
1759158621577829400,4.979829345703125,1.4644883871078491,0.2788245677947998,2.4887592792510986
1759158621587888400,4.989888427734375,1.5096789598464966,0.8341636657714844,2.7382917404174805
1759158621597947400,4.999947509765625,1.81141197681427,1.0078743696212769,2.9296631813049316
1759158621608006400,5.01000634765625,2.251380443572998,0.4726371169090271,2.84916615486145
1759158621618065400,5.0200654296875,2.7812435626983643,-0.8021889925003052,2.3462133407592773
1759158621628124400,5.03012451171875,3.3053078651428223,-2.0807459354400635,1.7292914390563965
1759158621638183400,5.040183349609375,3.8680028915405273,-1.8704100847244263,1.8399516344070435
1759158621648242400,5.050242431640625,4.593356609344482,-1.5531748533248901,2.5076022148132324
1759158621658301400,5.060301513671875,5.173792362213135,-0.9165502786636353,3.064094305038452
1759158621668360400,5.0703603515625,4.737880229949951,2.2092249393463135,2.271761178970337
1759158621678419500,5.08041943359375,2.6529910564422607,5.002363681793213,0.4385024905204773
1759158621688478500,5.090478515625,-0.30345141887664795,7.012287139892578,-0.46109095215797424
1759158621698537500,5.100537353515625,0.15141433477401733,4.99031400680542,-0.8028386831283569
1759158621708596500,5.110596435546875,3.118534803390503,1.8879839181900024,-0.38140490651130676
1759158621718655200,5.1206552734375,3.7285947799682617,1.3079954385757446,-0.269577294588089
1759158621728714500,5.130714599609375,2.922682046890259,1.008724570274353,-0.4409002959728241
1759158621738773200,5.140773193359375,2.4412012100219727,-0.817203164100647,-0.3028106987476349
1759158621748832500,5.15083251953125,2.0296740531921387,-2.8304696083068848,0.32781705260276794
1759158621758892300,5.160892333984375,1.4374794960021973,-4.384476184844971,1.0623595714569092
1759158621768951300,5.170951416015625,0.8197579383850098,-5.049222469329834,1.3934434652328491
1759158621779010300,5.18101025390625,0.3303021788597107,-4.3101725578308105,0.9946519136428833
1759158621789069300,5.1910693359375,-0.048346053808927536,-3.8052496910095215,0.693423330783844
1759158621799128300,5.20112841796875,-0.46505701541900635,-3.7599265575408936,0.7444689273834229
1759158621809187300,5.211187255859375,-0.5843480229377747,-3.280217409133911,0.6399904489517212
1759158621819246300,5.221246337890625,-0.5855446457862854,-2.611100196838379,0.4144188463687897
1759158621829305300,5.231305419921875,-0.6446287035942078,-2.1936545372009277,0.2100641131401062
1759158621839364400,5.2413642578125,-0.7072494029998779,-1.8752330541610718,0.04701579362154007
1759158621849423400,5.25142333984375,-0.68272864818573,-1.6607162952423096,-0.15342463552951813
1759158621859482400,5.261482421875,-0.7613338828086853,-1.1986052989959717,-0.45990175008773804
1759158621869541400,5.271541259765625,-0.93797367811203,-0.6491667032241821,-0.6800711154937744
1759158621879600400,5.281600341796875,-0.9970126152038574,0.04157710447907448,-0.8826567530632019
1759158621889659400,5.291659423828125,-0.845369815826416,0.4878579378128052,-0.9664283394813538
1759158621899718400,5.301718505859375,-0.5606527328491211,0.989600419998169,-0.9071941375732422
1759158621909777400,5.31177734375,-0.19437484443187714,1.4175101518630981,-0.702109694480896
1759158621919836200,5.321836181640625,0.21124151349067688,1.7339876890182495,-0.46511080861091614
1759158621929895400,5.3318955078125,0.6640113592147827,1.7594542503356934,-0.3098250925540924
1759158621939954200,5.3419541015625,1.0336276292800903,1.6570532321929932,-0.429696261882782
1759158621950013400,5.352013427734375,1.201889991760254,1.5592074394226074,-0.7632744908332825
1759158621960073500,5.362073486328125,1.1913950443267822,1.3372219800949097,-1.0918424129486084
1759158621970132200,5.37213232421875,0.9968694448471069,0.7196087837219238,-1.2310426235198975
1759158621980191500,5.38219140625,0.8942715525627136,0.4381615221500397,-1.3390727043151855
1759158621990250200,5.392250244140625,1.3423404693603516,-1.2697596549987793,-1.9089667797088623
1759158622000309500,5.4023095703125,1.9954326152801514,-3.0126516819000244,-1.9803684949874878
1759158622010368300,5.4123681640625,1.6551399230957031,-2.6479475498199463,-1.5758700370788574
1759158622020427500,5.422427490234375,-0.33515697717666626,2.097249984741211,-1.7101466655731201
1759158622030486300,5.432486328125,-3.2369439601898193,5.911351203918457,-1.8148077726364136
1759158622040545500,5.442545654296875,-4.404980659484863,5.593160152435303,-2.0839273929595947
1759158622050604300,5.452604248046875,-3.677490472793579,3.5190072059631348,-1.9232369661331177
1759158622060663600,5.46266357421875,-2.269566535949707,0.8631556630134583,-1.5160974264144897
1759158622070722300,5.472722412109375,-1.7390058040618896,-0.8812047243118286,-1.202341079711914
1759158622080781600,5.482781494140625,-2.1980392932891846,-1.4507994651794434,-0.9787614345550537
1759158622090840300,5.49284033203125,-3.0699970722198486,-0.572765588760376,-0.33137252926826477
1759158622100899600,5.502899658203125,-3.9306931495666504,0.15269751846790314,0.34884020686149597
1759158622110958300,5.512958251953125,-4.469887733459473,-0.511628270149231,0.6255421042442322
1759158622121017300,5.523017333984375,-4.739932537078857,-1.5178581476211548,0.2547779083251953
1759158622131076400,5.533076416015625,-4.6900811195373535,-2.792037010192871,-0.7525255084037781
1759158622141135400,5.54313525390625,-4.198805332183838,-3.6001994609832764,-2.4801015853881836
1759158622151194400,5.5531943359375,-3.5778346061706543,-4.231424331665039,-4.160442352294922
1759158622161253400,5.56325341796875,-2.4931650161743164,-2.668809413909912,-5.702826976776123
1759158622171313400,5.5733134765625,-1.656449794769287,2.6137783527374268,-5.778041839599609
1759158622181372400,5.583372314453125,-1.4948724508285522,8.473126411437988,-3.7250850200653076
1759158622191431200,5.59343115234375,-1.9240443706512451,10.829459190368652,-1.4198155403137207
1759158622201490400,5.603490478515625,-1.96174156665802,6.283705711364746,-1.057196021080017
1759158622211549200,5.613549072265625,-1.5119154453277588,1.631497859954834,-0.3640593886375427
1759158622221608400,5.6236083984375,-1.1280449628829956,-0.6712238192558289,0.21598127484321594
1759158622231667200,5.633667236328125,-0.47756892442703247,-1.0891305208206177,0.7324100136756897
1759158622241726500,5.6437265625,0.21023420989513397,-0.7551178336143494,1.18477201461792
1759158622251785500,5.653785400390625,0.7790278792381287,-0.4425048530101776,1.5343941450119019
1759158622261844500,5.663844482421875,1.1651188135147095,-0.4239466190338135,1.9020849466323853
1759158622271903500,5.673903564453125,1.365164041519165,-0.5532649159431458,2.146254062652588
1759158622281962500,5.68396240234375,1.4478013515472412,-0.6266027688980103,2.2199809551239014
1759158622292021500,5.694021484375,1.4769169092178345,-0.5851325392723083,2.200784921646118
1759158622302080500,5.70408056640625,1.4737424850463867,-0.5090316534042358,2.1410813331604004
1759158622312139500,5.714139404296875,1.5002866983413696,-0.5041884183883667,2.0424253940582275
1759158622322198300,5.7241982421875,1.5652527809143066,-0.6269305944442749,1.9518486261367798
1759158622332257500,5.734257568359375,1.644281268119812,-0.7629336714744568,1.8981499671936035
1759158622342316300,5.74431640625,1.7135818004608154,-0.8141303062438965,1.9105442762374878
1759158622352375600,5.75437548828125,1.7696408033370972,-0.5709897875785828,1.9772766828536987
1759158622362434300,5.764434326171875,1.908509612083435,0.0896027460694313,2.0951461791992188
1759158622372493600,5.77449365234375,2.2476861476898193,0.6688700914382935,2.278623342514038
1759158622382552300,5.78455224609375,2.692171812057495,0.8354817628860474,2.2891733646392822
1759158622392611600,5.794611572265625,3.1983389854431152,0.14781703054904938,1.5813136100769043
1759158622402670300,5.80467041015625,3.6777658462524414,0.25169074535369873,1.4975776672363281
1759158622412730400,5.81473046875,4.0908284187316895,0.27096429467201233,1.7127634286880493
1759158622422789400,5.824789306640625,4.253577709197998,0.42975470423698425,1.7532914876937866
1759158622432848400,5.834848388671875,3.2207181453704834,2.9967894554138184,0.5475009083747864
1759158622442907400,5.844907470703125,0.663670003414154,4.75735330581665,-0.6480732560157776
1759158622452966400,5.85496630859375,-0.9210544228553772,5.014386177062988,-1.2722606658935547
1759158622463025400,5.865025390625,1.2409166097640991,3.1331567764282227,-1.4946831464767456
1759158622473084400,5.87508447265625,3.7803304195404053,1.7766510248184204,-1.1414811611175537
1759158622483143400,5.885143310546875,3.8058667182922363,1.2752540111541748,-1.113498568534851
1759158622493202400,5.895202392578125,2.397871494293213,0.4678070545196533,-0.9951403141021729
1759158622503261400,5.905261474609375,1.4965876340866089,-0.660912811756134,-0.5667003989219666
1759158622513320400,5.915320556640625,1.2052603960037231,-2.116997480392456,0.16140863299369812
1759158622523379200,5.925379150390625,0.838460385799408,-3.3807694911956787,0.8061267733573914
1759158622533438500,5.9354384765625,0.3668680787086487,-4.032594680786133,1.092242956161499
1759158622543498000,5.945498046875,-0.17081715166568756,-3.7377982139587402,0.9612832069396973
1759158622553557200,5.95555712890625,-0.6451408267021179,-3.7788052558898926,0.9448661208152771
1759158622563616000,5.965615966796875,-0.7671250104904175,-3.870511770248413,1.0260744094848633
1759158622573675300,5.97567529296875,-0.8042654395103455,-3.3395049571990967,0.8914604187011719
1759158622583734000,5.985734130859375,-0.8400741219520569,-3.3984620571136475,0.8902061581611633
1759158622593793300,5.995793212890625,-0.9900974035263062,-3.3474583625793457,0.8651588559150696
1759158622603852000,6.00585205078125,-1.1216914653778076,-3.2911031246185303,0.8429352641105652
1759158622613911000,6.0159111328125,-1.148329734802246,-2.544729709625244,0.5864328742027283
1759158622623970000,6.025969970703125,-1.0120691061019897,-1.7363675832748413,0.22349241375923157
1759158622634029000,6.036029052734375,-0.7173948884010315,-1.0088862180709839,-0.1535150557756424
1759158622644088000,6.046088134765625,-0.33169299364089966,-0.28498363494873047,-0.36626553535461426
1759158622654147000,6.05614697265625,0.08411140739917755,0.481397420167923,-0.405281126499176
1759158622664206000,6.0662060546875,0.48468631505966187,1.1403720378875732,-0.38429227471351624
1759158622674266000,6.07626611328125,0.7823726534843445,1.5041875839233398,-0.3802272081375122
1759158622684324900,6.086324951171875,0.9433923363685608,1.349943995475769,-0.39467906951904297
1759158622694384000,6.096384033203125,1.0556546449661255,1.0771433115005493,-0.5534396767616272
1759158622704443000,6.10644287109375,1.1475948095321655,0.968963623046875,-0.8842049837112427
1759158622714502100,6.116502197265625,1.1842514276504517,0.8810601234436035,-1.1990340948104858
1759158622724561000,6.126560791015625,0.9997294545173645,0.8632113933563232,-1.5140141248703003
1759158622734620200,6.1366201171875,0.7574943900108337,0.7325774431228638,-1.9459657669067383
1759158622744679000,6.146678955078125,0.5575706362724304,0.5247981548309326,-2.3419787883758545
1759158622754738200,6.15673828125,0.8034824132919312,-1.6487160921096802,-2.7941837310791016
1759158622764797000,6.166796875,1.1656684875488281,-2.9822800159454346,-2.1938397884368896
1759158622774856200,6.176856201171875,0.7264636754989624,-0.8195277452468872,-2.0713562965393066
1759158622784915000,6.1869150390625,-1.7401492595672607,4.633754730224609,-2.5064778327941895
1759158622794974200,6.19697412109375,-4.361995220184326,7.589038848876953,-2.2035939693450928
1759158622805033000,6.207032958984375,-4.079185485839844,5.179459095001221,-1.7560044527053833
1759158622815092000,6.217092041015625,-2.133483648300171,0.9658373594284058,-1.5291292667388916
1759158622825151000,6.22715087890625,-0.7377752065658569,-1.7303565740585327,-1.1944661140441895
1759158622835210000,6.2372099609375,-0.9909771084785461,-2.5374293327331543,-0.48762133717536926
1759158622845269000,6.24726904296875,-2.0822501182556152,-1.5035876035690308,0.38067692518234253
1759158622855328000,6.257327880859375,-3.199733018875122,-0.23399554193019867,1.0383857488632202
1759158622865387000,6.267386962890625,-3.931997537612915,-0.37702035903930664,1.1808565855026245
1759158622875446000,6.277446044921875,-4.146325588226318,-1.2243740558624268,0.8600340485572815
1759158622885505000,6.287505126953125,-4.121519088745117,-2.8241615295410156,0.27510306239128113
1759158622895564000,6.29756396484375,-3.8424038887023926,-4.276167869567871,-1.5023587942123413
1759158622905623000,6.307623046875,-3.3060808181762695,-5.160540580749512,-3.808959484100342
1759158622915682000,6.31768212890625,-2.240185499191284,-3.8997161388397217,-6.34301233291626
1759158622925741000,6.327740966796875,-1.7558739185333252,0.6600619554519653,-7.613705158233643
1759158622935800000,6.337800048828125,-1.8043879270553589,8.864810943603516,-5.438928604125977
1759158622945859000,6.347859130859375,-1.935655951499939,14.081862449645996,-2.31025767326355
1759158622955918000,6.35791796875,-1.9224541187286377,9.080297470092773,-1.459661841392517
1759158622965976800,6.367976806640625,-1.2970151901245117,1.481318473815918,-0.3411887288093567
1759158622976036000,6.3780361328125,-0.8490690588951111,-2.012415885925293,0.29623088240623474
1759158622986094800,6.3880947265625,-0.5061435699462891,-2.2511019706726074,0.627330482006073
1759158622996154000,6.398154052734375,-0.1200888380408287,-0.8613787889480591,0.8020488023757935
1759158623006212900,6.408212890625,0.3758467435836792,0.0208849236369133,1.2180124521255493
1759158623016272100,6.418272216796875,0.7905206084251404,0.24276511371135712,1.6753212213516235
1759158623026332200,6.428332275390625,1.1078062057495117,0.2912764847278595,1.991454839706421
1759158623036391000,6.438390869140625,1.2816482782363892,0.14677336812019348,2.090830087661743
1759158623046450200,6.4484501953125,1.3512691259384155,-0.09012679755687714,2.0988311767578125
1759158623056509000,6.458509033203125,1.3929004669189453,-0.35479679703712463,2.0561280250549316
1759158623066568200,6.468568115234375,1.411126971244812,-0.5937917828559875,1.9599425792694092
1759158623076627000,6.478626953125,1.4476323127746582,-0.7764774560928345,1.8472496271133423
1759158623086686200,6.488686279296875,1.4779988527297974,-0.5786488056182861,1.7519272565841675
1759158623096745000,6.498744873046875,1.4668525457382202,0.2861784100532532,1.8027502298355103
1759158623106804200,6.50880419921875,1.5365381240844727,0.9386206269264221,2.0019915103912354
1759158623116863000,6.518863037109375,1.861395001411438,0.7000653147697449,2.082540273666382
1759158623126922200,6.528922119140625,2.3478033542633057,-0.8729744553565979,1.5997971296310425
1759158623136981000,6.53898095703125,2.867157220840454,-1.985966444015503,1.2985546588897705
1759158623147040300,6.549040283203125,3.3832876682281494,-1.7706125974655151,1.6395479440689087
1759158623157099000,6.55909912109375,3.95198655128479,-1.344635248184204,2.140322208404541
1759158623167158000,6.569157958984375,4.4970293045043945,-1.146578073501587,2.6625614166259766
1759158623177217000,6.579217041015625,4.51090669631958,-0.6271639466285706,3.3849685192108154
1759158623187276000,6.589276123046875,2.5529210567474365,2.2097153663635254,2.8076772689819336
1759158623197335000,6.5993349609375,-0.7484584450721741,4.893956184387207,1.7538049221038818
1759158623207394000,6.60939404296875,-1.877959132194519,4.642075061798096,0.2545238733291626
1759158623217453000,6.619453125,0.625444769859314,1.7506288290023804,-0.5790019035339355
1759158623227512000,6.629511962890625,3.0561742782592773,1.2008024454116821,-0.8861498832702637
1759158623237571000,6.639571044921875,3.4710135459899902,1.828530192375183,-1.2529975175857544
1759158623247630000,6.649630126953125,2.675416946411133,1.199699878692627,-1.3703961372375488
1759158623257689000,6.659689208984375,2.036992311477661,-0.7111442685127258,-0.7941030859947205
1759158623267748000,6.669748046875,1.6039057970046997,-2.4145781993865967,0.1928739696741104
1759158623277807000,6.67980712890625,1.1557821035385132,-2.9994797706604004,0.8383225202560425
1759158623287866000,6.6898662109375,0.4740118980407715,-3.166381359100342,1.1973000764846802
1759158623297925000,6.699925048828125,-0.3973030149936676,-3.0027010440826416,1.4182947874069214
1759158623307984100,6.709984130859375,-0.8297685980796814,-3.0325753688812256,1.4121387004852295
1759158623318043000,6.72004296875,-0.8639641404151917,-3.0612263679504395,1.1828365325927734
1759158623328102100,6.73010205078125,-0.8452784419059753,-3.0744454860687256,0.7343219518661499
1759158623338161000,6.740160888671875,-0.8429729342460632,-3.3042609691619873,0.3382891118526459
1759158623348220200,6.75022021484375,-0.793334424495697,-3.215259313583374,0.10961715131998062
1759158623358279000,6.76027880859375,-0.7978817820549011,-2.458801746368408,-0.12121420353651047
1759158623368338200,6.770338134765625,-0.7274643182754517,-1.2588287591934204,-0.42115330696105957
1759158623378397000,6.78039697265625,-0.5319510102272034,-0.2705437242984772,-0.6204192638397217
1759158623388456200,6.790456298828125,-0.21235626935958862,0.4642154276371002,-0.6468945145606995
1759158623398515000,6.800514892578125,0.11864855885505676,1.13275945186615,-0.3843124508857727
1759158623408574200,6.81057421875,0.3562224209308624,1.4465032815933228,0.019445262849330902
1759158623418633000,6.820633056640625,0.5038726329803467,1.4670759439468384,0.33771032094955444
1759158623428692200,6.830692138671875,0.8234136700630188,1.4884437322616577,0.40486034750938416
1759158623438751000,6.8407509765625,1.3019099235534668,1.7676453590393066,0.06871697306632996
1759158623448810000,6.85081005859375,1.5639780759811401,1.8775990009307861,-0.4750421345233917
1759158623458869000,6.860868896484375,1.542866587638855,1.4983017444610596,-0.9909645915031433
1759158623468928000,6.870927978515625,1.2441949844360352,0.9132196307182312,-1.493951439857483
1759158623478987000,6.880987060546875,1.1972485780715942,1.286747694015503,-1.9637612104415894
1759158623489046000,6.8910458984375,1.8472566604614258,-0.15683531761169434,-2.3339450359344482
1759158623499105000,6.90110498046875,1.9636112451553345,-1.248711109161377,-1.7704600095748901
1759158623509164000,6.9111640625,1.2643232345581055,-0.2685042917728424,-1.4741060733795166
1759158623519223000,6.92122314453125,-0.41071242094039917,2.623840808868408,-1.6850733757019043
1759158623529282000,6.931281982421875,-2.9250619411468506,4.498647689819336,-1.5180063247680664
1759158623539341000,6.941341064453125,-4.173673629760742,3.165485143661499,-1.4890146255493164
1759158623549400300,6.951400390625,-3.2407047748565674,1.1121633052825928,-1.1100441217422485
1759158623559459300,6.961459228515625,-2.1564438343048096,-0.9107690453529358,-0.9445584416389465
1759158623569518300,6.971518310546875,-2.005443811416626,-1.97998046875,-1.0266189575195312
1759158623579577000,6.9815771484375,-2.5173566341400146,-1.815873622894287,-0.9654944539070129
1759158623589636400,6.99163623046875,-3.305408239364624,-0.3376205563545227,-0.3770735263824463
1759158623599695000,7.001695068359375,-3.6604278087615967,-0.6646630764007568,-0.08285601437091827
1759158623609754400,7.01175439453125,-3.686282157897949,-1.954627513885498,-0.3808622658252716
1759158623619813000,7.021813232421875,-4.1130218505859375,-3.2921242713928223,-1.0593986511230469
1759158623629872400,7.031872314453125,-4.490468502044678,-3.914656639099121,-2.50178599357605
1759158623639931100,7.04193115234375,-4.5239996910095215,-3.9380929470062256,-3.837430477142334
1759158623649990400,7.051990478515625,-3.4997825622558594,-1.3442174196243286,-5.19773530960083
1759158623660049200,7.062049072265625,-2.3677561283111572,4.672895908355713,-5.3627777099609375
1759158623670108400,7.0721083984375,-1.9133387804031372,9.813603401184082,-3.8988139629364014
1759158623680167200,7.082167236328125,-1.7512576580047607,8.950132369995117,-2.2685065269470215
1759158623690226400,7.092226318359375,-1.2648147344589233,3.9092469215393066,-0.8476511240005493
1759158623700285200,7.10228515625,-0.7812986969947815,0.5234124660491943,0.07761676609516144
1759158623710344200,7.11234423828125,-0.3200353682041168,-0.4520723521709442,0.6816613078117371
1759158623720403200,7.1224033203125,0.07784009724855423,-0.140895813703537,1.0771411657333374
1759158623730462200,7.132462158203125,0.41384953260421753,-0.10144476592540741,1.5562140941619873
1759158623740521200,7.142521240234375,0.6685414910316467,-0.4617350399494171,2.0452139377593994
1759158623750580200,7.152580322265625,0.792671263217926,-0.7824633121490479,2.4184257984161377
1759158623760639200,7.16263916015625,0.9238279461860657,-1.1091904640197754,2.532280921936035
1759158623770698200,7.1726982421875,1.0460180044174194,-0.976698100566864,2.402885913848877
1759158623780757200,7.18275732421875,1.2052851915359497,-0.7050639390945435,2.114426612854004
1759158623790816300,7.192816162109375,1.3541971445083618,-0.3226323127746582,1.8419227600097656
1759158623800875300,7.202875244140625,1.4996010065078735,0.375965416431427,1.6155391931533813
1759158623810934300,7.212934326171875,1.6328274011611938,1.368945598602295,1.4518038034439087
1759158623820993300,7.2229931640625,1.7152628898620605,2.3408524990081787,1.4435791969299316
1759158623831052300,7.23305224609375,1.8020058870315552,2.8935046195983887,1.4741994142532349
1759158623841111300,7.243111328125,1.9490289688110352,2.2682628631591797,1.4725208282470703
1759158623851170300,7.25317041015625,2.078845739364624,0.23912768065929413,1.331119418144226
1759158623861229000,7.26322900390625,2.167466878890991,-2.7539005279541016,0.8817874789237976
1759158623871288300,7.273288330078125,2.5682287216186523,-3.9949612617492676,1.197843074798584
1759158623881347000,7.28334716796875,3.259171485900879,-2.906306266784668,1.8049452304840088
1759158623891406300,7.29340625,3.960703134536743,-2.2457010746002197,2.621920108795166
1759158623901465000,7.303465087890625,4.541256427764893,-1.561514139175415,3.5118324756622314
1759158623911524400,7.3135244140625,4.074820041656494,0.4407883286476135,3.839082717895508
1759158623921583000,7.3235830078125,1.298171877861023,4.045295715332031,2.7421963214874268
1759158623931642400,7.333642333984375,-1.4469445943832397,5.66383695602417,0.891700029373169
1759158623941701000,7.343701171875,-0.8610513210296631,3.3050756454467773,-0.9188007712364197
1759158623951760400,7.353760498046875,2.0986061096191406,0.6095352172851562,-1.5235923528671265
1759158623961819100,7.363819091796875,3.741885185241699,1.1727501153945923,-1.6016051769256592
1759158623971878400,7.37387841796875,3.5461792945861816,1.9586564302444458,-1.7388538122177124
1759158623981937200,7.383937255859375,2.630485773086548,0.976946234703064,-1.533709168434143
1759158623991996400,7.393996337890625,1.816383957862854,-0.7682948708534241,-0.8579169511795044
1759158624002055200,7.40405517578125,1.2150682210922241,-2.1492505073547363,0.022477734833955765
1759158624012114200,7.4141142578125,0.5503373742103577,-2.873318910598755,0.585984468460083
1759158624022173200,7.424173095703125,-0.1565798819065094,-3.0212762355804443,0.7228504419326782
1759158624032232200,7.434232177734375,-0.8266374468803406,-3.040520429611206,0.7138704061508179
1759158624042291200,7.444291259765625,-1.3100227117538452,-3.2235267162323,0.7059651017189026
1759158624052350200,7.45435009765625,-1.45014226436615,-2.903104066848755,0.42890074849128723
1759158624062409200,7.4644091796875,-1.438171625137329,-2.645925998687744,0.11633618175983429
1759158624072468200,7.47446826171875,-1.3876783847808838,-2.6431548595428467,0.04476223513484001
1759158624082527200,7.48452734375,-1.272173285484314,-2.5819830894470215,0.16806738078594208
1759158624092586200,7.494586181640625,-1.0399550199508667,-1.9180169105529785,0.19475136697292328
1759158624102645200,7.504645263671875,-0.6810370087623596,-0.9269465208053589,0.11634443700313568
1759158624112704300,7.514704345703125,-0.3118925392627716,0.03511719033122063,0.009983801282942295
1759158624122763300,7.52476318359375,0.07688850909471512,0.8727505803108215,-0.1294393390417099
1759158624132822300,7.534822265625,0.4132040739059448,1.4102845191955566,-0.20223873853683472
1759158624142881300,7.54488134765625,0.6769790053367615,1.6634420156478882,-0.2788594663143158
1759158624152940300,7.554940185546875,0.9023982882499695,1.6718634366989136,-0.41479140520095825
1759158624162999300,7.564999267578125,1.0890768766403198,1.4816298484802246,-0.5953659415245056
1759158624173058300,7.575058349609375,1.2419795989990234,1.1413615942001343,-0.7518158555030823
1759158624183117300,7.585117431640625,1.2280943393707275,0.686051070690155,-0.8445737957954407
1759158624193176300,7.59517626953125,1.0343749523162842,0.20809361338615417,-0.8371656537055969
1759158624203235300,7.6052353515625,0.7787935733795166,0.08263237029314041,-0.9135128855705261
1759158624213294300,7.61529443359375,0.5286638140678406,0.06056065112352371,-1.042619228363037
1759158624223353300,7.625353271484375,0.5227375030517578,0.07918466627597809,-1.1260795593261719
1759158624233412400,7.635412353515625,1.215899109840393,-1.761505365371704,-1.7561311721801758
1759158624243471400,7.645471435546875,1.7118502855300903,-2.535020589828491,-2.260458469390869
1759158624253530400,7.6555302734375,0.7814716696739197,-0.05664854124188423,-2.5223593711853027
1759158624263589400,7.66558935546875,-2.174426794052124,5.425041675567627,-2.2268242835998535
1759158624273648400,7.6756484375,-4.155150890350342,7.154603481292725,-1.5374094247817993
1759158624283707400,7.685707275390625,-2.9914119243621826,3.4641385078430176,-1.495948314666748
1759158624293766100,7.69576611328125,-1.0941575765609741,-0.01712077297270298,-1.4060370922088623
1759158624303825400,7.705825439453125,-0.800088107585907,-1.7147208452224731,-0.9867860078811646
1759158624313884200,7.71588427734375,-1.6331731081008911,-1.977522611618042,-0.6071123480796814
1759158624323942100,7.725942138671875,-2.795137882232666,-0.6595325469970703,0.039927687495946884
1759158624334001400,7.73600146484375,-3.5123562812805176,0.32540425658226013,0.8086605668067932
1759158624344060200,7.74606005859375,-3.449392795562744,-0.32189515233039856,1.0411478281021118
1759158624354119400,7.756119384765625,-3.382275104522705,-1.3160743713378906,0.7736867666244507
1759158624364178200,7.76617822265625,-3.8130452632904053,-2.4718618392944336,-0.13209639489650726
1759158624374237200,7.7762373046875,-4.172509670257568,-3.3253612518310547,-1.842545747756958
1759158624384296200,7.786296142578125,-4.42853307723999,-4.298898220062256,-3.2103383541107178
1759158624394355200,7.796355224609375,-3.8167827129364014,-3.247648239135742,-4.654309272766113
1759158624404414200,7.806414306640625,-2.5747976303100586,0.667870819568634,-5.918842315673828
1759158624414473200,7.81647314453125,-1.9905924797058105,6.880425930023193,-5.26708459854126
1759158624424532200,7.8265322265625,-2.0955379009246826,11.80394172668457,-2.986905097961426
1759158624434591200,7.83659130859375,-2.0092062950134277,10.048259735107422,-1.6689229011535645
1759158624444650200,7.846650146484375,-1.4673410654067993,3.95872163772583,-0.6879562139511108
1759158624454709200,7.856709228515625,-0.9699273705482483,0.13517703115940094,0.33996257185935974
1759158624464768300,7.866768310546875,-0.5234355926513672,-1.3873732089996338,1.1125274896621704
1759158624474827300,7.8768271484375,-0.09576664865016937,-1.7712337970733643,1.5946979522705078
1759158624484886300,7.88688623046875,0.28523609042167664,-1.633236289024353,1.9267847537994385
1759158624494945300,7.8969453125,0.6092642545700073,-1.1907429695129395,2.0677602291107178
1759158624505004300,7.90700439453125,0.8094402551651001,-0.7381134033203125,2.045008659362793
1759158624515063300,7.917063232421875,0.9559563398361206,-0.41440263390541077,1.9322893619537354
1759158624525122000,7.9271220703125,1.1010738611221313,-0.38660377264022827,1.8233802318572998
1759158624535181300,7.937181396484375,1.2797772884368896,-0.6529793739318848,1.7051160335540771
1759158624545240000,7.947239990234375,1.4822540283203125,-1.0292669534683228,1.550624966621399
1759158624555299000,7.957299072265625,1.683612585067749,-1.2944614887237549,1.442162275314331
1759158624565358000,7.967358154296875,1.8012194633483887,-1.084574580192566,1.4586105346679688
1759158624575417000,7.9774169921875,1.8241229057312012,-0.004610071890056133,1.5346349477767944
1759158624585476000,7.98747607421875,1.8906973600387573,1.090083360671997,1.6177301406860352
1759158624595535000,7.99753515625,2.1835169792175293,1.1582934856414795,1.8181527853012085
1759158624605594000,8.007593994140626,2.5558667182922363,0.24552461504936218,1.7092812061309814
1759158624615652000,8.017652099609375,3.043243169784546,-0.9765291213989258,1.4399745464324951
1759158624625711000,8.027711181640624,3.6106326580047607,-0.6757498383522034,1.588201880455017
1759158624635770000,8.03777001953125,4.02769136428833,-0.05300121754407883,1.8275070190429688
1759158624645829000,8.0478291015625,4.374764442443848,-0.49463319778442383,2.170673370361328
1759158624655888100,8.05788818359375,4.647082805633545,-1.3284584283828735,2.681457281112671
1759158624665947100,8.067947021484375,3.843838930130005,-0.5292643308639526,2.7356038093566895
1759158624676006100,8.078006103515625,0.7190816402435303,1.4911712408065796,1.8978084325790405
1759158624686065200,8.088065185546874,-2.0984201431274414,2.759578227996826,0.47363775968551636
1759158624696124200,8.098124267578125,-1.357418417930603,1.309851050376892,-0.5663555264472961
1759158624706183200,8.10818310546875,1.7733758687973022,0.20047536492347717,-0.7878077626228333
1759158624716242200,8.1182421875,3.198983669281006,1.0660144090652466,-0.9894900321960449
1759158624726301200,8.12830126953125,2.554305076599121,1.1219801902770996,-1.1233018636703491
1759158624736360200,8.138360107421875,1.7729268074035645,-0.2050931304693222,-0.9985991716384888
1759158624746419200,8.148419189453126,1.3012666702270508,-1.8427308797836304,-0.34406158328056335
1759158624756478000,8.15847802734375,0.7990541458129883,-2.6331264972686768,0.30301806330680847
1759158624766537200,8.168537109375,0.1413695067167282,-2.88264799118042,0.849730372428894
1759158624776596000,8.178595947265626,-0.5855526924133301,-3.001149892807007,1.308066725730896
1759158624786655200,8.1886552734375,-1.0980439186096191,-2.9034154415130615,1.5827107429504395
1759158624796714000,8.1987138671875,-1.1125022172927856,-3.1168649196624756,1.6676071882247925
1759158624806773200,8.208773193359375,-0.8339733481407166,-3.294675827026367,1.419872522354126
1759158624816832000,8.21883203125,-0.610568106174469,-3.4789299964904785,1.048180103302002
1759158624826891300,8.228891357421874,-0.4998568296432495,-3.302664279937744,0.6875606775283813
1759158624836950000,8.238949951171875,-0.4752923846244812,-2.7228729724884033,0.3400924503803253
1759158624847008300,8.24900830078125,-0.40942415595054626,-1.8801113367080688,-0.04497242346405983
1759158624857067000,8.25906689453125,-0.15781621634960175,-1.0293126106262207,-0.33613303303718567
1759158624867126300,8.269126220703125,0.18876010179519653,-0.3528590202331543,-0.3476797044277191
1759158624877185000,8.27918505859375,0.4675423204898834,0.39037024974823,-0.05147091671824455
1759158624887244300,8.289244384765626,0.69049471616745,1.2048373222351074,0.21045389771461487
1759158624897303000,8.299302978515625,0.7950987815856934,1.7754184007644653,0.3040076792240143
1759158624907362300,8.3093623046875,0.9551963210105896,1.9296419620513916,0.23745687305927277
1759158624917421000,8.319421142578125,1.3491166830062866,2.013674259185791,-0.019132239744067192
1759158624927480300,8.329480224609375,1.7714974880218506,2.1340928077697754,-0.4781506657600403
1759158624937539000,8.3395390625,1.8393343687057495,2.0052602291107178,-0.9535660743713379
1759158624947598300,8.349598388671875,1.5670925378799438,1.6285442113876343,-1.2735583782196045
1759158624957657000,8.359656982421875,1.1749029159545898,1.5955418348312378,-1.61395263671875
1759158624967716000,8.369716064453126,0.8765026330947876,1.692961573600769,-1.8390456438064575
1759158624977775000,8.379775146484375,1.2514675855636597,-0.15937896072864532,-2.1692841053009033
1759158624987834000,8.389834228515625,2.015909433364868,-1.2216094732284546,-2.347599744796753
1759158624997893000,8.39989306640625,1.849444031715393,-0.5791394114494324,-2.002537488937378
1759158625007952100,8.4099521484375,0.2615499496459961,2.896307945251465,-2.0049726963043213
1759158625018010000,8.420010009765624,-2.5284862518310547,5.795852184295654,-1.8942227363586426
1759158625028069400,8.4300693359375,-4.017660617828369,5.012765884399414,-1.809077262878418
1759158625038128000,8.440128173828125,-3.186415433883667,2.0848581790924072,-1.4112892150878906
1759158625048187100,8.450187255859374,-1.8356478214263916,-0.2868092954158783,-0.7738728523254395
1759158625058246100,8.46024609375,-1.4414055347442627,-1.547803282737732,-0.30401989817619324
1759158625068305200,8.47030517578125,-1.9557244777679443,-1.5352680683135986,0.027488257735967636
1759158625078364200,8.4803642578125,-2.691283941268921,-0.6300286650657654,0.580899178981781
1759158625088423200,8.490423095703125,-3.1907236576080322,-1.198237419128418,1.0067147016525269
1759158625098482200,8.500482177734375,-3.4884238243103027,-2.488943338394165,0.8880155682563782
1759158625108541200,8.510541259765626,-3.9809019565582275,-3.5368988513946533,0.27721744775772095
1759158625118600200,8.52060009765625,-4.346845626831055,-4.071069717407227,-1.2578829526901245
1759158625128659200,8.5306591796875,-4.318259239196777,-4.544713497161865,-2.8543567657470703
1759158625138718200,8.54071826171875,-3.8625948429107666,-4.598260879516602,-4.013000965118408
1759158625148777200,8.550777099609375,-2.9307405948638916,-0.8606787323951721,-4.720179080963135
1759158625158836200,8.560836181640624,-1.7485274076461792,5.105780124664307,-4.703188419342041
1759158625168895200,8.570895263671876,-1.4692344665527344,9.688371658325195,-3.464468240737915
1759158625178953200,8.580953125,-1.6336352825164795,10.39144229888916,-2.3394172191619873
1759158625189012000,8.591011962890626,-1.4937427043914795,5.345351696014404,-1.7299286127090454
1759158625199071200,8.6010712890625,-1.135522484779358,1.3431873321533203,-0.6129575371742249
1759158625209130000,8.6111298828125,-0.649638295173645,-0.6448975205421448,0.29160377383232117
1759158625219189200,8.621189208984376,-0.19903671741485596,-1.2259150743484497,0.9772127866744995
1759158625229248000,8.631248046875,0.08854366093873978,-1.1637420654296875,1.4914764165878296
1759158625239307300,8.641307373046875,0.3987104892730713,-1.074849247932434,1.8646451234817505
1759158625249366000,8.651365966796876,0.5669788122177124,-1.1205898523330688,2.1244962215423584
1759158625259425300,8.66142529296875,0.6766430735588074,-1.2050532102584839,2.2542312145233154
1759158625269484000,8.671484130859374,0.7931715846061707,-1.253368854522705,2.230449914932251
1759158625279543000,8.68154296875,0.9755463004112244,-1.1831936836242676,2.058643341064453
1759158625289602000,8.69160205078125,1.1733589172363281,-0.8901232481002808,1.8502954244613647
1759158625299661000,8.7016611328125,1.3468623161315918,-0.3625061810016632,1.7031323909759521
1759158625309720000,8.711719970703125,1.4624744653701782,0.5356484055519104,1.6767828464508057
1759158625319778300,8.7217783203125,1.5524041652679443,1.6679385900497437,1.8094278573989868
1759158625329837000,8.731837158203126,1.6609814167022705,2.439382791519165,2.077568292617798
1759158625339896300,8.741896240234375,1.9227784872055054,2.283060312271118,2.2881386280059814
1759158625349955000,8.751955078125,2.2479007244110107,0.5276356339454651,1.93988037109375
1759158625360014000,8.76201416015625,2.578150749206543,-2.0727016925811768,1.31365966796875
1759158625370073000,8.772072998046875,3.0558619499206543,-3.3276021480560303,1.362165927886963
1759158625380132000,8.782132080078124,3.5293149948120117,-3.2728986740112305,1.694832682609558
1759158625390191000,8.792191162109376,4.091615200042725,-3.089336395263672,2.2446470260620117
1759158625400250000,8.80225,4.437932968139648,-2.033832550048828,3.02150559425354
1759158625410309000,8.81230908203125,3.5601632595062256,1.1339397430419922,2.8118059635162354
1759158625420368100,8.8223681640625,1.1782439947128296,3.894993305206299,1.9295445680618286
1759158625430427100,8.83242724609375,-0.6375660300254822,4.996829986572266,0.7439696788787842
1759158625440486100,8.842486083984374,0.0763697400689125,2.50321364402771,-0.7272951006889343
1759158625450544000,8.852544189453125,2.034853458404541,1.1924430131912231,-1.2860134840011597
1759158625460603100,8.86260302734375,2.984473943710327,1.6058197021484375,-1.5959640741348267
1759158625470662100,8.872662109375,2.7433345317840576,1.9842644929885864,-2.268348455429077
1759158625480721200,8.88272119140625,2.0289037227630615,0.8344498872756958,-2.343017816543579
1759158625490780200,8.8927802734375,1.3449671268463135,-1.0606433153152466,-1.3317819833755493
1759158625500839200,8.902839111328126,0.7104020118713379,-2.4432921409606934,-0.054005127400159836
1759158625510898200,8.912898193359375,0.12241895496845245,-2.907658815383911,0.5478176474571228
1759158625520957200,8.922957275390624,-0.43296295404434204,-2.906661033630371,0.6230366826057434
1759158625531016200,8.93301611328125,-0.9996210932731628,-2.8519198894500732,0.5573253035545349
1759158625541075200,8.9430751953125,-1.5542271137237549,-2.726377010345459,0.5020813941955566
1759158625551134500,8.953134521484374,-1.954643964767456,-2.783522129058838,0.5111358761787415
1759158625561193200,8.963193115234375,-2.0976784229278564,-2.7721567153930664,0.5250845551490784
1759158625571251500,8.97325146484375,-2.0683629512786865,-2.5111184120178223,0.4734112322330475
1759158625581310200,8.983310302734376,-1.8366889953613281,-2.118494749069214,0.43188369274139404
1759158625591369500,8.993369384765625,-1.4416778087615967,-1.5596601963043213,0.4276394248008728
1759158625601428200,9.00342822265625,-0.9727800488471985,-0.7443124055862427,0.3909057676792145
1759158625611487500,9.013487548828126,-0.6004831790924072,0.2059583216905594,0.2532448470592499
1759158625621546200,9.023546142578125,-0.26919907331466675,1.1197253465652466,0.1027490496635437
1759158625631605500,9.03360546875,0.10385680198669434,1.7757782936096191,0.048789944499731064
1759158625641664300,9.043664306640625,0.5397330522537231,2.116745710372925,0.0404326505959034
1759158625651723300,9.05372314453125,0.995141863822937,2.1311867237091064,-0.05511890724301338
1759158625661782300,9.0637822265625,1.5241652727127075,2.0019378662109375,-0.2935459613800049
1759158625671841300,9.07384130859375,2.0226235389709473,1.7601313591003418,-0.69237220287323
1759158625681899300,9.083899169921875,2.370300531387329,1.1648958921432495,-1.0527184009552002
1759158625691958300,9.093958251953126,2.366095781326294,0.4736311137676239,-1.2052996158599854
1759158625702017300,9.104017333984375,1.9308767318725586,0.07307019829750061,-1.1712276935577393
1759158625712076300,9.114076171875,1.4212197065353394,0.4169708490371704,-1.2094967365264893
1759158625722135300,9.12413525390625,1.1011546850204468,1.2688063383102417,-1.172469139099121
1759158625732194300,9.1341943359375,1.0742636919021606,0.18434421718120575,-1.3042221069335938
1759158625742253300,9.14425341796875,1.1446869373321533,-1.4561810493469238,-1.8785197734832764
1759158625752312000,9.15431201171875,1.1307032108306885,-0.22759105265140533,-1.8464982509613037
1759158625762371300,9.164371337890625,0.08728154748678207,2.1057498455047607,-1.6749004125595093
1759158625772430000,9.17443017578125,-2.5161874294281006,4.252547740936279,-1.3505311012268066
1759158625782489300,9.1844892578125,-3.9417147636413574,3.652402639389038,-1.235289216041565
1759158625792547300,9.19454736328125,-2.920030117034912,1.2746808528900146,-0.7289448380470276
1759158625802606300,9.2046064453125,-1.502522349357605,-0.8018842339515686,-0.22654803097248077
1759158625812665300,9.214665283203125,-1.225175142288208,-1.996452808380127,0.09228506684303284
1759158625822724400,9.224724365234374,-1.5441882610321045,-2.9536893367767334,0.46157747507095337
1759158625832783000,9.234783203125,-2.0898656845092773,-3.200822353363037,1.0269790887832642
1759158625842842400,9.24484228515625,-2.6078426837921143,-2.6437559127807617,1.5568201541900635
1759158625852901000,9.254901123046874,-2.855855941772461,-2.638331174850464,1.258506417274475
1759158625862960400,9.26496044921875,-3.1304445266723633,-2.1380574703216553,0.28853192925453186
1759158625873019100,9.27501904296875,-3.452139139175415,-2.1240127086639404,-0.7202790379524231
1759158625883078400,9.285078369140624,-3.2853357791900635,-2.4184322357177734,-1.9554156064987183
1759158625893136400,9.295136474609375,-2.681149482727051,-3.2078421115875244,-3.1795222759246826
1759158625903195400,9.3051953125,-1.8443914651870728,-2.1948907375335693,-4.520462989807129
1759158625913254100,9.315254150390626,-1.4817028045654297,1.051851749420166,-5.936297416687012
1759158625923313400,9.3253134765625,-1.692126750946045,7.19931697845459,-5.656181812286377
1759158625933372200,9.3353720703125,-2.083275318145752,12.177345275878906,-3.65828275680542
1759158625943431400,9.345431396484376,-2.0746450424194336,8.824326515197754,-2.2590417861938477
1759158625953490200,9.355490234375,-1.3906118869781494,2.643589973449707,-0.566059410572052
1759158625963549400,9.365549560546874,-0.8997055888175964,-1.0665607452392578,0.40284979343414307
1759158625973608200,9.375608154296875,-0.6404780149459839,-2.1928253173828125,0.8333282470703125
1759158625983666200,9.385666259765625,-0.4674164652824402,-1.7194372415542603,0.9190383553504944
1759158625993725200,9.39572509765625,-0.293343186378479,-0.8951318264007568,1.0336507558822632
1759158626003784200,9.4057841796875,-0.058778367936611176,-0.6454192996025085,1.428946852684021
1759158626013843200,9.41584326171875,0.23832067847251892,-0.6331567764282227,1.7942655086517334
1759158626023902200,9.425902099609376,0.5706368088722229,-0.687796950340271,1.9271212816238403
1759158626033961200,9.435961181640625,0.8346750736236572,-0.7552526593208313,1.8837463855743408
1759158626044020200,9.446020263671874,1.070488691329956,-0.7474544644355774,1.73934805393219
1759158626054079200,9.456079345703126,1.3248568773269653,-0.4765859842300415,1.4984092712402344
1759158626064138200,9.46613818359375,1.5615580081939697,0.1499941349029541,1.2973886728286743
1759158626074197200,9.476197265625,1.7128359079360962,1.138679027557373,1.3276104927062988
1759158626084255200,9.486255126953125,1.8045889139175415,2.0812227725982666,1.6372298002243042
1759158626094314200,9.496314208984375,1.9027154445648193,2.179377317428589,1.9298478364944458
1759158626104373200,9.506373291015626,2.1517839431762695,0.20275920629501343,1.6726726293563843
1759158626114432300,9.516432373046875,2.535219192504883,-2.5913052558898926,1.4198235273361206
1759158626124491300,9.5264912109375,3.0914723873138428,-3.4489474296569824,1.8390320539474487
1759158626134550300,9.53655029296875,3.588533639907837,-2.805469274520874,2.136709451675415
1759158626144609300,9.546609375,4.121158123016357,-2.4812886714935303,2.432546377182007
1759158626154668300,9.556668212890624,4.424672603607178,-1.632490873336792,2.9422237873077393
1759158626164727300,9.566727294921876,3.8523378372192383,0.6591892838478088,3.3004891872406006
1759158626174785300,9.576785400390625,1.5947898626327515,3.0015196800231934,2.6641347408294678
1759158626184844300,9.58684423828125,-0.7380468249320984,4.314366817474365,1.744185447692871
1759158626194903300,9.5969033203125,-0.8456094861030579,3.3175601959228516,0.7108179330825806
1759158626204962300,9.60696240234375,0.8024411201477051,1.6920427083969116,0.102571502327919
1759158626215021300,9.617021240234376,2.154910087585449,1.5259658098220825,-0.2516310513019562
1759158626225080300,9.627080322265625,2.550132989883423,2.222602128982544,-0.9906812310218811
1759158626235139300,9.637139404296875,2.326362371444702,2.013474702835083,-1.740419864654541
1759158626245198300,9.6471982421875,1.9283010959625244,0.4025811553001404,-1.591002345085144
1759158626255257300,9.65725732421875,1.515826940536499,-1.0922999382019043,-0.9124462008476257
1759158626265315300,9.6673154296875,1.0207908153533936,-1.9446678161621094,-0.29972341656684875
1759158626275374000,9.6773740234375,0.39800021052360535,-2.5279603004455566,0.09382785111665726
1759158626285433300,9.687433349609375,-0.17639560997486115,-2.6475577354431152,0.2044919729232788
1759158626295492000,9.6974921875,-0.6753116846084595,-2.4589359760284424,0.2237655520439148
1759158626305551400,9.70755126953125,-1.091607689857483,-2.2851531505584717,0.2806793749332428
1759158626315610000,9.717610107421875,-1.4318140745162964,-2.268231153488159,0.38615360856056213
1759158626325669400,9.72766943359375,-1.5748709440231323,-2.3538320064544678,0.42676645517349243
1759158626335728000,9.73772802734375,-1.5148694515228271,-2.3716559410095215,0.3723762035369873
1759158626345786400,9.747786376953124,-1.3358019590377808,-2.2943472862243652,0.33268535137176514
1759158626355845000,9.75784521484375,-1.0842254161834717,-1.964324951171875,0.2764894664287567
1759158626365904400,9.767904296875,-0.8477507829666138,-1.4686474800109863,0.21862073242664337
1759158626375963100,9.777963134765624,-0.6352028250694275,-0.8726112246513367,0.14840516448020935
1759158626386022400,9.7880224609375,-0.413995623588562,-0.4075215756893158,0.10362592339515686
1759158626396081200,9.7980810546875,-0.1899140626192093,-0.0735665112733841,0.09341882914304733
1759158626406140400,9.808140380859374,-0.005131913349032402,0.42279183864593506,0.09918045997619629
1759158626416199200,9.81819921875,0.18026377260684967,0.908013105392456,0.12096085399389267
1759158626426257400,9.82825732421875,0.421302855014801,1.1079182624816895,0.038768917322158813
1759158626436316200,9.838316162109376,0.808867871761322,1.089643955230713,-0.15022656321525574
1759158626446375400,9.84837548828125,1.2936762571334839,1.113768458366394,-0.4477744400501251
1759158626456434200,9.85843408203125,1.6703503131866455,0.991915225982666,-0.7931187748908997
1759158626466493400,9.868493408203125,1.696219801902771,0.8744949102401733,-1.035601258277893
1759158626476552200,9.87855224609375,1.4749484062194824,1.1174752712249756,-1.0496398210525513
1759158626486611500,9.888611572265624,1.3633956909179688,1.8347804546356201,-1.1024202108383179
1759158626496670200,9.898670166015625,1.8446693420410156,1.3791881799697876,-1.4095569849014282
1759158626506728200,9.908728271484375,2.8052175045013428,0.32796144485473633,-1.9795801639556885
1759158626516787200,9.918787109375,2.9148716926574707,-0.10254307091236115,-1.5690555572509766
1759158626526846200,9.92884619140625,2.1441526412963867,0.6666731238365173,-0.9804465770721436
1759158626536905200,9.9389052734375,0.21305865049362183,1.8736408948898315,-0.987221360206604
1759158626546964200,9.948964111328126,-2.5829734802246094,3.165332317352295,-0.8111948370933533
1759158626557023200,9.959023193359375,-3.9234580993652344,1.6124526262283325,-0.820107638835907
1759158626567082200,9.969082275390624,-3.190786600112915,-1.2343193292617798,-0.2527582049369812
1759158626577141200,9.979141357421875,-2.167306900024414,-3.540139675140381,0.1681954264640808
1759158626587199200,9.98919921875,-1.8885118961334229,-4.721785545349121,0.3553619980812073
1759158626597258000,9.999258056640626,-2.116546869277954,-4.818130016326904,0.7161828279495239
1759158626607317200,10.009317138671875,-2.4764440059661865,-3.9990367889404297,1.1460013389587402
1759158626617376000,10.0193759765625,-2.617412805557251,-3.27620792388916,0.36860549449920654
1759158626627435300,10.029435302734376,-2.7719287872314453,-3.1645357608795166,-0.7123083472251892
1759158626637494000,10.039493896484375,-2.945301055908203,-3.844006299972534,-1.4288190603256226
1759158626647553300,10.04955322265625,-2.857811689376831,-4.540974140167236,-2.2992353439331055
1759158626657612000,10.059612060546876,-2.5594944953918457,-4.27635383605957,-3.2169556617736816
1759158626667670300,10.069670166015625,-2.0681862831115723,-1.819373369216919,-4.193223476409912
1759158626677729000,10.07972900390625,-1.4926409721374512,2.658928632736206,-5.388350963592529
1759158626687788300,10.089788330078125,-1.318664312362671,7.542508602142334,-5.373701095581055
1759158626697847000,10.099846923828125,-1.4346681833267212,10.909339904785156,-4.291487693786621
1759158626707906300,10.10990625,-1.7094835042953491,7.562225818634033,-3.2196285724639893
1759158626717965000,10.119965087890625,-1.3871933221817017,2.504011869430542,-1.300786018371582
1759158626728024300,10.1300244140625,-0.9436931610107422,-0.8358150124549866,-0.026316337287425995
1759158626738082000,10.14008203125,-0.7574199438095093,-0.9981074929237366,0.2798689007759094
1759158626748141300,10.150141357421875,-0.7444356679916382,0.3446621298789978,0.38737067580223083
1759158626758200000,10.160199951171874,-0.4989984929561615,1.0210435390472412,0.8259773254394531
1759158626768259300,10.17025927734375,-0.1441616415977478,0.9193462133407593,1.2988544702529907
1759158626778318000,10.180318115234375,0.1623397022485733,0.6692495346069336,1.6598196029663086
1759158626788377300,10.19037744140625,0.40118491649627686,0.45135563611984253,1.8960875272750854
1759158626798436000,10.20043603515625,0.5888227224349976,0.4471987187862396,2.0175344944000244
1759158626808494000,10.210494140625,0.7785475254058838,0.5038840770721436,1.9918361902236938
1759158626818553000,10.220552978515625,0.9959865808486938,0.6130430698394775,1.8652348518371582
1759158626828612000,10.230612060546875,1.1724724769592285,0.9785919189453125,1.70426607131958
1759158626838671000,10.240671142578124,1.245568037033081,1.728935956954956,1.5772109031677246
1759158626848730000,10.250730224609375,1.2265985012054443,2.697582721710205,1.562774658203125
1759158626858789000,10.2607890625,1.254660964012146,2.871225595474243,1.9084300994873047
1759158626868848000,10.27084814453125,1.4933098554611206,1.7453336715698242,2.4133331775665283
1759158626878906400,10.28090625,1.9332818984985352,-0.5287918448448181,2.5813796520233154
1759158626888965000,10.290965087890624,2.4383482933044434,-3.788674831390381,2.0061299800872803
1759158626899024100,10.301024169921876,2.8576526641845703,-6.158873558044434,1.9208697080612183
1759158626909083100,10.311083251953125,3.33945369720459,-5.35606050491333,2.2253119945526123
1759158626919142100,10.32114208984375,3.686610460281372,-3.0441720485687256,2.294999122619629
1759158626929201200,10.331201171875,3.908390522003174,-0.9521155953407288,2.5109922885894775
1759158626939260200,10.34126025390625,3.9073078632354736,0.6877545714378357,3.0871803760528564
1759158626949318100,10.351318115234376,2.6659996509552,2.448612689971924,2.9841296672821045
1759158626959377400,10.36137744140625,0.5962061285972595,3.641700267791748,2.363398790359497
1759158626969436200,10.371436279296875,-0.12547239661216736,2.94918155670166,1.880778431892395
1759158626979495200,10.3814951171875,0.9303721785545349,1.2647145986557007,1.4983972311019897
1759158626989554200,10.39155419921875,2.077744722366333,0.035498928278684616,1.1174277067184448
1759158626999613200,10.40161328125,2.4090723991394043,0.12207642942667007,0.7835618257522583
1759158627009671200,10.411671142578125,1.7863434553146362,1.2348138093948364,0.08301094174385071
1759158627019730200,10.421730224609375,1.0495368242263794,1.831854224205017,-0.8396137952804565
1759158627029789200,10.4317890625,1.0728752613067627,1.2671068906784058,-1.4526406526565552
1759158627039848200,10.44184814453125,1.4393054246902466,0.7349069118499756,-1.5088413953781128
1759158627049907200,10.4519072265625,1.4040813446044922,0.11905121058225632,-1.0373859405517578
1759158627059966200,10.46196630859375,0.795817494392395,-1.0152308940887451,-0.5562640428543091
1759158627070025200,10.472025146484375,0.04575429484248161,-2.0114083290100098,-0.465859055519104
1759158627080083200,10.482083251953124,-0.5484813451766968,-2.4450042247772217,-0.6090666055679321
1759158627090142200,10.49214208984375,-0.9901082515716553,-2.68218994140625,-0.6879759430885315
1759158627100201200,10.502201171875,-1.2723524570465088,-2.7419991493225098,-0.7625183463096619
1759158627110260200,10.51226025390625,-1.2941042184829712,-2.4350574016571045,-0.861906886100769
1759158627120319200,10.5223193359375,-1.0825514793395996,-1.9659417867660522,-0.8646158576011658
1759158627130378200,10.532378173828125,-0.8148400187492371,-1.3618993759155273,-0.7679091095924377
1759158627140436200,10.542436279296876,-0.6325889825820923,-0.6149554252624512,-0.5885592699050903
1759158627150495200,10.5524951171875,-0.5914241671562195,0.05917292460799217,-0.3415888249874115
1759158627160554200,10.56255419921875,-0.594900369644165,0.7591366171836853,-0.1622912585735321
1759158627170613200,10.57261328125,-0.5639943480491638,1.0988132953643799,0.0028764030430465937
1759158627180672300,10.58267236328125,-0.46291857957839966,1.272219181060791,0.17753662168979645
1759158627190731300,10.592731201171874,-0.043934665620326996,1.4489667415618896,0.28853994607925415
1759158627200790300,10.602790283203126,0.8141356110572815,1.6764289140701294,0.30425819754600525
1759158627210848000,10.612847900390625,1.8695100545883179,1.9322589635849,0.21403340995311737
1759158627220907300,10.6229072265625,2.645296573638916,1.8917416334152222,-0.07774065434932709
1759158627230966000,10.632966064453125,2.7844512462615967,1.5670950412750244,-0.4374014437198639
1759158627241025300,10.643025390625,2.5804810523986816,1.2931430339813232,-0.6015629768371582
1759158627251084000,10.653083984375,2.1620700359344482,1.0530751943588257,-0.4382742941379547
1759158627261143300,10.663143310546875,1.6072369813919067,1.2907577753067017,-0.13809050619602203
1759158627271201000,10.673200927734374,1.0739256143569946,1.9374223947525024,0.07546215504407883
1759158627281260300,10.68326025390625,0.5826374292373657,2.2835893630981445,0.17694775760173798
1759158627291319000,10.693319091796875,0.38429245352745056,0.7715033888816833,-0.38523685932159424
1759158627301378300,10.70337841796875,0.5594229698181152,-2.1487903594970703,-1.543740153312683
1759158627311437000,10.71343701171875,1.2889596223831177,-1.4230055809020996,-1.4122047424316406
1759158627321496300,10.723496337890625,2.5672669410705566,-1.3622615337371826,-0.003001006320118904
1759158627331554000,10.733553955078126,2.426731586456299,0.0347929522395134,1.150750994682312
1759158627341613300,10.74361328125,-0.7692222595214844,2.0112106800079346,1.2915047407150269
1759158627351672000,10.753672119140624,-2.8664469718933105,2.9679148197174072,0.817297637462616
1759158627361731300,10.7637314453125,-1.7741812467575073,1.0248069763183594,0.38007426261901855
1759158627371790000,10.7737900390625,-0.7372764348983765,-1.341956377029419,0.4387190341949463
1759158627381849300,10.783849365234374,-0.6666504740715027,-3.37956166267395,0.9226971864700317
1759158627391907300,10.7939072265625,-1.019010066986084,-4.35461950302124,1.3042482137680054
1759158627401966000,10.803966064453125,-1.266378402709961,-4.4650115966796875,1.559453010559082
1759158627412025000,10.814025146484376,-1.33427095413208,-3.9106316566467285,1.416351318359375
1759158627422084000,10.824083984375,-1.421690583229065,-2.7906243801116943,0.950641930103302
1759158627432143000,10.83414306640625,-1.5432971715927124,-1.7735874652862549,0.40626633167266846
1759158627442202000,10.8442021484375,-1.6945164203643799,-1.1198405027389526,-0.20705808699131012
1759158627452260400,10.85426025390625,-1.9301402568817139,-0.602985680103302,-0.758043646812439
1759158627462319000,10.864319091796874,-2.040733814239502,-0.30425652861595154,-1.3330707550048828
1759158627472378400,10.87437841796875,-1.78322172164917,-0.15389376878738403,-1.9283915758132935
1759158627482437000,10.88443701171875,-1.563982367515564,-0.2962746024131775,-2.3471906185150146
1759158627492496100,10.89449609375,-1.508612036705017,0.7707405686378479,-2.8791556358337402
1759158627502554000,10.90455419921875,-1.4452317953109741,2.5882465839385986,-3.147153377532959
1759158627512613400,10.91461328125,-1.2373783588409424,3.9568285942077637,-2.9943339824676514
1759158627522672000,10.924672119140626,-1.0677940845489502,4.24035120010376,-2.535229206085205
1759158627532731400,10.9347314453125,-0.9678147435188293,3.019183874130249,-1.9560660123825073
1759158627542790100,10.9447900390625,-0.8932965993881226,0.8638941645622253,-1.3418790102005005
1759158627552849400,10.954849365234375,-0.9125641584396362,-0.8611013889312744,-0.6262568831443787
1759158627562907400,10.964907470703125,-1.0702425241470337,-1.8461227416992188,-0.005764584988355637
1759158627572966400,10.97496630859375,-1.2609180212020874,-2.00410532951355,0.4034806489944458
1759158627583025400,10.985025390625,-1.3800480365753174,-1.4518159627914429,0.5376799702644348
1759158627593084400,10.99508447265625,-1.3926184177398682,-0.33624395728111267,0.36150771379470825
1759158627603143400,11.005143310546876,-1.3162634372711182,1.0591448545455933,-0.008602959103882313
1759158627613201400,11.015201416015625,-1.2291386127471924,2.1447136402130127,-0.3832705616950989
1759158627623260400,11.025260498046874,-1.0206146240234375,2.1923084259033203,-0.5836779475212097
1759158627633319400,11.0353193359375,-0.6627508401870728,1.6705149412155151,-0.668910801410675
1759158627643378400,11.04537841796875,-0.4537942111492157,1.2011055946350098,-0.7109019160270691
1759158627653437400,11.0554375,-0.35276931524276733,1.1143600940704346,-0.6700652241706848
1759158627663496400,11.065496337890625,-0.3157542943954468,1.420243263244629,-0.6039370894432068
1759158627673554400,11.075554443359374,-0.38758939504623413,1.9864683151245117,-0.24568316340446472
1759158627683613400,11.085613525390626,-0.2947830259799957,2.440765380859375,0.2627241313457489
1759158627693672400,11.09567236328125,-0.01985287293791771,2.3036234378814697,0.8063478469848633
1759158627703731500,11.1057314453125,0.252189576625824,1.5637794733047485,1.2422770261764526
1759158627713790500,11.11579052734375,0.4548022150993347,0.5668044090270996,1.505840539932251
1759158627723848400,11.125848388671875,0.6035549640655518,-0.33199939131736755,1.6518135070800781
1759158627733907500,11.135907470703126,0.7847954630851746,-1.2678114175796509,1.787676215171814
1759158627743966500,11.145966552734375,1.1186038255691528,-1.9866420030593872,1.734000563621521
1759158627754025500,11.156025390625,1.7557591199874878,-1.6991583108901978,1.2241665124893188
1759158627764084200,11.166084228515626,2.5001983642578125,-1.2471541166305542,0.8819885849952698
1759158627774142500,11.176142578125,2.67521595954895,-0.438496470451355,0.8988463878631592
1759158627784201500,11.186201416015624,2.430640935897827,0.7574716210365295,1.0186084508895874
1759158627794260500,11.196260498046875,2.071307897567749,1.684287190437317,1.0760678052902222
1759158627804319500,11.206319580078125,1.8129886388778687,1.9328160285949707,1.2231981754302979
1759158627814378500,11.21637841796875,1.6161760091781616,1.5429284572601318,1.5003185272216797
1759158627824436500,11.2264365234375,1.388658881187439,0.8170705437660217,1.6080033779144287
1759158627834495500,11.23649560546875,1.2469123601913452,-0.03847603127360344,1.4818824529647827
1759158627844554500,11.246554443359376,1.1545891761779785,-0.592208981513977,1.2342814207077026
1759158627854613500,11.256613525390625,0.9115006327629089,-0.7076922059059143,1.0305733680725098
1759158627864672500,11.266672607421874,0.5566709041595459,-0.4499187469482422,0.8858113884925842
1759158627874730200,11.276730224609375,0.15518401563167572,0.0627712681889534,0.7328943610191345
1759158627884789500,11.28678955078125,-0.09491263329982758,0.6836726665496826,0.5415816903114319
1759158627894848300,11.29684814453125,-0.1770118921995163,1.281726360321045,0.3694279193878174
1759158627904907500,11.306907470703125,-0.07547460496425629,1.7989503145217896,0.19396448135375977
1759158627914966300,11.31696630859375,-0.0104069784283638,1.9943883419036865,-0.012010021135210991
1759158627925024500,11.3270244140625,-0.09961222112178802,1.8268784284591675,-0.21976161003112793
1759158627935083300,11.337083251953125,-0.19546820223331451,1.3958237171173096,-0.3328801095485687
1759158627945142500,11.347142578125,-0.2813785970211029,0.946317195892334,-0.31843963265419006
1759158627955201300,11.357201171875,-0.35121822357177734,0.676540732383728,-0.22701269388198853
1759158627965260500,11.367260498046875,-0.4211581349372864,0.3941923677921295,-0.1291670948266983
1759158627975319300,11.3773193359375,-0.4948062002658844,0.23392069339752197,-0.02382570132613182
1759158627985377500,11.38737744140625,-0.5425202250480652,0.172820582985878,0.08251884579658508
1759158627995436500,11.3974365234375,-0.6000996828079224,0.12364589422941208,0.14815741777420044
1759158628005495600,11.40749560546875,-0.7002910375595093,-0.13664774596691132,0.11258663982152939
1759158628015554300,11.41755419921875,-0.8814757466316223,-0.40461617708206177,-0.00852397084236145
1759158628025612300,11.4276123046875,-0.9765966534614563,-0.6248973608016968,-0.016657795757055283
1759158628035671600,11.437671630859375,-0.9253612756729126,-0.771289587020874,0.016255773603916168
1759158628045730300,11.447730224609375,-0.733301043510437,-0.9499576091766357,-0.0026686484925448895
1759158628055789600,11.45778955078125,-0.48190122842788696,-1.164063572883606,-0.036986060440540314
1759158628065848300,11.467848388671875,-0.28156042098999023,-1.3456610441207886,-0.04837187007069588
1759158628075906600,11.477906494140624,-0.227777361869812,-1.3422130346298218,-0.03713778778910637
1759158628085965300,11.48796533203125,-0.32430949807167053,-1.335230827331543,0.03292012959718704
1759158628096024600,11.498024658203125,-0.3713635802268982,-1.3662946224212646,0.11277251690626144
1759158628106083300,11.508083251953124,-0.3325567841529846,-1.3140733242034912,-0.09099392592906952
1759158628116142600,11.518142578125,-0.2151365876197815,-1.2561278343200684,-0.4692358374595642
1759158628126200300,11.528200439453125,-0.039432939141988754,-0.9604056477546692,-0.7063011527061462
1759158628136259600,11.538259521484376,0.13274195790290833,-0.5661787986755371,-0.7614149451255798
1759158628146318300,11.548318359375,0.30567672848701477,-0.11527367681264877,-0.683475136756897
1759158628156377600,11.558377685546875,0.42452099919319153,0.30943137407302856,-0.554127037525177
1759158628166436400,11.568436279296876,0.5074377059936523,0.569715678691864,-0.4560351073741913
1759158628176494300,11.578494384765625,0.5050840377807617,0.6717326641082764,-0.46061283349990845
1759158628186553600,11.5885537109375,0.4243955910205841,0.599877119064331,-0.49591702222824097
1759158628196612400,11.5986123046875,0.30479782819747925,0.3976714611053467,-0.546745240688324
1759158628206671400,11.60867138671875,0.1554941087961197,0.13491494953632355,-0.5885369181632996
1759158628216729300,11.618729248046876,0.10153688490390778,-0.21568532288074493,-0.557976245880127
1759158628226788600,11.62878857421875,0.12969528138637543,-0.6804852485656738,-0.43225499987602234
1759158628236847400,11.638847412109374,0.06794394552707672,-1.3036478757858276,-0.221127450466156
1759158628246906600,11.64890673828125,-0.05976714566349983,-2.030369520187378,0.04299206659197807
1759158628256965400,11.65896533203125,-0.2479904145002365,-2.746739387512207,0.27980342507362366
1759158628267023400,11.6690234375,-0.45326340198516846,-3.370058536529541,0.46513891220092773
1759158628277082400,11.679082275390625,-0.6211812496185303,-3.8267886638641357,0.5992793440818787
1759158628287141400,11.689141357421875,-0.7341893315315247,-4.163934707641602,0.6963925361633301
1759158628297200400,11.699200439453126,-0.836685061454773,-4.338910102844238,0.711514413356781
1759158628307258400,11.70925830078125,-0.8794911503791809,-4.102804660797119,0.6039421558380127
1759158628317317400,11.7193173828125,-0.8320714235305786,-3.510798215866089,0.4215892553329468
1759158628327376400,11.72937646484375,-0.690825879573822,-2.5951907634735107,0.22256486117839813
1759158628337435400,11.739435302734375,-0.42871013283729553,-1.4325696229934692,0.031594954431056976
1759158628347494400,11.749494384765624,-0.19121234118938446,-0.2961486876010895,-0.12058659642934799
1759158628357552600,11.759552734375,-0.1559639722108841,0.5021893382072449,-0.17706991732120514
1759158628367611400,11.769611328125,-0.21991178393363953,0.9937359094619751,-0.15234486758708954
1759158628377670400,11.77967041015625,-0.24382343888282776,1.3317424058914185,-0.08286509662866592
1759158628387729400,11.7897294921875,-0.22117245197296143,1.4960064888000488,-0.0023665246553719044
1759158628397787400,11.799787353515624,-0.2002025544643402,1.4837329387664795,0.041838884353637695
1759158628407846400,11.809846435546875,-0.19205541908740997,1.3585728406906128,0.0217013917863369
1759158628417905400,11.819905517578125,-0.19667930901050568,1.1888132095336914,-0.05812491849064827
1759158628427964400,11.82996435546875,-0.20935088396072388,0.9678720831871033,-0.15575428307056427
1759158628438023400,11.8400234375,-0.24024368822574615,0.6721570491790771,-0.22674612700939178
1759158628448081400,11.850081298828124,-0.2607567012310028,0.3544398248195648,-0.24626018106937408
1759158628458140400,11.860140380859375,-0.19472621381282806,0.14448845386505127,-0.2318900227546692
1759158628468199400,11.870199462890625,-0.14290030300617218,0.041640911251306534,-0.17005887627601624
1759158628478258400,11.880258544921874,-0.22683978080749512,0.1636386513710022,-0.027930691838264465
1759158628488316400,11.89031640625,-0.17246416211128235,0.5627341270446777,0.13347071409225464
1759158628498375400,11.90037548828125,-0.019556686282157898,0.9688935279846191,0.27483323216438293
1759158628508434400,11.910434326171876,0.1190459355711937,0.6875782608985901,0.21305347979068756
1759158628518493400,11.920493408203125,0.057340655475854874,-0.11177687346935272,-0.023091275244951248
1759158628528551400,11.930551513671874,-0.09676236659288406,-0.6764463782310486,-0.2244502156972885
1759158628538610400,11.9406103515625,-0.14559084177017212,-0.9038028120994568,-0.36963167786598206
1759158628548668700,11.950668701171875,-0.09357237815856934,-0.817567765712738,-0.3984537422657013
1759158628558727400,11.9607275390625,-0.0687170922756195,-0.42609772086143494,-0.22899070382118225
1759158628568786700,11.97078662109375,-0.10774518549442291,0.11139769107103348,0.03457409888505936
1759158628578844700,11.9808447265625,-0.1787845939397812,0.31703895330429077,0.1029987782239914
1759158628588903700,11.990903564453125,-0.1968323141336441,0.28522056341171265,-0.01942620612680912
1759158628598962400,12.00096240234375,-0.1738741546869278,0.19280989468097687,-0.19256384670734406
1759158628609021700,12.011021728515624,-0.156582772731781,0.13241979479789734,-0.32032978534698486
1759158628619079700,12.02107958984375,-0.1746174544095993,0.10963983833789825,-0.38513699173927307
1759158628629138400,12.031138427734374,-0.2118375301361084,0.12224750965833664,-0.42480477690696716
1759158628639197700,12.04119775390625,-0.24674704670906067,0.15846405923366547,-0.4521934390068054
1759158628649256400,12.05125634765625,-0.2667199671268463,0.23265387117862701,-0.46150198578834534
1759158628659314700,12.061314697265624,-0.2779465317726135,0.3258625268936157,-0.4366903007030487
1759158628669373400,12.07137353515625,-0.28608888387680054,0.3923821747303009,-0.3913891315460205
1759158628679432700,12.0814326171875,-0.27224844694137573,0.40761908888816833,-0.3336263597011566
1759158628689491500,12.091491455078126,-0.2194025218486786,0.38149455189704895,-0.27040693163871765
1759158628699549700,12.1015498046875,-0.15686354041099548,0.3138788342475891,-0.20388473570346832
1759158628709608400,12.1116083984375,-0.10147164016962051,0.23052482306957245,-0.13570940494537354
1759158628719667700,12.121667724609376,-0.06874842196702957,0.14897920191287994,-0.07521631568670273
1759158628729726500,12.1317265625,-0.07863114774227142,0.06624702364206314,-0.03579859808087349
1759158628739785700,12.14178564453125,-0.11273803561925888,0.01645255647599697,-0.037942979484796524
1759158628749843700,12.15184375,-0.13456077873706818,0.002488803816959262,-0.07825711369514465
1759158628759902500,12.16190234375,-0.13807260990142822,0.010048369877040386,-0.1401350200176239
1759158628769961500,12.17196142578125,-0.11356620490550995,0.012181028723716736,-0.19849127531051636
1759158628780020500,12.1820205078125,-0.10182835906744003,0.10122855007648468,-0.25536516308784485
1759158628790078700,12.19207861328125,-0.057627610862255096,0.28939154744148254,-0.2836274206638336
1759158628800137500,12.202137451171875,-0.013900922611355782,0.5394148230552673,-0.2754713296890259
1759158628810196700,12.21219677734375,0.046020202338695526,0.7595211267471313,-0.2336655706167221
1759158628820255500,12.22225537109375,0.09024713933467865,0.883357048034668,-0.16735821962356567
1759158628830313700,12.232313720703125,0.08564812690019608,0.8841397762298584,-0.12182135879993439
1759158628840372500,12.24237255859375,0.07681480795145035,0.7602192163467407,-0.13975995779037476
1759158628850431700,12.252431640625,0.10209300369024277,0.5780523419380188,-0.14641094207763672
1759158628860489700,12.26248974609375,0.10776183009147644,0.4038476347923279,-0.11382034420967102
1759158628870548500,12.272548583984374,0.1475324183702469,0.28161972761154175,-0.06908722966909409
1759158628880607500,12.282607421875,0.2750982344150543,0.20437023043632507,0.010111693292856216
1759158628890666500,12.29266650390625,0.2571682333946228,0.19383211433887482,0.14686661958694458
1759158628900724700,12.302724853515626,0.14287638664245605,0.27020227909088135,0.28323185443878174
1759158628910783500,12.312783447265625,0.07122325152158737,0.3192236125469208,0.30912286043167114
1759158628920842800,12.3228427734375,0.0376444049179554,0.30909496545791626,0.25396281480789185
1759158628930901500,12.332901611328126,0.0041319867596030235,0.28651267290115356,0.17209084331989288
1759158628940959500,12.34295947265625,-0.023617645725607872,0.3559446334838867,0.10547170788049698
1759158628951018500,12.3530185546875,-0.008667990565299988,0.445025235414505,0.045341797173023224
1759158628961077500,12.363077392578125,0.014782838523387909,0.45573052763938904,-0.0502205565571785
1759158628971136500,12.373136474609375,0.020727280527353287,0.46757972240448,-0.11988060176372528
1759158628981194500,12.383194580078126,0.010884404182434082,0.5945641398429871,-0.10554438829421997
1759158628991253500,12.39325341796875,0.0482589416205883,0.7339451909065247,-0.09212765097618103
1759158629001312500,12.4033125,0.07773182541131973,0.7742833495140076,-0.1010172963142395
1759158629011371500,12.41337158203125,0.103415347635746,0.695129930973053,-0.15107114613056183
1759158629021429500,12.423429443359375,0.098418228328228,0.5735419392585754,-0.14410057663917542
1759158629031488800,12.43348876953125,0.04460293427109718,0.5509918928146362,-0.07861291617155075
1759158629041547500,12.443547607421875,0.02241448312997818,0.678426206111908,0.05172521248459816
1759158629051606500,12.4536064453125,0.005188890732824802,0.755234956741333,0.09986504912376404
1759158629061664500,12.46366455078125,0.03282555937767029,0.7828752398490906,0.11333627253770828
1759158629071723500,12.4737236328125,0.01947726681828499,0.8073185086250305,0.1400568187236786
1759158629081782500,12.483782470703124,0.037784695625305176,0.8278555870056152,0.13127762079238892
1759158629091841500,12.493841552734375,-0.034308139234781265,0.701365053653717,0.08643025159835815
1759158629101899500,12.5038994140625,-0.1743163764476776,0.5250017642974854,0.08450233936309814
1759158629111958500,12.51395849609375,-0.29548755288124084,0.23548048734664917,0.11893994361162186
1759158629122017500,12.524017578125,-0.3760037422180176,-0.02170162834227085,0.19946716725826263
1759158629132075500,12.534075439453124,-0.3882010281085968,-0.0830688551068306,0.2798168659210205
1759158629142134800,12.544134765625,-0.40884408354759216,-0.08283062279224396,0.34049466252326965
1759158629152193500,12.554193603515625,-0.41973936557769775,-0.11394140869379044,0.3971257209777832
1759158629162252500,12.56425244140625,-0.3535497188568115,-0.1466914415359497,0.46395760774612427
1759158629172310500,12.574310546875,-0.25276505947113037,-0.17243008315563202,0.4766102731227875
1759158629182369500,12.58436962890625,-0.14017286896705627,-0.1282377690076828,0.46200594305992126
