time,seconds_elapsed,z,y,x
1759336129561294000,0.074294189453125,9.38317584991455,2.5665841102600098,0.7733271718025208
1759336129591294200,0.104294189453125,9.340080261230469,2.561795711517334,0.7805097699165344
1759336129601294000,0.114294189453125,9.292196273803711,2.609679937362671,0.7709329724311829
1759336129611294200,0.124294189453125,9.263465881347656,2.6168625354766846,0.8140285611152649
1759336129621289000,0.1342890625,9.239523887634277,2.6623523235321045,0.871489405632019
1759336129631289000,0.1442890625,9.22755241394043,2.6862943172454834,0.8810662031173706
1759336129641289000,0.1542890625,9.296984672546387,2.631227731704712,0.9241618514060974
1759336129651289000,0.1642890625,9.313743591308594,2.5953147411346436,0.9097966551780701
1759336129661289000,0.1742890625,9.323320388793945,2.6001031398773193,0.8762778043746948
1759336129671289000,0.1842890625,9.375992774963379,2.58813214302063,0.8619126081466675
1759336129681289000,0.1942890625,9.35205078125,2.5689783096313477,0.790086567401886
1759336129691289000,0.2042890625,9.347262382507324,2.5785553455352783,0.7637503147125244
1759336129701289000,0.2142890625,9.414299964904785,2.5761611461639404,0.7445967197418213
1759336129711289000,0.2242890625,9.502885818481445,2.5713725090026855,0.7469909191131592
1759336129721289000,0.2342890625,9.567529678344727,2.580949544906616,0.7972691655158997
1759336129731289000,0.2442890625,9.648932456970215,2.5689783096313477,0.7445967197418213
1759336129741289000,0.2542890625,9.632172584533691,2.6001031398773193,0.7805097699165344
1759336129751289000,0.2642890625,9.574711799621582,2.5905263423919678,0.768538773059845
1759336129761289000,0.2742890625,9.584288597106934,2.6024973392486572,0.7829039692878723
1759336129771289000,0.2842890625,9.577106475830078,2.5761611461639404,0.7709329724311829
1759336129781289000,0.2942890625,9.617807388305664,2.564189910888672,0.7781155705451965
1759336129791289000,0.3042890625,9.615413665771484,2.580949544906616,0.7852981686592102
1759336129801289000,0.3142890625,9.62259578704834,2.559401512145996,0.768538773059845
1759336129811289000,0.3242890625,9.632172584533691,2.5665841102600098,0.7637503147125244
1759336129821288000,0.334287841796875,9.567529678344727,2.5977089405059814,0.7661445140838623
1759336129831288000,0.3442880859375,9.519645690917969,2.6144683361053467,0.8044517636299133
1759336129841288000,0.354287841796875,9.455001831054688,2.612074136734009,0.8092401623725891
1759336129851288000,0.3642880859375,9.371204376220703,2.6001031398773193,0.8092401623725891
1759336129861288000,0.374287841796875,9.431059837341309,2.5713725090026855,0.8068459630012512
1759336129871288000,0.3842880859375,9.493309020996094,2.5546131134033203,0.8547300100326538
1759336129881288000,0.394287841796875,9.462183952331543,2.5665841102600098,0.9002198576927185
1759336129891288000,0.4042880859375,9.488520622253418,2.5330653190612793,0.8954314589500427
1759336129901288000,0.414287841796875,9.471760749816895,2.5234885215759277,0.768538773059845
1759336129911288000,0.4242880859375,9.464578628540039,2.540247917175293,0.751779317855835
1759336129921289000,0.4342890625,9.464578628540039,2.564189910888672,0.7709329724311829
1759336129931288800,0.444288818359375,9.466972351074219,2.5761611461639404,0.8164227604866028
1759336129941289000,0.4542890625,9.507674217224121,2.5713725090026855,0.8403648138046265
1759336129951288800,0.464288818359375,9.524434089660645,2.583343744277954,0.8140285611152649
1759336129961289000,0.4742890625,9.538799285888672,2.564189910888672,0.7996633648872375
1759336129971288800,0.484288818359375,9.471760749816895,2.542642116546631,0.7972691655158997
1759336129981289000,0.4942890625,9.490914344787598,2.540247917175293,0.7805097699165344
1759336129991288800,0.504288818359375,9.47654914855957,2.513911724090576,0.8236053586006165
1759336130001289000,0.5142890625,9.47415542602539,2.4851813316345215,0.8140285611152649
1759336130011288800,0.524288818359375,9.457395553588867,2.4827871322631836,0.8068459630012512
1759336130021288000,0.534287841796875,9.375992774963379,2.43011474609375,0.8571242094039917
1759336130031288000,0.5442880859375,9.340080261230469,2.473210334777832,0.8259995579719543
1759336130041288000,0.554287841796875,9.455001831054688,2.4899697303771973,0.7948749661445618
1759336130051288000,0.5642880859375,9.402329444885254,2.4803929328918457,0.7613561153411865
1759336130061288000,0.574287841796875,9.423876762390137,2.513911724090576,0.7709329724311829
1759336130071288000,0.5842880859375,9.462183952331543,2.516305923461914,0.7661445140838623
1759336130081288000,0.594287841796875,9.40951156616211,2.5091233253479004,0.7493851184844971
1759336130091288000,0.6042880859375,9.34965705871582,2.5067291259765625,0.7469909191131592
1759336130101288000,0.614287841796875,9.311349868774414,2.518700122833252,0.7541735172271729
1759336130111288000,0.6242880859375,9.342473983764648,2.5067291259765625,0.7182605266571045
1759336130121289000,0.6342890625,9.332897186279297,2.494758129119873,0.6536170840263367
1759336130131288800,0.644288818359375,9.447818756103516,2.4899697303771973,0.5913678407669067
1759336130141289000,0.6542890625,9.517251014709473,2.4851813316345215,0.6153098344802856
1759336130151288800,0.664288818359375,9.543587684631348,2.513911724090576,0.6224924325942993
1759336130161289000,0.6742890625,9.550769805908203,2.5115175247192383,0.7134721279144287
1759336130171288800,0.684288818359375,9.536404609680176,2.5474305152893066,0.7158663272857666
1759336130181289000,0.6942890625,9.481337547302246,2.58813214302063,0.768538773059845
1759336130191288800,0.704288818359375,9.481337547302246,2.5953147411346436,0.7445967197418213
1759336130201289000,0.7142890625,9.510068893432617,2.6168625354766846,0.6871358752250671
1759336130211288800,0.724288818359375,9.507674217224121,2.58813214302063,0.7326257228851318
1759336130221288000,0.734287841796875,9.426271438598633,2.585737943649292,0.7469909191131592
1759336130231288000,0.7442880859375,9.411906242370605,2.585737943649292,0.8236053586006165
1759336130241288000,0.754287841796875,9.323320388793945,2.6144683361053467,0.9265560507774353
1759336130251288000,0.7642880859375,9.162909507751465,2.626439332962036,0.9648633003234863
1759336130261288000,0.774287841796875,9.160514831542969,2.6168625354766846,0.933738648891449
1759336130271288000,0.7842880859375,9.158121109008789,2.6024973392486572,0.9217676520347595
1759336130281288000,0.794287841796875,9.287407875061035,2.5761611461639404,0.9097966551780701
1759336130291288000,0.8042880859375,9.44063663482666,2.5713725090026855,0.9217676520347595
1759336130301288000,0.814287841796875,9.481337547302246,2.5929205417633057,0.9193734526634216
1759336130311288000,0.8242880859375,9.435848236083984,2.5977089405059814,0.9026140570640564
1759336130321289000,0.8342890625,9.3735990524292,2.6408045291900635,0.871489405632019
1759336130331288800,0.844288818359375,9.347262382507324,2.631227731704712,0.8259995579719543
1759336130341289000,0.8542890625,9.364022254943848,2.6455929279327393,0.8379706144332886
1759336130351288800,0.864288818359375,9.395146369934082,2.628833532333374,0.8738836050033569
1759336130361289000,0.8742890625,9.38317584991455,2.58813214302063,0.849941611289978
1759336130371288800,0.884288818359375,9.431059837341309,2.6024973392486572,0.8212111592292786
1759336130381289000,0.8942890625,9.459790229797363,2.580949544906616,0.7757213711738586
1759336130391288800,0.904288818359375,9.483732223510742,2.585737943649292,0.7589619159698486
1759336130401289000,0.9142890625,9.500492095947266,2.557007312774658,0.768538773059845
1759336130411288800,0.924288818359375,9.524434089660645,2.58813214302063,0.7110779285430908
1759336130421288000,0.934287841796875,9.58668327331543,2.583343744277954,0.689530074596405
1759336130431288000,0.9442880859375,9.617807388305664,2.5474305152893066,0.7422025203704834
1759336130441288000,0.954287841796875,9.601048469543457,2.564189910888672,0.7733271718025208
1759336130451288000,0.9642880859375,9.58907699584961,2.5761611461639404,0.8571242094039917
1759336130461288000,0.974287841796875,9.543587684631348,2.559401512145996,0.9002198576927185
1759336130471288000,0.9842880859375,9.524434089660645,2.5737667083740234,0.9648633003234863
1759336130481288000,0.994287841796875,9.428665161132812,2.5785553455352783,1.0103530883789062
1759336130491288000,1.0042880859375,9.404723167419434,2.5761611461639404,0.9983820915222168
1759336130501288000,1.014287841796875,9.364022254943848,2.564189910888672,0.993593692779541
1759336130511288000,1.0242880859375,9.299378395080566,2.5785553455352783,0.9552865028381348
1759336130521288700,1.034288818359375,9.287407875061035,2.5785553455352783,0.9169792532920837
1759336130531288800,1.044288818359375,9.263465881347656,2.5761611461639404,0.8762778043746948
1759336130541289000,1.0542890625,9.256282806396484,2.58813214302063,0.9050082564353943
1759336130551288800,1.064288818359375,9.287407875061035,2.609679937362671,0.9074024558067322
1759336130561289000,1.0742890625,9.244312286376953,2.612074136734009,0.9050082564353943
1759336130571288800,1.084288818359375,9.273042678833008,2.580949544906616,0.8667010068893433
1759336130581289000,1.0942890625,9.342473983764648,2.5546131134033203,0.8403648138046265
1759336130591288800,1.104288818359375,9.387964248657227,2.557007312774658,0.849941611289978
1759336130601289000,1.1142890625,9.411906242370605,2.557007312774658,0.8571242094039917
1759336130611288800,1.124288818359375,9.438241958618164,2.535459518432617,0.8978256583213806
1759336130621288000,1.134287841796875,9.495702743530273,2.5546131134033203,0.9361328482627869
1759336130631288000,1.1442880859375,9.526827812194824,2.542642116546631,0.9361328482627869
1759336130641288000,1.154287841796875,9.567529678344727,2.5665841102600098,0.9744400978088379
1759336130651288000,1.1642880859375,9.536404609680176,2.5689783096313477,1.0031704902648926
1759336130661288000,1.174287841796875,9.550769805908203,2.580949544906616,1.0031704902648926
1759336130671288000,1.1842880859375,9.500492095947266,2.607285737991333,1.0055646896362305
1759336130681288000,1.194287841796875,9.536404609680176,2.580949544906616,1.015141487121582
1759336130691288000,1.2042880859375,9.435848236083984,2.6144683361053467,1.0582371950149536
1759336130701288000,1.214287841796875,9.404723167419434,2.609679937362671,1.0079588890075684
1759336130711288000,1.2242880859375,9.3735990524292,2.5665841102600098,0.9481038451194763
1759336130721289000,1.2342890625,9.375992774963379,2.5306711196899414,0.8954314589500427
1759336130731288800,1.244288818359375,9.34965705871582,2.5713725090026855,0.8978256583213806
1759336130741289000,1.2542890625,9.277831077575684,2.583343744277954,0.9241618514060974
1759336130751288800,1.264288818359375,9.249100685119629,2.580949544906616,0.933738648891449
1759336130761289000,1.2742890625,9.265859603881836,2.5713725090026855,0.9217676520347595
1759336130771288800,1.284288818359375,9.275436401367188,2.540247917175293,0.8882488012313843
1759336130781289000,1.2942890625,9.277831077575684,2.5498247146606445,0.8786720037460327
1759336130791288800,1.304288818359375,9.320926666259766,2.5234885215759277,0.8858546018600464
1759336130801289000,1.3142890625,9.356839179992676,2.5115175247192383,0.8475474119186401
1759336130811288800,1.324288818359375,9.514857292175293,2.5019407272338867,0.8523358106613159
1759336130821288200,1.3342880859375,9.610625267028809,2.4827871322631836,0.8786720037460327
1759336130831288000,1.3442880859375,9.675268173217773,2.456450939178467,0.8786720037460327
1759336130841288000,1.354287841796875,9.668086051940918,2.4851813316345215,0.8547300100326538
1759336130851288000,1.3642880859375,9.610625267028809,2.516305923461914,0.8643068075180054
1759336130861288000,1.374287841796875,9.538799285888672,2.516305923461914,0.9169792532920837
1759336130871288000,1.3842880859375,9.469367027282715,2.5498247146606445,0.9002198576927185
1759336130881288000,1.394287841796875,9.390357971191406,2.5282769203186035,0.912190854549408
1759336130891288000,1.4042880859375,9.31613826751709,2.494758129119873,0.9241618514060974
1759336130901288000,1.414287841796875,9.273042678833008,2.5019407272338867,0.9576807022094727
1759336130911288000,1.4242880859375,9.198822021484375,2.4827871322631836,0.9600749015808105
1759336130921289000,1.4342890625,9.165303230285645,2.492363929748535,0.8978256583213806
1759336130931288800,1.444288818359375,9.155726432800293,2.5234885215759277,0.8595184087753296
1759336130941289000,1.4542890625,9.251494407653809,2.5330653190612793,0.8403648138046265
1759336130951288800,1.464288818359375,9.38317584991455,2.52109432220459,0.871489405632019
1759336130961289000,1.4742890625,9.505280494689941,2.4851813316345215,0.8882488012313843
1759336130971288800,1.484288818359375,9.581894874572754,2.449268341064453,0.8475474119186401
1759336130981289000,1.4942890625,9.517251014709473,2.408566951751709,0.871489405632019
1759336130991288800,1.504288818359375,9.423876762390137,2.341529369354248,0.8140285611152649
1759336131001289000,1.5142890625,9.241917610168457,2.3965959548950195,0.8092401623725891
1759336131011288800,1.524288818359375,9.143755912780762,2.3942017555236816,0.8259995579719543
1759336131021288200,1.5342880859375,9.036016464233398,2.3582887649536133,0.8259995579719543
1759336131031288600,1.54428857421875,9.019257545471191,2.3942017555236816,0.790086567401886
1759336131044325000,1.5573251953125,9.016862869262695,2.4205379486083984,0.7254431247711182
1759336131054325200,1.5673251953125,9.0767183303833,2.47560453414917,0.7493851184844971
1759336131064325000,1.5773251953125,9.246706008911133,2.5043349266052246,0.6943184733390808
1759336131074325200,1.5873251953125,9.419088363647461,2.5450363159179688,0.7038952708244324
1759336131084325000,1.5973251953125,9.644144058227539,2.5330653190612793,0.727837324142456
1759336131094325200,1.6073251953125,9.854833602905273,2.477998733520508,0.7493851184844971
1759336131104325000,1.6173251953125,9.988908767700195,2.4396915435791016,0.7876923680305481
1759336131114325200,1.6273251953125,10.07509994506836,2.3965959548950195,0.8044517636299133
1759336131124326000,1.637325927734375,10.077494621276855,2.3487119674682617,0.7613561153411865
1759336131134326000,1.647325927734375,9.96017837524414,2.3247697353363037,0.6991068720817566
1759336131144326100,1.657326171875,9.797372817993164,2.346317768096924,0.629675030708313
1759336131154326000,1.667325927734375,9.627384185791016,2.33913516998291,0.5506663918495178
1759336131164326100,1.677326171875,9.514857292175293,2.3247697353363037,0.5051765441894531
1759336131174326000,1.687325927734375,9.457395553588867,2.298433542251587,0.45010992884635925
1759336131184326100,1.697326171875,9.486125946044922,2.2697031497955322,0.44771572947502136
1759336131194326000,1.707325927734375,9.555558204650879,2.252943754196167,0.4620809257030487
1759336131204326100,1.717326171875,9.5316162109375,2.2888567447662354,0.507570743560791
1759336131214326000,1.727325927734375,9.423876762390137,2.319981336593628,0.5410895943641663
1759336131224325000,1.7373251953125,9.299378395080566,2.3798365592956543,0.5913678407669067
1759336131234325200,1.7473251953125,9.148544311523438,2.4803929328918457,0.646434485912323
1759336131244325000,1.7573251953125,9.098265647888184,2.537853717803955,0.706289529800415
1759336131254325200,1.7673251953125,9.062353134155273,2.5761611461639404,0.7206547260284424
1759336131264325000,1.7773251953125,9.1940336227417,2.5929205417633057,0.6919242739677429
1759336131274325200,1.7873251953125,9.356839179992676,2.5737667083740234,0.6440402865409851
1759336131284325000,1.7973251953125,9.483732223510742,2.583343744277954,0.5817909836769104
1759336131294325200,1.8073251953125,9.672874450683594,2.561795711517334,0.5291185975074768
1759336131304325000,1.8173251953125,9.787796020507812,2.5474305152893066,0.5147533416748047
1759336131324326000,1.837325927734375,9.83568000793457,2.540247917175293,0.5793967843055725
1759336131334325500,1.847325439453125,9.761459350585938,2.557007312774658,0.5937620401382446
1759336131344325600,1.85732568359375,9.696816444396973,2.5450363159179688,0.6392518281936646
1759336131354325500,1.867325439453125,9.658509254455566,2.513911724090576,0.6823474764823914
1759336131364325600,1.87732568359375,9.65611457824707,2.5330653190612793,0.7182605266571045
1759336131374325500,1.887325439453125,9.639355659484863,2.5019407272338867,0.7757213711738586
1759336131384325600,1.89732568359375,9.641749382019043,2.4851813316345215,0.7996633648872375
1759336131394325500,1.907325439453125,9.632172584533691,2.4875755310058594,0.8236053586006165
1759336131404325600,1.91732568359375,9.627384185791016,2.4827871322631836,0.8307880163192749
1759336131414325500,1.927325439453125,9.644144058227539,2.456450939178467,0.828393816947937
1759336131424324600,1.93732470703125,9.67766284942627,2.4684219360351562,0.8307880163192749
1759336131434324700,1.94732470703125,9.727940559387207,2.449268341064453,0.8643068075180054
1759336131444324600,1.95732470703125,9.739912033081055,2.451662540435791,0.8188169598579407
1759336131454324700,1.96732470703125,9.754277229309082,2.4660277366638184,0.751779317855835
1759336131464324600,1.97732470703125,9.648932456970215,2.4899697303771973,0.7350199222564697
1759336131474324700,1.98732470703125,9.524434089660645,2.516305923461914,0.706289529800415
1759336131484324600,1.99732470703125,9.428665161132812,2.52109432220459,0.7445967197418213
1759336131494324700,2.00732470703125,9.399934768676758,2.497152328491211,0.7493851184844971
1759336131504324600,2.01732470703125,9.359233856201172,2.4612393379211426,0.6967126727104187
1759336131514324700,2.02732470703125,9.378387451171875,2.3918075561523438,0.6751648783683777
1759336131524325600,2.03732568359375,9.426271438598633,2.319981336593628,0.6344634294509888
1759336131534325500,2.047325439453125,9.404723167419434,2.31758713722229,0.6440402865409851
1759336131544325600,2.05732568359375,9.328108787536621,2.296039342880249,0.6584054827690125
1759336131554325500,2.067325439453125,9.25867748260498,2.3487119674682617,0.6392518281936646
1759336131564325600,2.07732568359375,9.22515869140625,2.360682964324951,0.5650315880775452
1759336131574325500,2.087325439453125,9.330503463745117,2.343923568725586,0.4884171485900879
1759336131584325600,2.09732568359375,9.44303035736084,2.3535003662109375,0.4429273009300232
1759336131594325500,2.107325439453125,9.512462615966797,2.322375535964966,0.42616790533065796
1759336131604325600,2.11732568359375,9.569923400878906,2.3080103397369385,0.45489832758903503
1759336131614325500,2.127325439453125,9.574711799621582,2.2888567447662354,0.47644615173339844
1759336131624324600,2.13732470703125,9.514857292175293,2.2888567447662354,0.47165772318840027
1759336131634324700,2.14732470703125,9.466972351074219,2.2864625453948975,0.5147533416748047
1759336131644324600,2.15732470703125,9.455001831054688,2.3535003662109375,0.524330198764801
1759336131654324700,2.16732470703125,9.464578628540039,2.3798365592956543,0.5506663918495178
1759336131664324600,2.17732470703125,9.44063663482666,2.4013843536376953,0.5602431893348694
1759336131674324700,2.18732470703125,9.488520622253418,2.425326347351074,0.5339069962501526
1759336131684324600,2.19732470703125,9.500492095947266,2.4013843536376953,0.49559974670410156
1759336131694324700,2.20732470703125,9.526827812194824,2.408566951751709,0.44771572947502136
1759336131704324600,2.21732470703125,9.543587684631348,2.406172752380371,0.44771572947502136
1759336131714324700,2.22732470703125,9.5316162109375,2.367865562438965,0.4644751250743866
1759336131724325600,2.23732568359375,9.507674217224121,2.365471363067627,0.4908113479614258
1759336131734325500,2.247325439453125,9.419088363647461,2.3965959548950195,0.5003881454467773
1759336131744325600,2.25732568359375,9.390357971191406,2.38462495803833,0.5027823448181152
1759336131754325500,2.267325439453125,9.356839179992676,2.3774423599243164,0.5578489899635315
1759336131764325600,2.27732568359375,9.395146369934082,2.389413356781006,0.5722141861915588
1759336131774325500,2.287325439453125,9.445425033569336,2.38462495803833,0.5985504388809204
1759336131784325600,2.29732568359375,9.541193008422852,2.343923568725586,0.5770025849342346
1759336131794325500,2.307325439453125,9.581894874572754,2.341529369354248,0.5506663918495178
1759336131804325600,2.31732568359375,9.596260070800781,2.322375535964966,0.5219359993934631
1759336131814325500,2.327325439453125,9.62020206451416,2.3319525718688965,0.5051765441894531
1759336131824324900,2.337324951171875,9.58907699584961,2.3367409706115723,0.5099649429321289
1759336131834324700,2.34732470703125,9.557952880859375,2.4013843536376953,0.49559974670410156
1759336131844324600,2.35732470703125,9.579500198364258,2.3918075561523438,0.5171475410461426
1759336131854324700,2.36732470703125,9.560346603393555,2.3965959548950195,0.5219359993934631
1759336131864324600,2.37732470703125,9.517251014709473,2.382230758666992,0.47884035110473633
1759336131874324700,2.38732470703125,9.416694641113281,2.367865562438965,0.49320554733276367
1759336131884324600,2.39732470703125,9.335291862487793,2.365471363067627,0.524330198764801
1759336131894324700,2.40732470703125,9.26107120513916,2.343923568725586,0.5147533416748047
1759336131904324600,2.41732470703125,9.29458999633789,2.3319525718688965,0.5315127968788147
1759336131914324700,2.42732470703125,9.335291862487793,2.343923568725586,0.5722141861915588
1759336131924325600,2.43732568359375,9.390357971191406,2.319981336593628,0.6177040338516235
1759336131934325500,2.447325439453125,9.512462615966797,2.274491548538208,0.6033388376235962
1759336131944325600,2.45732568359375,9.574711799621582,2.2577321529388428,0.5889736413955688
1759336131954325500,2.467325439453125,9.694421768188477,2.233790159225464,0.5195417404174805
1759336131964325600,2.47732568359375,9.682451248168945,2.22660756111145,0.569819986820221
1759336131974325500,2.487325439453125,9.65611457824707,2.2218191623687744,0.586579442024231
1759336131984325600,2.49732568359375,9.610625267028809,2.205059766769409,0.5985504388809204
1759336131994325500,2.507325439453125,9.608230590820312,2.1954829692840576,0.6224924325942993
1759336132004325600,2.51732568359375,9.569923400878906,2.1811177730560303,0.6440402865409851
1759336132014325500,2.527325439453125,9.466972351074219,2.190694570541382,0.6392518281936646
1759336132024324900,2.537324951171875,9.325715065002441,2.140416383743286,0.5674257874488831
1759336132034324700,2.54732470703125,9.246706008911133,2.1116859912872314,0.5674257874488831
1759336132044324900,2.557324951171875,9.162909507751465,2.1092917919158936,0.5482721924781799
1759336132054324700,2.56732470703125,9.177274703979492,2.094926595687866,0.5889736413955688
1759336132064324900,2.577324951171875,9.172486305236816,2.118868589401245,0.6009446382522583
1759336132074324700,2.58732470703125,9.222764015197754,2.10210919380188,0.6607996821403503
1759336132084324900,2.597324951171875,9.234735488891602,2.1356279850006104,0.5889736413955688
1759336132094324700,2.60732470703125,9.275436401367188,2.1475989818573,0.6775590777397156
1759336132104324900,2.617324951171875,9.251494407653809,2.10210919380188,0.727837324142456
1759336132114324700,2.62732470703125,9.1940336227417,2.0877439975738525,0.7852981686592102
1759336132124325600,2.63732568359375,9.098265647888184,2.0638017654418945,0.8212111592292786
1759336132134325500,2.647325439453125,8.997709274291992,2.008735179901123,0.8595184087753296
1759336132144325600,2.65732568359375,8.928277015686035,1.9847931861877441,0.912190854549408
1759336132154325500,2.667325439453125,8.868422508239746,1.922544002532959,0.9552865028381348
1759336132164325600,2.67732568359375,8.822932243347168,1.889025092124939,1.0127472877502441
1759336132174325500,2.687325439453125,8.892364501953125,1.86508309841156,1.0342950820922852
1759336132184325600,2.69732568359375,8.906729698181152,1.8052281141281128,0.9959878921508789
1759336132194325500,2.707325439453125,8.885181427001953,1.802833914756775,0.9696516990661621
1759336132204325600,2.71732568359375,8.935460090637207,1.764526605606079,0.912190854549408
1759336132214325500,2.727325439453125,8.928277015686035,1.7286136150360107,0.8954314589500427
1759336132224324900,2.737324951171875,8.86602783203125,1.678335428237915,0.7733271718025208
1759336132234324700,2.74732470703125,8.755894660949707,1.6208745241165161,0.6727706789970398
1759336132244324600,2.75732470703125,8.542811393737793,1.5849615335464478,0.5746083855628967
1759336132254324700,2.76732470703125,8.315361976623535,1.53707754611969,0.49320554733276367
1759336132264324600,2.77732470703125,8.047211647033691,1.50355863571167,0.42377370595932007
1759336132274324700,2.78732470703125,7.826944828033447,1.4484920501708984,0.38307225704193115
1759336132284324900,2.797324951171875,7.647379398345947,1.4077905416488647,0.31124621629714966
1759336132294324700,2.80732470703125,7.498939037322998,1.3335703611373901,0.26096799969673157
1759336132304324900,2.817324951171875,7.434295654296875,1.2617442607879639,0.20111294090747833
1759336132314324700,2.82732470703125,7.441478252410889,1.161187767982483,0.20350714027881622
1759336132324325600,2.83732568359375,7.403171062469482,1.0223240852355957,0.3016694188117981
1759336132334325500,2.847325439453125,7.455843448638916,0.993593692779541,0.21308395266532898
1759336132344325600,2.85732568359375,7.376834869384766,1.0007762908935547,0.21547815203666687
1759336132354325500,2.867325439453125,7.37204647064209,0.9552865028381348,0.29209262132644653
1759336132364325600,2.87732568359375,7.384017467498779,0.8643068075180054,0.28730419278144836
1759336132374325500,2.887325439453125,7.601889610290527,0.9193734526634216,0.47405192255973816
1759336132384325600,2.89732568359375,7.1996636390686035,0.8547300100326538,0.5554547905921936
1759336132394325500,2.907325439453125,7.23797082901001,0.8810662031173706,0.6224924325942993
1759336132404325600,2.91732568359375,7.139808654785156,0.8236053586006165,0.7374141216278076
1759336132414325500,2.927325439453125,6.78546667098999,0.8762778043746948,0.8858546018600464
1759336132424324600,2.93732470703125,6.708852291107178,0.8379706144332886,0.9648633003234863
1759336132434324700,2.94732470703125,6.87405252456665,0.7206547260284424,0.9720458984375
1759336132444324600,2.95732470703125,6.991368293762207,0.5554547905921936,0.9217676520347595
1759336132454324700,2.96732470703125,7.170933246612549,0.44771572947502136,0.8690952062606812
1759336132464324600,2.97732470703125,7.297826290130615,0.3734954595565796,0.8643068075180054
1759336132474324700,2.98732470703125,7.307403087615967,0.33039984107017517,0.8834604024887085
1759336132484324600,2.99732470703125,7.328950881958008,0.26336219906806946,0.8667010068893433
1759336132494324700,3.00732470703125,7.302614688873291,0.23702596127986908,0.8954314589500427
1759336132504324600,3.01732470703125,7.261912822723389,0.24181437492370605,0.8858546018600464
1759336132514324700,3.02732470703125,7.166144847869873,0.1604115068912506,0.9600749015808105
1759336132524325600,3.03732568359375,7.2212114334106445,0.07422025501728058,0.993593692779541
1759336132534325500,3.047325439453125,7.331345081329346,-0.090979665517807,0.9840168952941895
1759336132544325600,3.05732568359375,7.293037414550781,-0.15801730751991272,0.9457096457481384
1759336132554325500,3.067325439453125,7.14699125289917,-0.26336219906806946,0.8451532125473022
1759336132564325600,3.07732568359375,6.953061103820801,-0.3280056416988373,0.6871358752250671
1759336132574325500,3.087325439453125,6.689698696136475,-0.304063618183136,0.47884035110473633
1759336132584325600,3.09732568359375,6.426336765289307,-0.5985504388809204,0.4692635238170624
1759336132594325500,3.107325439453125,6.2707133293151855,-0.6320692300796509,0.36152446269989014
1759336132604325600,3.11732568359375,6.028899192810059,-0.6727706789970398,0.22026655077934265
1759336132614325500,3.127325439453125,6.263530731201172,-0.689530074596405,-0.0071826050989329815
1759336132624324600,3.13732470703125,6.70645809173584,-0.5841852426528931,-0.002394201699644327
1759336132634324700,3.14732470703125,7.254730224609375,-0.629675030708313,-0.026336219161748886
1759336132644324600,3.15732470703125,8.078335762023926,-0.7709329724311829,-0.002394201699644327
1759336132654324700,3.16732470703125,8.901941299438477,-0.9720458984375,0.11971008777618408
1759336132664324600,3.17732470703125,9.538799285888672,-1.1755530834197998,0.16519992053508759
1759336132674324700,3.18732470703125,10.156502723693848,-1.2665326595306396,0.1364694982767105
1759336132684324600,3.19732470703125,10.395922660827637,-1.400607943534851,0.0454898327589035
1759336132694324700,3.20732470703125,10.702381134033203,-1.2258312702178955,-0.05267243832349777
1759336132704324600,3.21732470703125,11.190797805786133,-1.2330138683319092,-0.043095629662275314
1759336132714324700,3.22732470703125,11.770195007324219,-1.05105459690094,0.1149216815829277
1759336132724325600,3.23732568359375,12.529156684875488,-0.9002198576927185,0.6105214357376099
1759336132734325500,3.247325439453125,13.84836196899414,-0.7254431247711182,0.7924807667732239
1759336132744325600,3.25732568359375,14.734516143798828,-0.6440402865409851,1.194706678390503
1759336132754325500,3.267325439453125,15.127164840698242,-0.7038952708244324,1.3982137441635132
1759336132764325600,3.27732568359375,15.42404556274414,-0.790086567401886,1.4987702369689941
1759336132774325500,3.287325439453125,15.330672264099121,-0.9720458984375,1.577778935432434
1759336132784325000,3.2973251953125,15.076886177062988,-1.1755530834197998,1.5203180313110352
1759336132794325000,3.307324951171875,14.978724479675293,-1.235408067703247,1.5322890281677246
1759336132804325000,3.3173251953125,14.77761173248291,-1.1252747774124146,1.8794482946395874
1759336132814325000,3.327324951171875,14.365509033203125,-1.1683704853057861,2.2409727573394775
1759336132824324000,3.337323974609375,14.197915077209473,-0.9744400978088379,2.5258827209472656
1759336132834324200,3.34732421875,13.924976348876953,-0.4812345504760742,2.6839001178741455
1759336132844324000,3.357323974609375,13.616124153137207,-0.040701430290937424,2.8395233154296875
1759336132854324200,3.36732421875,13.352762222290039,-0.05746084079146385,2.8610711097717285
1759336132864324000,3.377323974609375,13.283329963684082,-0.730231523513794,2.8658595085144043
1759336132874324200,3.38732421875,13.087005615234375,-1.6304513216018677,2.542642116546631
1759336132884324000,3.397323974609375,13.4413480758667,-2.032677173614502,2.3127987384796143
1759336132894324200,3.40732421875,13.05827522277832,-2.293645143508911,2.248155355453491
1759336132904324000,3.417323974609375,12.790124893188477,-2.736572504043579,2.3080103397369385
1759336132914324200,3.42732421875,12.172420501708984,-3.1004912853240967,2.655169725418091
1759336132924324900,3.437324951171875,11.590629577636719,-3.160346269607544,2.9089550971984863
1759336132934325000,3.447324951171875,11.310507774353027,-3.1004912853240967,3.1268274784088135
1759336132944325000,3.4573251953125,11.274595260620117,-2.846705913543701,3.1699230670928955
1759336132954325000,3.467324951171875,11.535563468933105,-2.6623523235321045,3.220201253890991
1759336132964325000,3.4773251953125,11.269806861877441,-2.2457611560821533,3.0573954582214355
1759336132974325000,3.487324951171875,11.233893394470215,-1.9608511924743652,2.978386878967285
1759336132984325000,3.4973251953125,11.265018463134766,-1.7956513166427612,2.913743495941162
1759336132994325000,3.507324951171875,10.86758041381836,-1.6400281190872192,2.736572504043579
1759336133004325000,3.5173251953125,10.644920349121094,-1.5873557329177856,2.58813214302063
1759336133014325000,3.527324951171875,10.441412925720215,-1.434126853942871,2.5258827209472656
1759336133024324000,3.537323974609375,10.240300178527832,-1.0678139925003052,2.6001031398773193
1759336133034324200,3.54732421875,10.099041938781738,-0.8307880163192749,2.7437551021575928
1759336133044324000,3.557323974609375,10.101436614990234,-0.6991068720817566,2.9472622871398926
1759336133054324200,3.56732421875,10.23072338104248,-0.6799532771110535,3.181894063949585
1759336133064324000,3.577323974609375,10.3456449508667,-0.5482721924781799,3.157952070236206
1759336133074324200,3.58732421875,10.778995513916016,-0.3878606855869293,2.8419175148010254
1759336133084324900,3.597324951171875,11.035175323486328,-0.3280056416988373,2.6815059185028076
1759336133094324700,3.60732470703125,11.126154899597168,-0.24181437492370605,2.698265314102173
1759336133104324900,3.617324951171875,11.26262378692627,0.014365210197865963,2.9161376953125
1759336133114324700,3.62732470703125,11.719916343688965,0.26575639843940735,3.315969467163086
1759336133124325600,3.63732568359375,12.112565994262695,0.727837324142456,3.646369218826294
1759336133134325500,3.647325439453125,12.349591255187988,1.0438719987869263,3.804386615753174
1759336133144325600,3.65732568359375,12.091017723083496,1.115697979927063,3.8570590019226074
1759336133154325800,3.66732568359375,11.379940032958984,1.0342950820922852,3.7421371936798096
1759336133164325600,3.67732568359375,10.597036361694336,0.9624691009521484,3.5170822143554688
1759336133174325800,3.68732568359375,9.617807388305664,1.0654197931289673,3.294421434402466
1759336133184325600,3.69732568359375,8.50450325012207,1.091755986213684,3.0406360626220703
1759336133194325800,3.70732568359375,7.719205379486084,1.1540051698684692,2.7102363109588623
1759336133204325600,3.71732568359375,7.364863872528076,1.2090718746185303,2.5450363159179688
1759336133214325800,3.72732568359375,7.573159217834473,1.4460978507995605,2.3367409706115723
1759336133224324900,3.737324951171875,8.056788444519043,1.6711528301239014,2.0231003761291504
1759336133234324700,3.74732470703125,8.70561695098877,1.8770540952682495,1.5059528350830078
1759336133244324900,3.757324951171875,9.165303230285645,2.008735179901123,0.9696516990661621
1759336133254324700,3.76732470703125,9.431059837341309,2.145204782485962,0.6105214357376099
1759336133264324900,3.777324951171875,9.34965705871582,2.3750481605529785,0.2992752194404602
1759336133274324700,3.78732470703125,9.344868659973145,2.427720546722412,0.2537853717803955
1759336133284324900,3.797324951171875,9.483732223510742,2.4684219360351562,0.38546648621559143
1759336133294324700,3.80732470703125,9.411906242370605,2.7078421115875244,0.26575639843940735
1759336133304324900,3.817324951171875,9.49809741973877,2.9233202934265137,0.011971008032560349
1759336133314324700,3.82732470703125,9.665691375732422,3.0119056701660156,-0.1149216815829277
1759336133324325600,3.83732568359375,9.735123634338379,2.980781078338623,-0.10773907601833344
1759336133334325500,3.847325439453125,9.754277229309082,2.829946517944336,0.08858546614646912
1759336133344325600,3.85732568359375,9.71357536315918,2.6384103298187256,0.40701428055763245
1759336133354325500,3.867325439453125,9.967360496520996,2.166752576828003,0.9720458984375
1759336133364325600,3.87732568359375,9.909899711608887,1.6950948238372803,1.5873557329177856
1759336133374325500,3.887325439453125,9.591471672058105,1.702277421951294,2.011129379272461
1759336133384325600,3.89732568359375,9.364022254943848,1.4676456451416016,2.207453966140747
1759336133394325500,3.907325439453125,8.868422508239746,1.5059528350830078,2.1571757793426514
1759336133404325600,3.91732568359375,8.664915084838867,1.5203180313110352,1.8555063009262085
1759336133414325500,3.927325439453125,8.451830863952637,1.3982137441635132,1.5921441316604614
1759336133424324600,3.93732470703125,8.12861442565918,1.3287819623947144,1.2713210582733154
1759336133434324700,3.94732470703125,8.456619262695312,1.6280571222305298,1.338358759880066
1759336133444324600,3.95732470703125,8.729558944702148,2.229001760482788,1.3646949529647827
1759336133454324700,3.96732470703125,9.160514831542969,2.5953147411346436,1.3886369466781616
1759336133464324600,3.97732470703125,9.280224800109863,2.896984100341797,1.5490485429763794
1759336133474324700,3.98732470703125,9.29458999633789,3.201047658920288,1.7142484188079834
1759336133484324600,3.99732470703125,9.189245223999023,3.450044631958008,1.8507179021835327
1759336133494324700,4.00732470703125,9.165303230285645,3.5649664402008057,2.0159177780151367
1759336133504324600,4.01732470703125,9.17009162902832,3.6511576175689697,2.2385785579681396
1759336133514324700,4.02732470703125,9.311349868774414,3.7469255924224854,2.5977089405059814
1759336133524325600,4.03732568359375,9.10305404663086,4.271255970001221,2.31758713722229
1759336133534325500,4.047325439453125,9.256282806396484,4.1611223220825195,2.3511061668395996
1759336133544325600,4.05732568359375,9.854833602905273,3.9025487899780273,2.80361008644104
1759336133554325500,4.067325439453125,9.526827812194824,3.957615375518799,2.8419175148010254
1759336133564325600,4.07732568359375,8.940248489379883,4.2090067863464355,2.9879636764526367
1759336133574325500,4.087325439453125,8.588300704956055,4.141968727111816,3.047818660736084
1759336133584325600,4.09732568359375,8.28902530670166,3.9480385780334473,2.760514497756958
1759336133594325500,4.107325439453125,8.049605369567871,3.687070608139038,2.346317768096924
1759336133604325600,4.11732568359375,8.298602104187012,3.6176388263702393,2.1045033931732178
1759336133614325500,4.127325439453125,8.52365779876709,3.4189200401306152,1.9105730056762695
1759336133624324900,4.137324951171875,8.696040153503418,3.2561142444610596,1.5969325304031372
1759336133634324700,4.14732470703125,8.875604629516602,3.2848446369171143,1.316810965538025
1759336133644324900,4.157324951171875,8.985737800598145,3.2369606494903564,1.0821791887283325
1759336133654324700,4.16732470703125,9.071929931640625,3.246537446975708,0.9528923034667969
1759336133664324900,4.177324951171875,9.323320388793945,3.3494882583618164,0.9193734526634216
1759336133674324700,4.18732470703125,9.263465881347656,3.7397429943084717,0.9361328482627869
1759336133684324900,4.197324951171875,9.22755241394043,3.955221176147461,0.9313444495201111
1759336133694324700,4.20732470703125,9.10305404663086,4.2760443687438965,0.9959878921508789
1759336133704324900,4.217324951171875,9.06714153289795,4.546588897705078,1.0558429956436157
1759336133714324700,4.22732470703125,8.916306495666504,4.632780075073242,1.1971008777618408
1759336133724325600,4.23732568359375,8.667309761047363,4.563348293304443,1.3623007535934448
1759336133734325500,4.247325439453125,8.21959400177002,4.367023944854736,1.534683346748352
1759336133744325600,4.25732568359375,8.109460830688477,4.156333923339844,1.6496049165725708
1759336133754325500,4.267325439453125,7.925107002258301,4.005499362945557,1.7142484188079834
1759336133764325600,4.27732568359375,7.735964775085449,3.8786067962646484,1.659181833267212
1759336133774325800,4.28732568359375,7.592312812805176,3.797203779220581,1.5322890281677246
1759336133784325600,4.29732568359375,7.735964775085449,3.708618402481079,1.4772224426269531
1759336133794325500,4.307325439453125,7.783848762512207,3.7612907886505127,1.5059528350830078
1759336133804325600,4.31732568359375,7.972990989685059,3.8331170082092285,1.460463047027588
1759336133814325800,4.32732568359375,8.248324394226074,3.8738183975219727,1.4197616577148438
1759336133824324600,4.33732470703125,8.408735275268555,3.9480385780334473,1.3239935636520386
1759336133834324700,4.34732470703125,8.55717658996582,3.952826976776123,1.2234370708465576
1759336133844324600,4.35732470703125,8.59308910369873,3.9911341667175293,1.2856862545013428
1759336133854324700,4.36732470703125,8.729558944702148,3.93367338180542,1.2952631711959839
1759336133864324600,4.37732470703125,8.952219009399414,3.9217023849487305,1.436521053314209
1759336133874324700,4.38732470703125,9.028834342956543,3.995922565460205,1.7070658206939697
1759336133884324600,4.39732470703125,8.892364501953125,4.036623954772949,1.821987509727478
1759336133894324700,4.40732470703125,8.7175874710083,4.036623954772949,1.7980455160140991
1759336133904324600,4.41732470703125,8.638579368591309,4.094084739685059,1.6160861253738403
1759336133914324700,4.42732470703125,8.5595703125,4.094084739685059,1.4724340438842773
1759336133924325400,4.437325439453125,8.542811393737793,4.082113742828369,1.3718775510787964
1759336133934325500,4.447325439453125,8.583512306213379,3.974374771118164,1.2832920551300049
1759336133944325400,4.457325439453125,8.8971529006958,3.8738183975219727,1.2761094570159912
1759336133954325500,4.467325439453125,8.952219009399414,3.847482204437256,1.2737152576446533
1759336133964325400,4.477325439453125,9.17009162902832,3.7493197917938232,1.357512354850769
1759336133974325500,4.487325439453125,9.265859603881836,3.799597978591919,1.455674648284912
1759336133984325400,4.497325439453125,9.13657283782959,3.909731388092041,1.5322890281677246
1759336133994325500,4.507325439453125,8.904335021972656,3.976768970489502,1.6304513216018677
1759336134004325400,4.517325439453125,8.68167495727539,4.060565948486328,1.6639702320098877
1759336134014325500,4.527325439453125,8.545205116271973,4.091690540313721,1.6160861253738403
1759336134024324600,4.53732470703125,8.497321128845215,4.1156325340271,1.4915876388549805
1759336134034324700,4.54732470703125,8.490138053894043,4.082113742828369,1.4748282432556152
1759336134044324600,4.55732470703125,8.700828552246094,4.060565948486328,1.3958195447921753
1759336134054324700,4.56732470703125,8.712799072265625,3.9001545906066895,1.5442601442337036
1759336134064324600,4.57732470703125,8.442254066467285,4.24970817565918,1.5442601442337036
1759336134074324700,4.58732470703125,8.961795806884766,4.228160381317139,1.6065093278884888
1759336134084324600,4.59732470703125,9.036016464233398,4.017470359802246,1.53707754611969
1759336134094324700,4.60732470703125,9.112630844116211,3.9600095748901367,1.45806884765625
1759336134104324900,4.617324951171875,9.414299964904785,3.9193081855773926,1.4245500564575195
1759336134114324700,4.62732470703125,9.426271438598633,3.936067581176758,1.3958195447921753
1759336134124325600,4.63732568359375,9.244312286376953,3.907337188720703,1.4939818382263184
1759336134134325800,4.64732568359375,8.997709274291992,3.847482204437256,1.558625340461731
1759336134144325600,4.65732568359375,8.765471458435059,3.821146011352539,1.5753847360610962
1759336134154325800,4.66732568359375,8.662521362304688,3.751713991165161,1.5322890281677246
1759336134164325600,4.67732568359375,8.638579368591309,3.6822822093963623,1.455674648284912
1759336134174325800,4.68732568359375,8.600272178649902,3.6607344150543213,1.3934253454208374
1759336134184325600,4.69732568359375,8.588300704956055,3.6583402156829834,1.292868971824646
1759336134194325800,4.70732568359375,8.777442932128906,3.646369218826294,1.1875240802764893
1759336134204325600,4.71732568359375,8.959402084350586,3.646369218826294,1.2521674633026123
1759336134214325800,4.72732568359375,9.016862869262695,3.6535518169403076,1.278503656387329
1759336134224324900,4.737324951171875,9.17009162902832,3.643975019454956,1.3455413579940796
1759336134234325000,4.747324951171875,9.320926666259766,3.6535518169403076,1.2761094570159912
1759336134244324900,4.757324951171875,9.414299964904785,3.667917013168335,1.3503297567367554
1759336134254325000,4.767324951171875,9.35205078125,3.6798880100250244,1.3670891523361206
1759336134264324900,4.777324951171875,9.270648002624512,3.687070608139038,1.3263877630233765
1759336134274325000,4.787324951171875,9.229947090148926,3.6511576175689697,1.2641384601593018
1759336134284324900,4.797324951171875,9.234735488891602,3.603273630142212,1.2689268589019775
1759336134294325000,4.807324951171875,9.215581893920898,3.5913026332855225,1.3431471586227417
1759336134304324900,4.817324951171875,9.04559326171875,3.5434184074401855,1.4413094520568848
1759336134314325000,4.827324951171875,9.000102996826172,3.5218706130981445,1.4389152526855469
1759336134324326000,4.837325927734375,9.007286071777344,3.552995204925537,1.3551181554794312
1759336134334325800,4.84732568359375,9.10066032409668,3.5410242080688477,1.3742717504501343
1759336134344325600,4.85732568359375,9.083900451660156,3.5194764137268066,1.4532804489135742
1759336134354325800,4.86732568359375,9.150938034057617,3.5386300086975098,1.4676456451416016
1759336134364326000,4.877325927734375,9.184456825256348,3.5960910320281982,1.3982137441635132
1759336134374325800,4.88732568359375,9.246706008911133,3.627215623855591,1.3503297567367554
1759336134384325600,4.89732568359375,9.244312286376953,3.600879430770874,1.3072341680526733
1759336134394325800,4.90732568359375,9.182063102722168,3.600879430770874,1.237802267074585
1759336134404325600,4.91732568359375,9.091083526611328,3.60566782951355,1.2066776752471924
1759336134414325800,4.92732568359375,9.062353134155273,3.6343982219696045,1.2330138683319092
1759336134424324900,4.937324951171875,8.930671691894531,3.576937437057495,1.3287819623947144
1759336134434324700,4.94732470703125,8.875604629516602,3.550601005554199,1.4173674583435059
1759336134444324900,4.957324951171875,9.002497673034668,3.60566782951355,1.4101848602294922
1759336134454324700,4.96732470703125,8.901941299438477,3.5960910320281982,1.5634137392044067
1759336134464324900,4.977324951171875,8.842085838317871,3.550601005554199,1.678335428237915
1759336134474324700,4.98732470703125,8.810961723327637,3.6152446269989014,1.678335428237915
1759336134484324900,4.997324951171875,8.827720642089844,3.670311212539673,1.6089035272598267
1759336134494324700,5.00732470703125,8.837297439575195,3.689464807510376,1.4772224426269531
1759336134504324900,5.017324951171875,8.916306495666504,3.627215623855591,1.2976573705673218
1759336134514324700,5.02732470703125,9.091083526611328,3.529053211212158,1.1851298809051514
1759336134524325600,5.03732568359375,9.201216697692871,3.490746021270752,1.139639973640442
1759336134534325500,5.047325439453125,9.340080261230469,3.3734302520751953,1.359906554222107
1759336134544325600,5.05732568359375,9.29458999633789,3.2752678394317627,1.4915876388549805
1759336134554325500,5.067325439453125,9.256282806396484,3.3255462646484375,1.5322890281677246
1759336134564325600,5.07732568359375,9.153332710266113,3.380612850189209,1.4987702369689941
1759336134574325500,5.087325439453125,9.150938034057617,3.4835634231567383,1.455674648284912
1759336134584325600,5.09732568359375,9.098265647888184,3.485957622528076,1.5897499322891235
1759336134594325500,5.107325439453125,8.949825286865234,3.5625722408294678,1.8076223134994507
1759336134604325600,5.11732568359375,8.916306495666504,3.622427225112915,1.9608511924743652
1759336134614325500,5.127325439453125,8.851662635803223,3.6750996112823486,2.250549554824829
1759336134624324600,5.13732470703125,8.858845710754395,3.8594532012939453,2.3726539611816406
1759336134634324700,5.14732470703125,9.016862869262695,3.907337188720703,2.3127987384796143
1759336134644324600,5.15732470703125,9.115025520324707,3.845088005065918,2.250549554824829
1759336134654324700,5.16732470703125,8.992920875549316,3.7876269817352295,2.2625205516815186
1759336134664324600,5.17732470703125,8.763077735900879,3.7924153804779053,2.363077163696289
1759336134674324700,5.18732470703125,8.55717658996582,3.8283286094665527,2.5019407272338867
1759336134684324600,5.19732470703125,8.279448509216309,3.976768970489502,2.6240451335906982
1759336134694324700,5.20732470703125,8.16213321685791,3.97916316986084,2.786850690841675
1759336134704324600,5.21732470703125,8.152556419372559,4.036623954772949,2.9544448852539062
1759336134714324700,5.22732470703125,8.10706615447998,4.084507942199707,3.1699230670928955
1759336134724325600,5.23732568359375,8.01848030090332,4.132391929626465,3.3255462646484375
1759336134734325500,5.247325439453125,7.999327182769775,4.206612586975098,3.533841609954834
1759336134744325600,5.25732568359375,7.941866397857666,4.218583583831787,3.6535518169403076
1759336134754325500,5.267325439453125,7.9945387840271,4.280832767486572,3.6128504276275635
1759336134764325600,5.27732568359375,8.011298179626465,4.364629745483398,3.5625722408294678
1759336134774325500,5.287325439453125,8.03763484954834,4.304774761199951,3.531447410583496
1759336134784325600,5.29732568359375,8.190863609313965,4.268861770629883,3.4404678344726562
1759336134794325500,5.307325439453125,8.28663158416748,4.247313976287842,3.2800562381744385
1759336134804325600,5.31732568359375,8.324938774108887,4.220977783203125,3.3016040325164795
1759336134814325500,5.327325439453125,8.25550651550293,4.182670593261719,3.428496837615967
1759336134824324600,5.33732470703125,8.154950141906738,4.125209331512451,3.507505416870117
1759336134834324700,5.34732470703125,8.147768020629883,4.194641590118408,3.428496837615967
1759336134844324600,5.35732470703125,8.099884033203125,4.189853191375732,3.4117374420166016
1759336134854324700,5.36732470703125,8.138191223144531,4.1611223220825195,3.3734302520751953
1759336134864324600,5.37732470703125,8.207622528076172,4.146757125854492,3.339911460876465
1759336134874324700,5.38732470703125,8.28902530670166,4.108449935913086,3.313575267791748
1759336134884324600,5.39732470703125,8.320150375366211,4.084507942199707,3.2178070545196533
1759336134894324700,5.40732470703125,8.34409236907959,4.05817174911499,3.1531636714935303
1759336134904324600,5.41732470703125,7.41753625869751,4.0533833503723145,3.1699230670928955
1759336134914324700,5.42732470703125,7.944260597229004,4.120420932769775,3.359065055847168
1759336134924325400,5.437325439453125,7.917924404144287,3.976768970489502,3.4524388313293457
1759336134934325500,5.447325439453125,8.248324394226074,4.230554580688477,3.4596214294433594
1759336134944325600,5.45732568359375,8.7175874710083,4.273650169372559,3.5960910320281982
1759336134954325500,5.467325439453125,8.844480514526367,4.252102375030518,3.6822822093963623
1759336134964325600,5.47732568359375,8.822932243347168,4.28322696685791,3.7038300037384033
