seconds_elapsed,acc_z,acc_y,acc_x,grav_z,grav_y,grav_x,gyro_z,gyro_y,gyro_x
4.04026611328125,-0.3793126208305358,2.1055051297962666,-0.0760397219769656,5.634585264873504,-7.965313693028688,-0.9877340762164444,0.1250601708889007,-0.001036501256749,-0.8694993257522583
4.05032421875,-0.0167097272604703,2.325563592737913,0.0577224864546209,5.566020262691378,-8.012989636439084,-0.9908625104352832,0.0139957051724195,-0.0761954337358474,-0.8500015139579773
4.06038134765625,0.2765922510683536,2.547868373301625,-0.0046417613912373,5.49852201295793,-8.06036864272952,-0.9834156284954398,-0.0947542190551757,-0.058526873588562,-0.8436752557754517
4.070439453125,0.5449743076741695,2.586847800037265,-0.1754323355559259,5.429905572849512,-8.108325741168857,-0.9703427964325994,-0.1920823752880096,0.0233906265348196,-0.844688892364502
4.0804970703125,1.4910966358900068,2.4572382543057203,-0.5582654586628079,5.360809240269661,-8.155438205477594,-0.9596583938762544,-0.2142594903707504,0.2342290878295898,-0.8168972730636597
4.09055419921875,3.2505174607187506,1.6685750172555445,-1.6424404590457675,5.29124529017806,-8.199956561639905,-0.9663413057062774,-0.109947994351387,0.5311177968978882,-0.7808977365493774
4.1006123046875,4.957517777958512,0.2546001994907856,-2.490848262962699,5.223525506648421,-8.239711064401268,-0.9961569635815918,0.0262529850006103,0.6752858757972717,-0.7122420072555542
4.110670166015625,4.283296912646294,-1.4706138198316097,-2.491732060059905,5.154496394085884,-8.278574755802751,-1.0328321319628506,0.1364786624908447,0.391110897064209,-0.8432193398475647
4.120728271484375,0.7749129441171884,-2.445258478176594,-0.773545235960558,5.0742707647264,-8.325206743118166,-1.055026281983778,0.0477932766079902,0.1985928267240524,-0.9828182458877563
4.13078515625,0.8977098872244358,-1.943689012464881,1.3320336166590452,4.993821848005056,-8.372477028337121,-1.0647808563441037,-0.0763151198625564,0.2354308366775512,-0.8511202335357666
4.140843505859375,1.816197189539671,-1.4860358453691005,1.561763578787446,4.927520114579797,-8.412041561484337,-1.0618241984955965,-0.186664804816246,0.0667536780238151,-0.6970691084861755
4.150901123046875,0.4702797166958451,-2.319959196859598,1.1756664123833178,4.869687518814206,-8.448411097982525,-1.0396456113699823,-0.2615833282470703,-0.1902108341455459,-0.6945236921310425
4.160959228515625,-0.924061887577176,-3.816070446041226,0.2359563623625785,4.81329197011441,-8.485486152401567,-0.9995568351529538,-0.345589280128479,-0.396408200263977,-0.6845149993896484
4.17101611328125,0.3250958774745464,-3.7451474825561046,0.1284799571797251,4.765275834964216,-8.519000883990525,-0.942957580574602,-0.4913662075996399,-0.4656022489070892,-0.5296528935432434
4.181074462890625,2.189830011168122,-2.7725854757040738,0.226496533165127,4.728664598664641,-8.547199973514676,-0.8691899682480841,-0.6406254768371582,-0.5978889465332031,-0.4597308337688446
4.19113232421875,1.200452186332643,-2.1199527573436496,-0.3467951566506177,4.689433242994546,-8.577638950920104,-0.7769830283895135,-0.7486075162887573,-0.7645776867866516,-0.6096946001052856
4.201190185546875,-0.6135889942169189,-1.2643792995810508,-0.6187659584634005,4.630610174886882,-8.618436240732668,-0.6711101128805428,-0.8179996609687805,-0.8311468362808228,-0.8913427591323853
4.2112470703125,-0.4378405053839087,0.1009510220021009,-0.6188734374258666,4.545991279004514,-8.671144917613267,-0.5617672197060659,-0.8543371558189392,-0.7334843873977661,-1.1611377000808716
4.22130517578125,0.2701636793255806,0.7591308530956506,-0.0735236840354278,4.439081056337058,-8.732570569434762,-0.4551460431130603,-0.8923894762992859,-0.6002137064933777,-1.3454729318618774
4.23136328125,0.0452630370497703,0.9921166021496056,0.7353599552772939,4.316972095493972,-8.79841053056717,-0.3494446117134764,-0.9672831296920776,-0.4952475726604461,-1.4746294021606443
4.241421142578125,-1.0727116493433713,0.797312407451868,1.607754637850821,4.181133299984038,-8.867418600341678,-0.2396182093383744,-1.0595643520355225,-0.4354675710201263,-1.6153886318206787
4.251478271484375,-1.2411714424729348,0.1980553054481744,2.21196629352197,4.031014926970005,-8.938986291471123,-0.1258684686402324,-1.1293983459472656,-0.3210311532020569,-1.7528445720672607
4.2615361328125,-0.7248579966157674,-0.4813485154598951,2.554914200159907,3.867846225985884,-9.011660482537746,-0.0109254242210066,-1.1900813579559326,-0.1888491511344909,-1.8605358600616453
4.27159423828125,-0.6727320880591869,-1.0448533360809087,2.758286024455726,3.695561029349267,-9.083068599191307,0.1053286982302088,-1.244699001312256,-0.0864521935582161,-1.9152945280075075
4.281652099609375,-0.7955459823012352,-1.577360376369953,2.687235342937708,3.519249645936489,-9.150757987582685,0.2211211602697148,-1.245218276977539,0.0065613691695034,-1.920798182487488
4.291709228515625,-0.7237702013790607,-1.7218495113253591,2.5503575597688557,3.3439249354735017,-9.212918383419511,0.33270993267484,-1.2017987966537476,0.0904643312096595,-1.8737599849700928
4.301767333984375,-0.6017547640383243,-1.4982231267690658,2.2214389091357587,3.174624015344679,-9.26835210134983,0.4356758746959269,-1.1105352640151978,0.1912475079298019,-1.7800638675689695
4.311825439453125,-0.7158762332588434,-1.070837672165036,2.0699594769015905,3.0135616389900446,-9.317155002963542,0.5286470403926447,-1.0416374206542969,0.2788998484611511,-1.6921167373657229
4.321883056640625,-0.8278419857501983,-0.5133516734421253,2.192266882926225,2.86022021227628,-9.36003669783473,0.6158323161642998,-1.0157029628753662,0.3339295983314514,-1.6096960306167605
4.331940185546875,-0.8908557835459708,-0.0065863926529884,2.109383724795282,2.7146388981699943,-9.39723917802572,0.7021572122469544,-1.0124642848968506,0.3171639442443847,-1.5243043899536133
4.341998291015625,-0.9798246913313864,0.434783163639903,1.905301121881604,2.5770564738631245,-9.428900975224376,0.7905698013238608,-1.015493869781494,0.2485493421554565,-1.4271080493927002
4.35205615234375,-1.1513847885638475,0.6527373477786779,1.693750667305291,2.44739622085765,-9.45531844202876,0.881811695542559,-1.0009183883666992,0.1228942275047302,-1.338409662246704
4.36211328125,-1.4336515781372785,0.5379167903780937,1.7196853190287946,2.32459372479245,-9.477117601382732,0.9751382870808244,-0.9837066531181335,-0.0377336740493774,-1.2462575435638428
4.37217138671875,-1.6421318314880131,0.3505494676828384,1.4988208004012702,2.2091085660032928,-9.494453936108949,1.070307072419673,-0.9410350918769836,-0.2343974709510803,-1.1429308652877808
4.382229248046875,-1.6751412439033389,-0.0001736030012369,1.056349858737737,2.1013088471502064,-9.50794820845425,1.1635238469079137,-0.8707433938980103,-0.3940514028072357,-1.0391806364059448
4.392287109375,-1.7819053360983728,-0.3867939164966344,0.6903821649096906,2.000525290669501,-9.518316457733512,1.2529613951183856,-0.809863805770874,-0.5419950485229492,-0.9479215145111084
4.40234423828125,-1.8954117421604693,-0.6753910781353711,0.2845481785088777,1.905736736819893,-9.52615197366476,1.3382713420048356,-0.7214030623435974,-0.6379070281982422,-0.8749082684516907
4.41240234375,-1.811777035009861,-1.291570673367381,-0.0384941274367272,1.8155182673648,-9.532615616720914,1.4154593572340906,-0.6482713222503662,-0.6225118041038513,-0.8277833461761475
4.42246044921875,-1.8711216427735984,-1.7340274403750895,-0.1391346221849322,1.7276196191594004,-9.538024197766184,1.4872199405871331,-0.6238678693771362,-0.6085121631622314,-0.8231692910194397
4.43251806640625,-1.898643417558074,-1.7970125965982675,-0.3618333705022931,1.6387227536968887,-9.54267465392053,1.5563902151860296,-0.6032041311264038,-0.6245212554931641,-0.8342121243476868
4.442574951171875,-1.806550386402756,-1.5960294210046528,-0.6384640538848936,1.5484255199171602,-9.546285245633126,1.625174413076788,-0.6128236651420593,-0.6884953379631042,-0.8250666260719299
4.45263330078125,-1.6397335381746292,-1.3634656967550516,-0.9579412146948276,1.4582234170749782,-9.548258591532706,1.6955049636267123,-0.6201769113540649,-0.73894864320755,-0.8031493425369263
4.462691162109375,-1.1683889687262474,-1.0949509536802768,-1.3472526669703424,1.3693522705756127,-9.548623333191872,1.7660883198939263,-0.6290591359138489,-0.723132312297821,-0.7750035524368286
4.472749267578125,-0.6843839474081993,-0.9335065922707318,-1.8033413612283768,1.2835330589927731,-9.54770972547829,1.834166561472416,-0.582345187664032,-0.7075603008270264,-0.7439015507698059
4.48280615234375,-0.4922340666115283,-1.3082394840955731,-2.5595707937940952,1.1995711657144128,-9.546771567845344,1.8948805578932164,-0.4855983555316925,-0.7567811012268066,-0.722744882106781
4.4928642578125,-0.5090938698671758,-1.817200229102373,-3.350999111643433,1.1151263842899353,-9.547477670288083,1.9423108559794724,-0.305582046508789,-0.8612072467803955,-0.7109560966491699
4.502922119140625,-0.258453513918072,-1.686362602880597,-3.747545191347599,1.0286378951434043,-9.550522444811463,1.9747880612142383,-0.1701808273792266,-0.9168662428855896,-0.7208840847015381
4.512980224609375,-0.1182101998388767,-1.196973988828063,-3.799029879391193,0.9392715855382382,-9.555684942141175,1.9942508865751325,-0.0474164225161075,-0.9750077724456788,-0.7450910210609436
4.523038330078125,-0.1869522390883415,-0.5540256291359663,-3.4779818160027265,0.8461061028458178,-9.562525017294288,2.0031535933464766,0.0373924747109413,-0.9935742616653442,-0.7772233486175537
4.533095458984375,-0.2456505848377942,0.0462391886055469,-2.8808219785392284,0.7496301804311573,-9.570373977228998,2.0040952581107616,0.1051848381757736,-0.9781981706619264,-0.8090535402297974
4.5431533203125,-0.129821142655611,0.6397083548575639,-2.2088950693830847,0.6520563067119568,-9.579058803465962,1.996708654990792,0.1751860231161117,-0.8128795027732849,-0.8386399149894714
4.553211181640625,-0.1159814178735017,1.1929963173687457,-1.3669620144382115,0.554120467812568,-9.588713351517915,1.9798774933077397,0.2594698965549469,-0.4580743312835693,-0.9336250424385072
4.563269287109375,-0.3783248519022018,1.490011178740859,-0.8562031339682639,0.4528442324440926,-9.599769583061336,1.9518495225667956,0.3395713865756988,-0.140997052192688,-1.0344401597976685
4.573326171875,-0.1491571632990613,1.6442834565639497,-0.1896056031413376,0.3501207574093714,-9.61083925860822,1.9182189095132047,0.3587857484817505,-0.0854030027985572,-1.0420782566070557
4.58338427734375,0.4207839009145274,2.0916157206535337,0.3646520811848342,0.2495926917933859,-9.62063292286992,1.8845510331891475,0.3449258804321289,-0.1719677150249481,-0.9787336587905884
4.593442138671875,1.1161100615650414,2.60451789676249,0.3576939326100051,0.154911543841008,-9.629256374308468,1.850358840730041,0.3811935186386108,-0.2321035861968994,-0.8958463072776794
4.603500244140625,1.4202175115466118,2.4326041637867686,-0.2270994674943387,0.0665816874443786,-9.6382545042783,1.8083198802933096,0.5023055672645569,-0.2539763748645782,-0.8498860001564026
4.61355712890625,0.8783633817195892,1.879163056540489,-0.8989312457129359,-0.0224367654210538,-9.649095631766318,1.7506686324439942,0.6915604472160339,-0.1258927285671234,-0.924578070640564
4.623615234375,0.7755027267038822,1.0374258164286614,-1.2084173199929296,-0.1167978944886941,-9.661789109122752,1.6752866437233984,0.8505341410636902,0.0969025418162345,-1.0008374452590942
4.633673095703125,1.1397323446929457,0.0813303757309913,-0.7821523938514292,-0.2115305077668279,-9.674747959417104,1.5889984994545578,0.9147063493728638,0.2288377583026886,-0.9961351752281188
4.6437314453125,1.46846862449646,-0.7494745514780282,0.2080810249000787,-0.2999482479428872,-9.685654553356766,1.5061675099022689,0.7780283689498901,0.3964738845825195,-0.914535641670227
4.653788330078125,1.9920716428399088,-1.180229774776101,1.4575417184211312,-0.3753872640803456,-9.69258815201223,1.4433325758047402,0.5389763116836548,0.4677518606185913,-0.7586742639541626
4.66384716796875,1.9624737924337383,-1.4061235197424888,1.6367166745714845,-0.4337763246849179,-9.6959392160058,1.4039194338269532,0.3033308088779449,0.3387312889099121,-0.5587092041969299
4.673905029296875,1.533801805150509,-1.4908897151410578,1.6349249688491223,-0.4784074205067008,-9.696615507832169,1.384612237419188,0.1282891631126403,0.1303997039794922,-0.4492277204990387
4.683963134765625,0.5517712012726813,-1.115346675977111,1.4956035919204351,-0.5227416157411411,-9.695071785521506,1.379383542985469,-0.0125968586653471,0.0578192360699176,-0.4942572116851806
4.69402001953125,0.0991103625714778,-0.3609130407869815,1.6040060989722609,-0.5731622912824154,-9.691292851504684,1.3859028617516158,-0.1074946671724319,0.0413088947534561,-0.5473591089248657
4.704078125,0.3371989877223968,0.0452905095785856,1.0766713467545808,-0.6258498523097485,-9.686590372902154,1.3959402716413138,-0.0866824686527252,0.0140562308952212,-0.5337414145469666
4.714135986328125,0.464375826414302,0.3710106564313173,0.2606919404946267,-0.6753647746503353,-9.682658878672122,1.4001356775045397,0.0029882928356528,-0.0600222572684288,-0.4718101322650909
4.724194091796875,0.2618646375358104,0.7863508684545755,-0.2381076221123337,-0.719157081560418,-9.680361123123763,1.3942076026298105,0.1029923260211944,-0.0997723564505577,-0.4057401716709137
4.7342509765625,0.1158149022001773,1.0113035331785678,-0.390660821057856,-0.7571616719145328,-9.679659112334251,1.3788672640264032,0.1951659321784973,-0.0788348466157913,-0.3490393459796905
4.74430908203125,0.1717044741392135,1.1318196718722582,-0.3612269290417432,-0.78836118536368,-9.68016706185639,1.357663878608495,0.2194570749998092,-0.0142854489386081,-0.278691828250885
4.7543671875,0.3005236732106656,1.2657616938501597,-0.4077858511209488,-0.8125839186027646,-9.680932785531878,1.3377838507488369,0.1874786466360092,0.0615810863673687,-0.227892056107521
4.7644248046875,0.1921265729863196,1.0025427190959453,-0.6280588335961103,-0.8321269695930182,-9.681223292911053,1.3235744158715008,0.1110727563500404,0.0950972139835357,-0.1981521546840667
4.774482177734375,0.144895962190628,0.6370026030302047,-0.7227370589390396,-0.8495388537734746,-9.68035118625164,1.3188931261874737,0.0016554496251046,0.1444445103406906,-0.1971984803676605
4.7845400390625,0.134701900434494,0.3302373320162296,-0.8256902145437895,-0.86747717298083,-9.677799163681268,1.325928723912686,-0.1162246540188789,0.1787613481283188,-0.2166669219732284
4.79459814453125,0.0595265402019023,0.0223714062839746,-0.9920968745358288,-0.8870224889934062,-9.673547935977576,1.3438947348445651,-0.2218799740076065,0.1724408566951751,-0.2357069253921508
4.804656005859375,-0.0194400290071964,-0.0534650482058525,-1.1022893337443471,-0.9092112321868538,-9.66759224244356,1.371637020511925,-0.309247761964798,0.1895044893026352,-0.2725184857845306
4.81471337890625,0.1209387480199336,0.0323737448602914,-1.2530473198361691,-0.9346685487221926,-9.660206808367372,1.406126734612882,-0.3557686507701874,0.219758003950119,-0.3115516304969787
4.82477099609375,0.4506722221672534,0.2129372327595949,-1.352221395293623,-0.9630316697016358,-9.65192764032185,1.4433506959833204,-0.3674821555614471,0.21128511428833,-0.3335078656673431
4.8348291015625,0.8983493541717529,0.4855903908133506,-1.223043080586195,-0.9923213309414683,-9.643111881181596,1.4819161350905894,-0.3864609003067016,0.2024905532598495,-0.3279402554035187
4.844886962890625,1.326612176132202,0.7275783614903688,-0.9977629374735056,-1.020303416714072,-9.633858315145968,1.5225420138590038,-0.4100963473320007,0.1995508372783661,-0.3115598261356354
4.8549453125,1.4884861611306666,0.7301642863303422,-0.8700161168739199,-1.0467555164404212,-9.62417395647764,1.5652321316808462,-0.427444726228714,0.1980229765176773,-0.3008933365345001
4.865002197265625,1.4373229601264,0.5924626195579766,-0.8124902489699423,-1.072955468036607,-9.613964112630486,1.6096097641982137,-0.4449264407157898,0.2140399515628814,-0.3118359446525574
4.875059814453125,1.332996324211359,0.3650625616818666,-0.7397497146688401,-1.1007586901109665,-9.602940029790997,1.655980762489885,-0.462349385023117,0.2458897680044174,-0.3418130278587341
4.8851181640625,1.0860976390086114,-0.016874562433362,-0.7376222011208534,-1.1311381193488836,-9.591057868817447,1.7036827171243727,-0.4660167992115021,0.2468772679567337,-0.3750974535942077
4.895176025390625,0.7294879945039748,-0.5769710359156132,-0.8766333430565894,-1.1646340001069009,-9.57863385605216,1.7503671652793884,-0.4468073546886444,0.1654942333698272,-0.3912308514118194
4.905233154296875,0.3344588221687823,-1.2850064925462006,-1.1646407221086323,-1.2008604018073528,-9.566412672382592,1.7922208322770892,-0.3934434652328491,0.0521487556397914,-0.4003527164459228
4.915291015625,0.0246701847456395,-1.835001843252778,-1.3608463080368935,-1.238829409391433,-9.55496481117308,1.8271170813523232,-0.3244741261005401,0.0347807444632053,-0.4031647443771362
4.92534912109375,-0.2345208496667444,-2.176061013534665,-1.3693608922734857,-1.276369743234664,-9.544454523074627,1.855982525830716,-0.2571539282798767,0.1038210615515708,-0.4030894041061401
4.935406982421875,-0.6974633553422988,-2.3810347200691697,-1.4359126549370589,-1.3120203178085386,-9.534908111572266,1.8800372090265156,-0.2137446850538253,0.180276408791542,-0.3922617435455322
4.945464111328125,-1.0073591794669627,-2.2277269033640623,-1.160563243536651,-1.3447941679023203,-9.525558683946729,1.9041124966189265,-0.2350755482912063,0.2942021787166595,-0.3879370391368866
4.95552197265625,-1.1449648385189473,-1.7695763081401583,-0.4101971500463783,-1.3753808832153678,-9.514594806861878,1.9367996913425625,-0.3471048772335052,0.4602614641189575,-0.4047650396823883
4.965580322265625,-1.377275026398897,-1.175932954365015,0.5345696719072759,-1.4047873027026652,-9.500411383208633,1.984729024992138,-0.5125811696052551,0.5085919499397278,-0.4118381440639496
4.97563818359375,-1.9044063649989664,-1.0758101998806,1.2136952603958546,-1.4341582124851644,-9.482619705930352,2.047806097282469,-0.6652714014053345,0.4247837960720062,-0.4050154387950897
4.985695068359375,-2.197555490853637,-1.2991472461014986,1.6641263672836124,-1.4645255859591066,-9.461741168552637,2.1215552241042257,-0.7554715871810913,0.3474994003772735,-0.4005762338638305
4.9957529296875,-2.0055938261054456,-1.9139415244549511,1.944299983970076,-1.4942797959707677,-9.439063472798466,2.20036221883744,-0.7900028228759766,0.3014680743217468,-0.3638491630554199
5.00581103515625,-1.1857213579297066,-2.9967730012744664,2.091509776061028,-1.5170327489182351,-9.41701296903193,2.277908253724128,-0.7459447979927063,0.3282072842121124,-0.2585922479629516
5.015869140625,-0.0899510506905615,-4.302154173329472,2.4488117867439985,-1.526284707518667,-9.397169619920849,2.352460659752786,-0.7541822195053101,0.3123229444026947,-0.0900774300098419
5.025927001953125,0.8959903699554502,-5.570768334001302,3.3863626859694715,-1.517584391451627,-9.378775885096193,2.430200463645905,-0.7761452794075012,0.3392584323883056,0.1134983301162719
5.035984130859375,1.988514242619276,-7.038672310352325,3.124429367111623,-1.4894731263414025,-9.362806162548065,2.507930038405955,-0.7436160445213318,0.465544193983078,0.2646033465862274
5.0460419921875,2.7690871121942995,-7.43160019955933,2.6263547577783464,-1.4459918581418691,-9.349209598872063,2.582979141910374,-0.6650235056877136,0.6571589112281799,0.351635992527008
5.05610009765625,3.4901825414061545,-6.530359800121188,1.5798071850001811,-1.3888219640687107,-9.339158160457014,2.6498499073952435,-0.5356385111808777,0.7814797759056091,0.4659341871738434
5.066157958984375,3.789089500135183,-4.709615614801645,0.1162161034122109,-1.3161786065317689,-9.334023720178008,2.704452435198426,-0.3937314450740814,0.8434213995933533,0.6151196956634521
5.076215087890625,3.7212042969107615,-3.1002614327996967,-0.9474109067216516,-1.227344431041926,-9.334024304699897,2.7459046817883848,-0.2654263079166412,0.8323602676391602,0.7933750748634338
5.086273193359375,3.330811479139328,-2.341822653621435,-1.764112782037258,-1.120813855341822,-9.3388869423002,2.7747648655697703,-0.1567679196596145,0.7027983069419861,1.0228662490844729
5.0963310546875,2.8087971912920477,-1.8233195887655016,-2.419187632852793,-0.995638565730676,-9.34817499512732,2.791186423538625,-0.050604473799467,0.5463583469390869,1.266278862953186
5.106388916015625,2.3916952302932737,-1.3192431086689234,-2.921096998043358,-0.8523732734818011,-9.361289912766216,2.7946526383444663,0.0744238719344139,0.436544269323349,1.4825174808502195
5.11644580078125,2.0435387952268123,-0.8067863382399082,-3.287257876355946,-0.6936576794490218,-9.37754838912785,2.784026322650909,0.2187227308750152,0.3636596798896789,1.6416021585464478
5.126504150390625,1.6173919425070284,-0.5806593690395355,-3.4813907476633785,-0.5244389211783186,-9.395978948831557,2.7587907591074705,0.3631810843944549,0.3904905319213867,1.7132939100265503
5.13656201171875,1.2932663713693615,-0.8408002515226602,-3.331093510951101,-0.3502507404645905,-9.415210888046026,2.720571503089368,0.4772866070270538,0.5148303508758545,1.6982142925262451
5.1466201171875,1.0782219371974469,-1.451500538560748,-2.844548303630948,-0.1759073326565325,-9.433586502692105,2.673362592668832,0.5477089881896973,0.6810110211372375,1.64036762714386
5.15667724609375,1.17666945194602,-2.2003268552631137,-1.9878180770486595,-0.0018643693851845,-9.450008060660958,2.620635503348708,0.5652150511741638,0.9548391103744508,1.5623540878295898
5.166735107421875,1.1473901659697294,-2.5990298207402227,-1.3611293627619745,0.1712164531602524,-9.464005606353282,2.56391642178297,0.6281223297119141,1.1674004793167114,1.499886393547058
5.17679296875,0.7991156574815511,-2.994600333410501,-0.9708619249358772,0.3448639693923294,-9.477544302362205,2.4955191773831844,0.7412153482437134,1.2282265424728394,1.5076617002487185
5.18685107421875,0.3258072040816769,-2.510389414256811,-0.3192567960575223,0.5197948947647586,-9.49054640727639,2.4144825239017607,0.840395450592041,1.2343013286590576,1.5181920528411863
5.1969091796875,-0.3108446492820978,-1.7388702042311428,0.3243282541029155,0.6957126392174512,-9.50205622780621,2.323209723088145,0.8990616798400879,1.3571465015411377,1.5257519483566284
5.20696630859375,-0.5709229148577898,-1.2706219933629035,0.9067498105093836,0.8758845705159009,-9.510619473490118,2.225165528443456,0.9042105674743652,1.4986572265625,1.563261866569519
5.21702392578125,-0.8562110250137746,-0.911342691257596,1.5268005480863154,1.06181294644922,-9.514060553854703,2.1273498818576333,0.8130950331687927,1.5867139101028442,1.6198077201843262
5.22708203125,-0.8320990586727857,-0.8062146758317947,2.160364993361384,1.2545261602170763,-9.510250640177729,2.0375684886455536,0.6731773614883423,1.6295645236968994,1.7074369192123413
5.23714013671875,-0.3411133846871554,-1.108824580731988,2.526974638354778,1.455165198548138,-9.498537406030296,1.957215433514118,0.5302420258522034,1.7396928071975708,1.7765156030654907
5.247197021484375,0.0577725361414253,-1.5350018285900353,2.799807829150557,1.6593188208714127,-9.47982335321009,1.884148735998571,0.4083390533924103,1.875155568122864,1.7529722452163696
5.257255126953125,-0.0176139826238155,-1.9381331319034096,2.7283143723011016,1.855911944812536,-9.457070254132152,1.813785452222824,0.3708606660366058,1.978769898414612,1.6082284450531006
5.26731298828125,-0.3605810323536396,-2.2315607824385166,2.1385992978855968,2.0342774842761457,-9.43493499469161,1.7361169600002466,0.4593423306941986,1.9285786151885984,1.4083739519119265
5.27737109375,-0.8487503337442874,-1.5791706406623125,1.720378561989963,2.18950340956226,-9.415901792919636,1.6484128114536405,0.6130721569061279,1.5528030395507812,1.2335394620895386
5.287428955078125,-1.7571496650263667,-0.5132523047208786,0.5603922415584326,2.31829082525596,-9.40188554252684,1.5493481877200304,0.8755378723144531,1.0420801639556885,1.0452613830566406
5.297486083984375,-2.08755680065155,-0.2857365115106106,-1.2180183842919765,2.419901918601989,-9.395816451746224,1.4258650159142912,1.3183609247207642,0.8051788806915283,0.8107572197914124
5.307544189453125,-1.6895973470181225,-1.025052072545886,-3.097926267850399,2.4977900449246166,-9.400349419000744,1.250949032382667,1.855231523513794,1.1971663236618042,0.5736191868782043
5.31760205078125,-1.130210190849006,-1.7426830405175684,-2.5405396378487346,2.560296769981086,-9.41115547517538,1.0224664399668573,2.1412625312805176,1.710273027420044,0.4062834680080414
5.327659912109375,-1.846987756861746,-1.6351187378555536,-0.4673486316800117,2.612234462489188,-9.420704809287187,0.7726094164151698,2.110123634338379,1.8388009071350095,0.3629343807697296
5.337717041015625,-2.297513556295633,-1.1864274603724478,0.7298829121056943,2.662779239334166,-9.423028283798692,0.535303064215742,1.94858717918396,1.5086196660995483,0.4888134300708771
5.347775146484375,-1.8618375354692336,-0.8113321649760007,0.4984506761040538,2.724946941694617,-9.41505014452636,0.3191691177740693,1.931406021118164,0.9641971588134766,0.7091367244720459
5.357833251953125,-1.6061477871760723,-1.0266273590385913,-0.2999196977018378,2.8026497745782137,-9.396977896741031,0.1110771422217134,2.03079891204834,0.5457159876823425,0.8953831791877747
5.36789111328125,-1.200782441200316,-1.265356035658717,-0.1115242923341691,2.8960268541947007,-9.368789328610896,-0.0958734356100205,2.1010758876800537,0.2801786065101623,1.0804038047790527
5.377947998046875,-1.045181252861023,-1.22930038741529,0.5305256572134792,3.004386106626689,-9.33032603470385,-0.2984376424505375,2.0759003162384038,0.077018529176712,1.2301747798919678
5.388006103515625,-1.5089303987443443,-0.8027244956284761,0.7671664216436446,3.1256150697648524,-9.282400500446558,-0.487792978891544,1.99198853969574,-0.1203371584415435,1.3491672277450562
5.39806396484375,-1.539700507800281,-0.6351812328219414,0.9147892515148968,3.252602158038318,-9.22758169954419,-0.6653432929821312,1.9116381406784055,-0.0924980565905571,1.341753363609314
5.4081220703125,-1.932558546641469,-0.4858247840911149,1.2849670373186468,3.3729701204329725,-9.1701401489228,-0.8378498042192309,1.882975459098816,-0.0718685537576675,1.2469775676727295
5.41818017578125,-2.2682149810969827,-0.4793447744220495,1.466848037557304,3.4793820381894704,-9.112125766849518,-1.0165884147789328,2.00644326210022,0.0541706010699272,1.0662730932235718
5.4282373046875,-2.729028365789353,-0.1279939272284507,2.0009166280746458,3.57732364924252,-9.0518235661,-1.1990085633955896,2.044140100479126,-0.2251220196485519,1.078894853591919
5.438294921875,-3.097935035678744,0.4432043705046176,2.6103625311374663,3.683467271451652,-8.984669599759577,-1.3704657847754655,2.016324520111084,-0.4800977408885956,1.1630460023880005
5.44835302734375,-3.039208705943823,0.5005342774450778,2.8043934033751485,3.803707223552465,-8.908970507913827,-1.527236455285549,1.9754585027694704,-0.7468439936637878,1.330805420875549
5.4584111328125,-2.3906731937691568,0.6616261721551417,2.60196295158267,3.943162748254836,-8.822860496690868,-1.667027057161182,1.888527989387512,-0.9204289317131042,1.4884047508239746
5.46846826171875,-2.133672070616484,1.328919284030795,2.4999741109654305,4.100807717381418,-8.727001829391718,-1.7869509290501475,1.7777230739593506,-1.112390398979187,1.6688847541809082
5.478526123046875,-2.242555931444466,1.9103455457895997,2.240628908904642,4.270893358147144,-8.623087865930795,-1.8900278571650384,1.6981513500213623,-1.1798455715179443,1.7292282581329346
5.488583984375,-2.34798643694818,2.091709244155884,2.0581587106011807,4.434383253909648,-8.51684808987081,-1.9924678025506437,1.7486252784729004,-0.9335283041000366,1.5740790367126465
5.49864208984375,-2.7289322119385004,2.841308883318305,2.383653085874021,4.587281613031029,-8.41156926779747,-2.091111570523679,1.6425065994262695,-1.120965838432312,1.539745807647705
5.508698974609375,-3.071448595291376,4.161265108692646,2.550958740532398,4.744546642929316,-8.305927457630634,-2.161302274211496,1.4369502067565918,-1.3845477104187012,1.552849292755127
5.518757080078125,-2.984315670761466,4.846037763157487,2.343512944795936,4.904315764603019,-8.202558853092789,-2.1991126571677624,1.1774799823760986,-1.5546481609344482,1.521897792816162
5.52881494140625,-2.962894697070121,5.592998870509863,1.9899663411237296,5.058868612933159,-8.105414237636328,-2.2091854306317864,0.955681085586548,-1.4956183433532717,1.3980560302734375
5.538873046875,-2.6526141114115718,5.752551719084382,1.812247721261531,5.196003877994418,-8.018962865629792,-2.2063931695647536,0.7838675379753113,-1.3292392492294312,1.2111585140228271
5.548930908203125,-2.4366367803037163,5.820319433408975,1.4724256915591656,5.3138686253964895,-7.944125943571328,-2.196372418548912,0.6279202699661255,-1.1914231777191162,1.0277836322784424
5.558988037109375,-2.2612778753101823,5.825732690629363,1.388877201387286,5.411748569390177,-7.881903003892302,-2.181507442372292,0.4958986043930053,-1.0049632787704468,0.81929612159729
5.5690458984375,-2.124754604667425,5.59173396514058,1.282744246702641,5.486962508067489,-7.833604544669389,-2.1675513977341354,0.4112606942653656,-0.8047285676002502,0.581044614315033
5.579104248046875,-2.173846844616532,5.261370960918069,1.2150322080880402,5.538297558507323,-7.799822686576843,-2.158796575000882,0.3512354493141174,-0.6061108112335205,0.3366290032863617
5.589162109375,-2.1708722127199174,4.93267910477817,1.3068378006041048,5.566448717236519,-7.780731617137789,-2.155283013921976,0.3144204914569855,-0.4551118910312652,0.0934710055589675
5.59921923828125,-2.1054484311729667,4.672309089714289,1.075099713523686,5.572701347890496,-7.775493716484307,-2.158027051933109,0.2975808084011078,-0.3037857413291931,-0.1395025998353958
5.609277099609375,-1.803770838686824,4.143425500619411,0.7257752575911581,5.5595250554531805,-7.782612024056911,-2.166336468986421,0.2701044082641601,-0.2064023166894912,-0.3301471173763275
5.619335205078125,-1.6444909618347885,3.80849211974144,0.5249558942571282,5.530878806683421,-7.800374475240707,-2.1757579389348627,0.2254908680915832,-0.1495542228221893,-0.4988279938697815
5.62939306640625,-1.550532575199008,3.478400333675742,0.4092129613146185,5.48869444642663,-7.82746706482768,-2.1852616803392766,0.1919616758823394,-0.1128726378083229,-0.6414613127708435
5.639451171875,-1.344628309816122,3.328095790439844,0.4940134973742067,5.436617637708783,-7.862114599838852,-2.191053269352764,0.1139139831066131,-0.1188947409391403,-0.7380293011665344
5.64950830078125,-0.9142232151299714,3.3610032037854194,0.670556351455301,5.378361848095059,-7.902504477894306,-2.189527521090209,0.0106405895203351,-0.1284834444522857,-0.7945327758789062
5.65956591796875,-0.5157657488465309,3.602201485389471,0.7023185402885079,5.316588405749202,-7.947228001239895,-2.178493355248124,-0.1233356073498725,-0.1145116686820983,-0.8170030117034912
5.6696240234375,-0.204548174598813,3.972073493179679,0.4609172834582626,5.252872597163916,-7.995380914512276,-2.1567605391286317,-0.2539103925228119,-0.1318411231040954,-0.8515034914016724
5.679681884765625,0.0449438880980014,4.122058302941918,-0.0905744432859122,5.184291812890768,-8.04765119997561,-2.128102453790605,-0.2902489006519317,-0.0733711868524551,-0.8990968465805054
5.689739013671875,2.284989005765319,3.545950021335482,-1.8065987555891276,5.112196298494935,-8.098374840518831,-2.11001603134945,-0.1731169521808624,0.1454570293426513,-0.8481665253639221
5.699797119140625,5.176191508543491,1.5691741473048924,-3.674988489180803,5.041064076173305,-8.14035929428935,-2.119578224942833,0.0293031893670558,0.4707224369049072,-0.7414373159408569
5.70985498046875,4.506778920295834,-1.6277888333588837,-5.343809005630016,4.961241182395815,-8.178112978622316,-2.162163274955004,0.3931346535682678,0.7150291204452515,-1.0604623556137085
5.719912841796875,-0.2578442959785461,-4.009945835456252,-4.311154641386866,4.843339025592804,-8.232804353752732,-2.221125313141942,0.2618835866451263,0.2370649576187133,-1.3897433280944824
5.729970947265625,-1.0488754312038422,-1.9230425302773717,-0.7428766145177185,4.741482286922634,-8.292118127986788,-2.2202472151331603,-0.2013666331768036,-0.149104043841362,-1.0604381561279297
5.740028076171875,2.6789216881006954,-0.7649035912781953,-0.5777697850778699,4.667087555673718,-8.341292785522342,-2.1935187826834617,-0.3415601551532745,-0.0319828391075134,-0.7747873663902283
5.750086181640625,2.5572172164052724,-0.7149024197906255,0.1826490620017051,4.609376248200237,-8.383811492300033,-2.1530771744407717,-0.4529463350772857,-0.2999999225139618,-0.7048615217208862
5.76014404296875,0.0761409903943538,-2.696688230937719,1.0826819853462275,4.557985960441828,-8.427670507770776,-2.0903417551949617,-0.5638348460197449,-0.5398064851760864,-0.7208510637283325
5.7702021484375,-0.6535907497376203,-4.535472515338659,1.3336799225613474,4.5121462925478815,-8.472076635730266,-2.0086955915130678,-0.726559042930603,-0.6416231393814087,-0.6259767413139343
5.780259033203125,1.2732125943779944,-4.408607299879193,1.819808950296044,4.479455444562435,-8.512749422380328,-1.90734709462598,-0.9083843231201172,-0.7561615705490112,-0.4717540144920349
5.79031689453125,1.5855916136205197,-3.831778302782774,1.7499658910021183,4.454529677620529,-8.55192992464602,-1.786626957792789,-1.0124411582946775,-0.9303986430168152,-0.5006663203239441
5.800375,0.1223018530666828,-2.953953265723586,1.1616221049398183,4.420995364548266,-8.595826349517703,-1.654378880251199,-1.0625648498535156,-0.9605053067207336,-0.6693218350410461
5.81043310546875,-0.6087257720947266,-1.726497629392147,0.6113287941999733,4.369118754577636,-8.646680338442325,-1.5218734669476746,-1.0422565937042236,-0.8780660629272461,-0.8635850548744202
5.820490966796875,-0.1385515615999698,-0.1801180822193622,0.5533018449060618,4.298476946121454,-8.702819574293494,-1.3980061181299388,-1.0254650115966797,-0.6572050452232361,-1.0197783708572388
5.8305478515625,-0.2570762342154979,0.7881319066524505,0.9183166219234468,4.207209698265791,-8.764564375066756,-1.285377810076624,-1.0124090909957886,-0.4459774196147918,-1.2338200807571411
5.84060595703125,-1.325493401235342,1.1965163081884382,1.511093275866657,4.092292694753408,-8.833570691275597,-1.179646129669249,-1.0351223945617676,-0.2868799269199371,-1.4641590118408203
5.8506640625,-1.061147468277812,1.4531249248921871,2.039999807445705,3.954989087387919,-8.90881853222251,-1.0776801584709437,-1.0640850067138672,-0.1397764831781387,-1.6574440002441406
5.86072216796875,-0.4780541500896215,1.4925146859943863,2.470902037999034,3.799410110880434,-8.987861089277267,-0.97632135938555,-1.1531730890274048,0.046029333025217,-1.8080955743789675
5.870779052734375,-0.7021677336409687,1.2222393629878758,2.83587282974422,3.628629765848815,-9.068935444420577,-0.8705324688982218,-1.2813040018081665,0.2064671963453292,-1.9215610027313232
5.8808369140625,-1.027550903624296,0.531039890345931,3.00237125967294,3.4471906641587613,-9.14956731649339,-0.7567598861806094,-1.4194483757019043,0.3464650213718414,-1.9824973344802856
5.89089501953125,-1.0621583988860248,-0.1005950481712818,3.092312519621849,3.2604844357207416,-9.227064982193708,-0.6331682855643331,-1.5330350399017334,0.4371850490570068,-1.995226621627808
5.900953125,-0.8716901875659823,-0.6823895587205886,2.970849163205921,3.0728593388721346,-9.299187384596468,-0.5030258019998669,-1.5790592432022097,0.5269317030906677,-1.9695369005203247
5.911010009765625,-0.4932438281759619,-1.13770931443274,2.762255220347643,2.8890917942345142,-9.36400852407515,-0.3726924355057999,-1.5644099712371826,0.6287599205970764,-1.8870670795440676
5.92106787109375,-0.4435089064091443,-1.421858264490962,2.5284993637040256,2.714409181067347,-9.420283953526615,-0.2462266128937713,-1.4995518922805786,0.6914238333702087,-1.764500379562378
5.9311259765625,-0.3954454249858856,-1.6167285101622342,2.3489111505776643,2.552920688255131,-9.467676988342404,-0.1267928260766901,-1.4040606021881104,0.706537663936615,-1.6030136346817017
5.941183837890625,-0.4810246903330087,-1.7697370516598223,2.39665343722254,2.407608692609519,-9.506503854864835,-0.0138241812947497,-1.3183683156967163,0.6284090280532837,-1.4334890842437744
5.951241943359375,-0.6700031014867126,-1.8345307186096904,2.401774579628557,2.2780083530977366,-9.537926582610607,0.0949289030352141,-1.2280246019363403,0.4635987877845764,-1.2754086256027222
5.961298828125,-0.6971883377932012,-1.7874977492779491,2.432313802538067,2.1625892452821134,-9.563111877271531,0.2011582581658847,-1.1826744079589844,0.3267887234687805,-1.1446170806884766
5.971357177734375,-0.7373200033038854,-1.568566829061508,2.506688806173205,2.058320915425569,-9.583325813260672,0.3058995758290402,-1.108864665031433,0.2258433997631073,-1.0334999561309814
5.9814150390625,-1.0249668784804642,-1.394175307795405,2.149377735400945,1.9666363189406693,-9.598651977208256,0.4106223897211253,-1.1126328706741333,-0.0502904430031776,-0.8637082576751709
5.991472900390625,-1.3094979597240686,-0.9351613737404346,1.9958578833803533,1.890241207654774,-9.60860346238017,0.5216451257413253,-1.1209627389907837,-0.2915685176849365,-0.7041746377944946
6.00152978515625,-1.229481004679203,-0.6354436831504107,1.6778201077237724,1.826535043680668,-9.613834348770975,0.6390188382234424,-1.1566836833953855,-0.4765522181987762,-0.5689422488212585
6.011588134765625,-1.438540519222617,-0.5093868614643812,1.1680438816156238,1.7726811422877014,-9.6149437713176,0.7621314962163567,-1.1746336221694946,-0.6627772450447083,-0.4659700691699981
6.02164599609375,-1.6224217533677816,-0.4751689500421285,0.4881775577623397,1.7256718460924922,-9.612650107422471,0.888488396827504,-1.1612650156021118,-0.8429534435272217,-0.377016931772232
6.0317041015625,-1.6821442545332013,-0.4427618874341249,-0.0626988866277039,1.6840892511211334,-9.607497546964884,1.014992523889616,-1.121926188468933,-0.9982389211654664,-0.3023980855941772
6.041761962890625,-1.658329079181701,-0.5201064083993434,-0.5739676163159311,1.645459952997416,-9.600482699766754,1.1373531944714486,-1.047547459602356,-1.081836819648743,-0.2690037488937378
