time,seconds_elapsed,z,y,x
1759440618386548700,0.066548828125,1.0031704902648926,-6.718429088592529,-7.142202854156494
1759440618426574800,0.106574951171875,1.381454348564148,-6.70645809173584,-7.132626056671143
1759440618436574700,0.11657470703125,1.2976573705673218,-6.84053373336792,-7.144597053527832
1759440618446574800,0.126574951171875,1.2545616626739502,-6.881235122680664,-7.127837657928467
1759440618456574700,0.13657470703125,1.1228805780410767,-6.876446723937988,-7.106289863586426
1759440618466574600,0.14657470703125,0.9888052940368652,-6.890811920166016,-7.075165271759033
1759440618476574700,0.15657470703125,0.8331822156906128,-6.948272705078125,-7.05601167678833
1759440618486574600,0.16657470703125,0.7110779285430908,-7.005733489990234,-7.020098686218262
1759440618496574700,0.17657470703125,0.6631938815116882,-7.048829078674316,-6.993762493133545
1759440618506574600,0.18657470703125,0.8331822156906128,-6.73997688293457,-6.881235122680664
1759440618516574700,0.19657470703125,0.7493851184844971,-6.993762493133545,-6.921936511993408
1759440618526574600,0.20657470703125,0.7589619159698486,-7.125443458557129,-6.907571315765381
1759440618536574700,0.21657470703125,0.8738836050033569,-7.170933246612549,-6.8932061195373535
1759440618546575000,0.2265751953125,1.0007762908935547,-7.168539047241211,-6.9602437019348145
1759440618556575200,0.2365751953125,1.158793568611145,-7.108684062957764,-7.0033392906188965
1759440618566575000,0.2465751953125,1.2473790645599365,-6.97700309753418,-7.017704486846924
1759440618576575200,0.2565751953125,1.213860273361206,-6.878840923309326,-7.05601167678833
1759440618586575000,0.2665751953125,1.115697979927063,-6.838139533996582,-7.039252281188965
1759440618596575200,0.2765751953125,0.9888052940368652,-6.866869926452637,-7.039252281188965
1759440618606575000,0.2865751953125,0.8523358106613159,-6.876446723937988,-7.05601167678833
1759440618616575200,0.2965751953125,0.9552865028381348,-6.811803340911865,-7.0464348793029785
1759440618626575000,0.3065751953125,1.070208191871643,-6.8070149421691895,-6.9817914962768555
1759440618636575200,0.3165751953125,1.0606313943862915,-6.864475727081299,-7.039252281188965
1759440618646575000,0.3265751953125,1.1755530834197998,-6.888417720794678,-7.048829078674316
1759440618659859200,0.339859130859375,1.2114660739898682,-6.88602352142334,-7.0248870849609375
1759440618669859300,0.349859375,1.1803414821624756,-6.821380138397217,-6.991368293762207
1759440618679859200,0.359859130859375,1.1420341730117798,-6.79743766784668,-7.005733489990234
1759440618689859300,0.369859375,1.1109095811843872,-6.814197540283203,-7.058405876159668
1759440618699859200,0.379859130859375,1.072602391242981,-6.826168537139893,-7.079953670501709
1759440618709859300,0.389859375,1.0438719987869263,-6.852504730224609,-7.0464348793029785
1759440618719859200,0.399859130859375,1.0342950820922852,-6.888417720794678,-7.012916088104248
1759440618729859300,0.409859375,1.0319008827209473,-6.876446723937988,-6.969820499420166
1759440618739859200,0.419859130859375,1.039083480834961,-6.888417720794678,-7.017704486846924
1759440618749859300,0.429859375,1.0534487962722778,-6.883629322052002,-7.005733489990234
1759440618759859200,0.439859130859375,1.1037269830703735,-6.900388717651367,-7.034463882446289
1759440618769859300,0.449859375,1.1300631761550903,-6.929119110107422,-7.065588474273682
1759440618779859200,0.459859130859375,1.1348515748977661,-6.97700309753418,-7.058405876159668
1759440618789859300,0.469859375,1.1085153818130493,-6.957849502563477,-7.012916088104248
1759440618799859200,0.479859130859375,1.0678139925003052,-6.9363017082214355,-6.979397296905518
1759440618809859300,0.489859375,1.070208191871643,-6.87405252456665,-6.953061103820801
1759440618819859200,0.499859130859375,1.0295066833496094,-6.876446723937988,-6.969820499420166
1759440618829859300,0.509859375,1.0079588890075684,-6.864475727081299,-6.988974094390869
1759440618839859200,0.519859130859375,0.9983820915222168,-6.883629322052002,-7.032069683074951
1759440618849859000,0.529859130859375,1.0654197931289673,-6.847716331481934,-7.0679826736450195
1759440618859859000,0.53985888671875,1.0606313943862915,-6.857293128967285,-7.048829078674316
1759440618869859000,0.549859130859375,1.048660397529602,-6.852504730224609,-7.029675483703613
1759440618879859000,0.55985888671875,1.05105459690094,-6.7806782722473145,-7.008127689361572
1759440618889859000,0.569859130859375,1.1085153818130493,-6.790255069732666,-6.950666904449463
1759440618899859000,0.57985888671875,1.2856862545013428,-6.93151330947876,-6.902782917022705
1759440618909859000,0.589859130859375,1.1013327836990356,-6.991368293762207,-6.945878505706787
1759440618919859000,0.59985888671875,1.173158884048462,-6.986579895019531,-6.945878505706787
1759440618929859000,0.609859130859375,1.1683704853057861,-6.646603107452393,-6.842927932739258
1759440618939859000,0.61985888671875,0.9576807022094727,-6.768707275390625,-6.905177116394043
1759440618949859000,0.629859130859375,0.8954314589500427,-6.88602352142334,-6.917148113250732
1759440618959859000,0.63985888671875,0.9002198576927185,-7.039252281188965,-6.917148113250732
1759440618969859000,0.649859130859375,1.0055646896362305,-7.14699125289917,-6.9363017082214355
1759440618979859000,0.65985888671875,1.0558429956436157,-7.247547626495361,-6.9817914962768555
1759440618989859000,0.669859130859375,1.0055646896362305,-7.269095420837402,-6.988974094390869
1759440618999859000,0.67985888671875,0.9361328482627869,-7.228394031524658,-6.888417720794678
1759440619009859000,0.689859130859375,0.8619126081466675,-7.1350202560424805,-6.857293128967285
1759440619019859000,0.69985888671875,0.7613561153411865,-7.036858081817627,-6.9147539138793945
1759440619029859000,0.709859130859375,0.6727706789970398,-6.943484306335449,-6.988974094390869
1759440619039859000,0.71985888671875,0.6703764796257019,-6.9147539138793945,-7.012916088104248
1759440619049859000,0.729859130859375,0.7829039692878723,-6.897994518280029,-7.044040679931641
1759440619059859000,0.73985888671875,0.9265560507774353,-6.902782917022705,-7.087136268615723
1759440619069859000,0.749859130859375,0.9792284965515137,-6.912359714508057,-7.044040679931641
1759440619079859000,0.75985888671875,1.015141487121582,-6.912359714508057,-7.015310287475586
1759440619089859000,0.769859130859375,1.0247182846069336,-6.902782917022705,-6.957849502563477
1759440619099859000,0.77985888671875,1.0127472877502441,-6.905177116394043,-6.895600318908691
1759440619109859000,0.789859130859375,1.0271124839782715,-6.926724910736084,-6.895600318908691
1759440619119859000,0.79985888671875,1.0199298858642578,-6.988974094390869,-6.921936511993408
1759440619129859000,0.809859130859375,1.01753568649292,-6.993762493133545,-6.943484306335449
1759440619139859000,0.81985888671875,1.070208191871643,-7.044040679931641,-6.9817914962768555
1759440619149859000,0.829859130859375,1.0845733880996704,-7.008127689361572,-6.979397296905518
1759440619159859000,0.83985888671875,1.072602391242981,-7.008127689361572,-6.984185695648193
1759440619169859000,0.849859130859375,1.0223240852355957,-7.008127689361572,-6.933907508850098
1759440619179859000,0.85985888671875,1.0031704902648926,-6.998550891876221,-6.900388717651367
1759440619189859000,0.869859130859375,0.9792284965515137,-6.996156692504883,-6.883629322052002
1759440619199859000,0.87985888671875,0.9792284965515137,-7.000945091247559,-6.888417720794678
1759440619209859000,0.889859130859375,1.0079588890075684,-7.005733489990234,-6.9363017082214355
1759440619219859000,0.89985888671875,1.0223240852355957,-6.998550891876221,-7.000945091247559
1759440619229859000,0.909859130859375,1.0678139925003052,-7.0033392906188965,-7.063194274902344
1759440619239859000,0.91985888671875,1.0678139925003052,-7.005733489990234,-7.096713066101074
1759440619249859000,0.929859130859375,1.072602391242981,-6.950666904449463,-7.096713066101074
1759440619259859000,0.93985888671875,1.1037269830703735,-6.890811920166016,-7.034463882446289
1759440619269859000,0.949859130859375,1.091755986213684,-6.852504730224609,-6.986579895019531
1759440619279859000,0.95985888671875,1.0678139925003052,-6.8501105308532715,-7.0033392906188965
1759440619289859000,0.969859130859375,1.0127472877502441,-6.876446723937988,-7.032069683074951
1759440619299859000,0.97985888671875,0.9864110946655273,-6.905177116394043,-7.063194274902344
1759440619309859000,0.989859130859375,0.9911994934082031,-6.948272705078125,-7.058405876159668
1759440619319859000,0.99985888671875,0.9792284965515137,-6.969820499420166,-7.032069683074951
1759440619329859000,1.009859130859375,0.9768342971801758,-6.938695907592773,-6.974608898162842
1759440619339859000,1.01985888671875,0.9600749015808105,-6.957849502563477,-6.945878505706787
1759440619349859000,1.029859130859375,0.9169792532920837,-6.9602437019348145,-6.909965515136719
1759440619359859000,1.03985888671875,0.8954314589500427,-6.957849502563477,-6.907571315765381
1759440619369859000,1.049859130859375,0.8882488012313843,-6.988974094390869,-6.883629322052002
1759440619379859000,1.05985888671875,0.8834604024887085,-7.0224928855896,-6.883629322052002
1759440619389859000,1.069859130859375,0.8643068075180054,-7.0224928855896,-6.881235122680664
1759440619399859200,1.079859130859375,0.8571242094039917,-7.015310287475586,-6.912359714508057
1759440619409859000,1.089859130859375,0.8571242094039917,-7.005733489990234,-6.907571315765381
1759440619419859200,1.099859130859375,0.8427590131759644,-6.988974094390869,-6.91954231262207
1759440619429859000,1.109859130859375,0.8188169598579407,-6.972214698791504,-6.8932061195373535
1759440619439859200,1.119859130859375,0.7972691655158997,-6.984185695648193,-6.902782917022705
1759440619449859000,1.129859130859375,0.7924807667732239,-6.986579895019531,-6.909965515136719
1759440619459859200,1.139859130859375,0.8451532125473022,-7.000945091247559,-6.926724910736084
1759440619469859000,1.149859130859375,0.9050082564353943,-7.032069683074951,-6.926724910736084
1759440619479859200,1.159859130859375,0.8978256583213806,-7.034463882446289,-6.912359714508057
1759440619489859000,1.169859130859375,0.8690952062606812,-7.027281284332275,-6.890811920166016
1759440619499858700,1.179858642578125,0.8810662031173706,-7.008127689361572,-6.878840923309326
1759440619509858800,1.18985888671875,0.8906430602073669,-7.017704486846924,-6.900388717651367
1759440619519858700,1.199858642578125,0.8379706144332886,-7.0248870849609375,-6.905177116394043
1759440619529858800,1.20985888671875,0.8020575642585754,-6.991368293762207,-6.933907508850098
1759440619539858700,1.219858642578125,0.8092401623725891,-6.988974094390869,-6.962637901306152
1759440619549858800,1.22985888671875,0.8834604024887085,-6.988974094390869,-7.0033392906188965
1759440619559858700,1.239858642578125,0.8595184087753296,-6.972214698791504,-7.005733489990234
1759440619569858800,1.24985888671875,0.871489405632019,-6.9817914962768555,-7.039252281188965
1759440619579858700,1.259858642578125,0.8523358106613159,-6.943484306335449,-7.053617477416992
1759440619589858800,1.26985888671875,0.8595184087753296,-6.96503210067749,-7.005733489990234
1759440619599858700,1.279858642578125,0.8834604024887085,-6.948272705078125,-6.967426300048828
1759440619609858800,1.28985888671875,0.8858546018600464,-6.962637901306152,-6.953061103820801
1759440619619858700,1.299858642578125,0.8906430602073669,-6.969820499420166,-6.902782917022705
1759440619629858800,1.30985888671875,0.8954314589500427,-7.008127689361572,-6.9147539138793945
1759440619639858700,1.319858642578125,0.9002198576927185,-7.048829078674316,-6.926724910736084
1759440619649858800,1.32985888671875,0.8930372595787048,-7.058405876159668,-6.929119110107422
1759440619659858700,1.339858642578125,0.8667010068893433,-7.063194274902344,-6.955455303192139
1759440619669858600,1.349858642578125,0.8595184087753296,-7.065588474273682,-6.926724910736084
1759440619679858700,1.359858642578125,0.8307880163192749,-7.041646480560303,-6.912359714508057
1759440619689858600,1.369858642578125,0.8259995579719543,-7.041646480560303,-6.87405252456665
1759440619699858700,1.379858642578125,0.828393816947937,-7.0464348793029785,-6.847716331481934
1759440619709858600,1.389858642578125,0.8379706144332886,-7.0464348793029785,-6.881235122680664
1759440619719858700,1.399858642578125,0.8571242094039917,-7.015310287475586,-6.933907508850098
1759440619729858600,1.409858642578125,0.849941611289978,-7.017704486846924,-6.957849502563477
1759440619739858700,1.419858642578125,0.8619126081466675,-7.0033392906188965,-6.998550891876221
1759440619749858600,1.429858642578125,0.8906430602073669,-7.000945091247559,-7.008127689361572
1759440619759858700,1.439858642578125,0.9313444495201111,-7.005733489990234,-6.979397296905518
1759440619769858600,1.449858642578125,0.9241618514060974,-6.984185695648193,-6.929119110107422
1759440619779858700,1.459858642578125,0.9193734526634216,-6.991368293762207,-6.8932061195373535
1759440619789858600,1.469858642578125,0.9193734526634216,-6.97700309753418,-6.9147539138793945
1759440619799859000,1.47985888671875,0.9265560507774353,-6.988974094390869,-6.933907508850098
1759440619809859000,1.489859130859375,0.9169792532920837,-6.967426300048828,-6.9817914962768555
1759440619819859000,1.49985888671875,0.8882488012313843,-6.953061103820801,-7.027281284332275
1759440619829859000,1.509859130859375,0.8690952062606812,-6.93151330947876,-7.039252281188965
1759440619839859000,1.51985888671875,0.8762778043746948,-6.926724910736084,-7.05601167678833
1759440619849859000,1.529859130859375,0.8930372595787048,-6.924330711364746,-7.017704486846924
1759440619859859000,1.53985888671875,0.9002198576927185,-6.917148113250732,-6.97700309753418
1759440619869859000,1.549859130859375,0.9289502501487732,-6.96503210067749,-6.950666904449463
1759440619879859000,1.55985888671875,0.9193734526634216,-6.9602437019348145,-6.929119110107422
1759440619889859000,1.569859130859375,0.9050082564353943,-6.955455303192139,-6.9147539138793945
1759440619899859000,1.57985888671875,0.8882488012313843,-6.993762493133545,-6.943484306335449
1759440619909859000,1.589859130859375,0.8810662031173706,-6.993762493133545,-6.909965515136719
1759440619919859000,1.59985888671875,0.8906430602073669,-7.0464348793029785,-6.938695907592773
1759440619929859000,1.609859130859375,0.8930372595787048,-7.0224928855896,-6.979397296905518
1759440619939859000,1.61985888671875,0.871489405632019,-7.01052188873291,-6.998550891876221
1759440619949859000,1.629859130859375,0.8619126081466675,-6.988974094390869,-6.996156692504883
1759440619959859200,1.639859130859375,0.8690952062606812,-6.998550891876221,-7.000945091247559
1759440619969859000,1.649859130859375,0.9193734526634216,-6.996156692504883,-6.974608898162842
1759440619979858700,1.659858642578125,0.9720458984375,-6.9602437019348145,-6.962637901306152
1759440619989858800,1.66985888671875,0.9552865028381348,-6.933907508850098,-6.96503210067749
1759440619999858700,1.679858642578125,0.9409212470054626,-6.905177116394043,-6.993762493133545
1759440620009858800,1.68985888671875,0.9074024558067322,-6.8932061195373535,-7.0248870849609375
1759440620019858700,1.699858642578125,0.8930372595787048,-6.866869926452637,-7.0033392906188965
1759440620029858800,1.70985888671875,0.9074024558067322,-6.845322132110596,-6.974608898162842
1759440620039858700,1.719858642578125,0.9169792532920837,-6.902782917022705,-6.955455303192139
1759440620049858800,1.72985888671875,0.9313444495201111,-6.957849502563477,-6.93151330947876
1759440620059858700,1.739858642578125,0.9600749015808105,-6.9817914962768555,-6.912359714508057
1759440620069858800,1.74985888671875,0.9552865028381348,-7.027281284332275,-6.905177116394043
1759440620079858700,1.759858642578125,0.9265560507774353,-7.0033392906188965,-6.909965515136719
1759440620089858800,1.76985888671875,0.8930372595787048,-7.041646480560303,-6.900388717651367
1759440620099858700,1.779858642578125,0.9074024558067322,-7.032069683074951,-6.909965515136719
1759440620109858800,1.78985888671875,0.9217676520347595,-7.029675483703613,-6.900388717651367
1759440620119858700,1.799858642578125,0.9696516990661621,-7.0224928855896,-6.88602352142334
1759440620129858800,1.80985888671875,0.9720458984375,-6.998550891876221,-6.902782917022705
1759440620139858700,1.819858642578125,0.9768342971801758,-6.9817914962768555,-6.924330711364746
1759440620149858800,1.82985888671875,0.9624691009521484,-6.953061103820801,-6.9147539138793945
1759440620159858700,1.839858642578125,0.9576807022094727,-6.929119110107422,-6.9147539138793945
1759440620169858800,1.84985888671875,0.9720458984375,-6.924330711364746,-6.909965515136719
1759440620179858700,1.859858642578125,0.9720458984375,-6.905177116394043,-6.8932061195373535
1759440620189858600,1.869858642578125,0.9720458984375,-6.897994518280029,-6.888417720794678
1759440620199858700,1.879858642578125,0.9576807022094727,-6.88602352142334,-6.876446723937988
1759440620209858600,1.889858642578125,0.9672574996948242,-6.890811920166016,-6.881235122680664
1759440620219858700,1.899858642578125,1.0079588890075684,-6.8932061195373535,-6.888417720794678
1759440620229858600,1.909858642578125,1.039083480834961,-6.864475727081299,-6.878840923309326
1759440620239858700,1.919858642578125,1.0845733880996704,-6.87405252456665,-6.897994518280029
1759440620249858600,1.929858642578125,1.0893617868423462,-6.878840923309326,-6.912359714508057
1759440620259858700,1.939858642578125,1.3311761617660522,-6.469432353973389,-6.795043468475342
1759440620269858600,1.949858642578125,1.2641384601593018,-6.572382926940918,-6.7351884841918945
1759440620279859000,1.95985888671875,1.0821791887283325,-6.79743766784668,-6.742371082305908
1759440620289859000,1.969859130859375,0.9744400978088379,-6.905177116394043,-6.696881294250488
1759440620299859000,1.97985888671875,0.9528923034667969,-6.8932061195373535,-6.680121898651123
1759440620309859000,1.989859130859375,0.9696516990661621,-6.979397296905518,-6.737582683563232
1759440620319859000,1.99985888671875,1.036689281463623,-7.051223278045654,-6.773495674133301
1759440620329859000,2.009859130859375,1.0654197931289673,-7.106289863586426,-6.778284072875977
1759440620339859000,2.01985888671875,1.0414776802062988,-7.05601167678833,-6.783072471618652
1759440620349859000,2.029859130859375,0.9552865028381348,-6.991368293762207,-6.766313076019287
1759440620359859000,2.03985888671875,0.9361328482627869,-6.948272705078125,-6.725611686706543
1759440620369859000,2.049859130859375,0.9983820915222168,-6.924330711364746,-6.69448709487915
1759440620379859000,2.05985888671875,1.170764684677124,-6.881235122680664,-6.639420509338379
1759440620389859000,2.069859130859375,1.314416766166687,-6.847716331481934,-6.586748123168945
1759440620399859000,2.07985888671875,1.3287819623947144,-6.84053373336792,-6.543652534484863
1759440620409859000,2.089859130859375,1.3335703611373901,-6.866869926452637,-6.522104740142822
1759440620419859000,2.09985888671875,1.2761094570159912,-6.902782917022705,-6.522104740142822
1759440620429859000,2.109859130859375,1.2449848651885986,-6.941090106964111,-6.541258335113525
1759440620439859000,2.11985888671875,1.2689268589019775,-6.902782917022705,-6.572382926940918
1759440620449859000,2.129859130859375,1.3311761617660522,-6.876446723937988,-6.613084316253662
1759440620459859000,2.13985888671875,1.455674648284912,-6.845322132110596,-6.632237911224365
1759440620469859000,2.149859130859375,1.5131354331970215,-6.8285627365112305,-6.608295917510986
1759440620479859000,2.15985888671875,1.482010841369629,-6.75194787979126,-6.6035075187683105
1759440620489859000,2.169859130859375,1.41257905960083,-6.711246490478516,-6.519710540771484
1759440620499859000,2.17985888671875,1.314416766166687,-6.728005886077881,-6.47900915145874
1759440620509859000,2.189859130859375,1.3335703611373901,-6.672939300537109,-6.3880295753479
1759440620519859000,2.19985888671875,1.5203180313110352,-6.615478515625,-6.344933986663818
1759440620529859000,2.209859130859375,1.6184803247451782,-6.610690116882324,-6.323386192321777
1759440620539859000,2.21985888671875,1.5705963373184204,-6.6274495124816895,-6.352116584777832
1759440620549859000,2.229859130859375,1.601720929145813,-6.665756702423096,-6.459855556488037
1759440620559859000,2.23985888671875,1.6160861253738403,-6.70645809173584,-6.596324920654297
1759440620569859000,2.249859130859375,1.4748282432556152,-6.773495674133301,-6.680121898651123
1759440620579859000,2.25985888671875,1.1516109704971313,-6.857293128967285,-6.629843711853027
1759440620589859000,2.269859130859375,1.1228805780410767,-6.852504730224609,-6.6705451011657715
1759440620599859000,2.27985888671875,1.4293384552001953,-6.720823287963867,-6.859687328338623
1759440620609859000,2.289859130859375,1.8579005002975464,-6.558017730712891,-6.945878505706787
1759440620619859000,2.29985888671875,2.1092917919158936,-6.43351936340332,-6.8932061195373535
1759440620629859000,2.309859130859375,2.011129379272461,-6.3640875816345215,-6.783072471618652
1759440620639859200,2.319859130859375,1.845929503440857,-6.366481781005859,-6.708852291107178
1759440620649859000,2.329859130859375,1.5442601442337036,-6.371270179748535,-6.653785705566406
1759440620659859200,2.339859130859375,1.4724340438842773,-6.378452777862549,-6.6705451011657715
1759440620669859000,2.349859130859375,1.6376339197158813,-6.323386192321777,-6.759130477905273
1759440620679859200,2.359859130859375,1.8291701078414917,-6.378452777862549,-6.84053373336792
1759440620699859000,2.37985888671875,1.8076223134994507,-6.234800338745117,-6.792649269104004
1759440620709859000,2.389859130859375,1.4963760375976562,-6.091148376464844,-6.625055313110352
1759440620719859000,2.39985888671875,1.2545616626739502,-5.880458831787109,-6.443096160888672
1759440620729859000,2.409859130859375,1.3000515699386597,-5.585971832275391,-6.421548366546631
1759440620739859000,2.41985888671875,1.4245500564575195,-5.2986674308776855,-6.52449893951416
1759440620749859000,2.429859130859375,1.479616641998291,-5.001786708831787,-6.720823287963867
1759440620759859000,2.43985888671875,1.4389152526855469,-4.89644193649292,-6.78546667098999
1759440620769859000,2.449859130859375,1.2832920551300049,-4.817133903503418,-6.754342079162598
1759440620779859000,2.45985888671875,1.1468225717544556,-4.702212333679199,-6.754342079162598
1759440620789859000,2.469859130859375,1.0678139925003052,-4.580107688903809,-6.883629322052002
1759440620799859000,2.47985888671875,1.2401964664459229,-4.458003520965576,-7.077559471130371
1759440620809859000,2.489859130859375,1.53707754611969,-4.350264549255371,-7.22599983215332
1759440620819859000,2.49985888671875,1.577778935432434,-4.244919776916504,-7.293037414550781
1759440620829859000,2.509859130859375,1.7357962131500244,-4.10366153717041,-7.362469673156738
1759440620839859000,2.51985888671875,1.9536685943603516,-3.971980571746826,-7.494150638580322
1759440620849859000,2.529859130859375,1.98958158493042,-3.97916316986084,-7.527669429779053
1759440620859859000,2.53985888671875,1.8363527059555054,-3.9432501792907715,-7.412747859954834
1759440620869859000,2.549859130859375,1.7741034030914307,-3.8594532012939453,-7.484573841094971
1759440620879859000,2.55985888671875,1.7717092037200928,-3.845088005065918,-7.582736015319824
1759440620889859000,2.569859130859375,1.6927006244659424,-3.93367338180542,-7.659350395202637
1759440620899859000,2.57985888671875,1.6831238269805908,-4.055777549743652,-7.721599578857422
1759440620909859000,2.589859130859375,1.5921441316604614,-4.271255970001221,-7.635408401489258
1759440620919859000,2.59985888671875,1.6184803247451782,-4.520252704620361,-7.616254806518555
1759440620929859000,2.609859130859375,1.721431016921997,-4.754884719848633,-7.640196800231934
1759440620939859000,2.61985888671875,1.6136919260025024,-4.850652694702148,-7.609072208404541
1759440620949859000,2.629859130859375,1.2976573705673218,-4.913201332092285,-7.582736015319824
1759440620959859000,2.63985888671875,1.1492167711257935,-4.867412090301514,-7.613860607147217
1759440620969859000,2.649859130859375,1.0989385843276978,-4.790797710418701,-7.834127426147461
1759440620979859000,2.65985888671875,1.0773907899856567,-4.644751071929932,-8.269871711730957
1759440620989859000,2.669859130859375,1.2449848651885986,-4.594472885131836,-8.674491882324219
1759440620999859000,2.67985888671875,1.3958195447921753,-4.661510944366455,-8.980949401855469
1759440621009859000,2.689859130859375,1.6687586307525635,-4.745307922363281,-9.390357971191406
1759440621019859000,2.69985888671875,1.9153614044189453,-4.797980308532715,-9.6896333694458
1759440621029859000,2.709859130859375,2.10210919380188,-4.821922302246094,-10.020033836364746
1759440621039859000,2.71985888671875,2.1547815799713135,-4.766855716705322,-10.221146583557129
1759440621049859000,2.729859130859375,2.252943754196167,-4.5825018882751465,-10.285789489746094
1759440621059859000,2.73985888671875,2.410961151123047,-4.400542736053467,-10.180444717407227
1759440621069859000,2.749859130859375,2.6192567348480225,-4.256890773773193,-10.01524543762207
1759440621079859000,2.75985888671875,2.765302896499634,-4.197035789489746,-9.687239646911621
1759440621089859000,2.769859130859375,2.6024973392486572,-4.01268196105957,-9.299378395080566
1759440621099859000,2.77985888671875,2.363077163696289,-3.6798880100250244,-9.162909507751465
1759440621109859000,2.789859130859375,2.205059766769409,-3.4308910369873047,-9.148544311523438
1759440621119859000,2.79985888671875,2.0925323963165283,-3.2824504375457764,-9.277831077575684
1759440621129859000,2.809859130859375,1.968033790588379,-3.313575267791748,-9.31853199005127
1759440621139859000,2.81985888671875,1.824381709098816,-3.359065055847168,-9.416694641113281
1759440621149859000,2.829859130859375,1.802833914756775,-3.3638534545898438,-9.68005657196045
1759440621159859000,2.83985888671875,1.9776105880737305,-3.442862033843994,-9.806949615478516
1759440621169859000,2.849859130859375,2.2577321529388428,-3.4308910369873047,-9.83568000793457
1759440621179859000,2.85985888671875,2.4899697303771973,-3.318363666534424,-9.993697166442871
1759440621189859000,2.869859130859375,2.6408045291900635,-3.2130186557769775,-9.952995300292969
1759440621199859000,2.87985888671875,2.604891538619995,-3.117250680923462,-9.991303443908691
1759440621209859000,2.889859130859375,2.4588451385498047,-2.9735984802246094,-9.931447982788086
1759440621219859000,2.89985888671875,2.3750481605529785,-2.889801502227783,-9.828496932983398
1759440621229859000,2.909859130859375,2.1954829692840576,-2.7676970958709717,-9.76864242553711
1759440621239859000,2.91985888671875,2.078166961669922,-2.655169725418091,-9.809343338012695
1759440621249859000,2.929859130859375,2.0183119773864746,-2.63362193107605,-9.725546836853027
1759440621259859000,2.93985888671875,1.9105730056762695,-2.5115175247192383,-9.682451248168945
1759440621269859000,2.949859130859375,1.843535304069519,-2.3487119674682617,-9.727940559387207
1759440621279859000,2.95985888671875,1.8531121015548706,-2.190694570541382,-9.754277229309082
1759440621289859000,2.969859130859375,2.006340980529785,-2.094926595687866,-9.799766540527344
1759440621299859000,2.97985888671875,2.1308395862579346,-2.0183119773864746,-9.862015724182129
1759440621309859000,2.989859130859375,2.2194249629974365,-1.944091796875,-9.96017837524414
1759440621319859000,2.99985888671875,2.2433669567108154,-2.0470423698425293,-9.936236381530762
1759440621329859000,3.009859130859375,2.2409727573394775,-2.10210919380188,-9.921871185302734
1759440621339859000,3.01985888671875,2.2816741466522217,-2.1547815799713135,-9.955389976501465
1759440621349859000,3.029859130859375,2.3942017555236816,-2.248155355453491,-9.941024780273438
1759440621359859000,3.03985888671875,2.4205379486083984,-2.2385785579681396,-10.032004356384277
1759440621369859000,3.049859130859375,2.360682964324951,-2.2146365642547607,-10.070311546325684
1759440621379859000,3.05985888671875,2.31758713722229,-2.099714994430542,-10.094253540039062
1759440621389859000,3.069859130859375,2.367865562438965,-1.9584569931030273,-10.099041938781738
1759440621399859000,3.07985888671875,2.387019157409668,-1.800439715385437,-10.122983932495117
1759440621409859000,3.089859130859375,2.43011474609375,-1.5873557329177856,-10.173262596130371
1759440621419859000,3.09985888671875,2.4157495498657227,-1.4915876388549805,-10.113407135009766
1759440621429859000,3.109859130859375,2.408566951751709,-1.4844050407409668,-10.206781387329102
1759440621439859000,3.11985888671875,2.5258827209472656,-1.414973258972168,-10.273818969726562
1759440621449859000,3.129859130859375,2.583343744277954,-1.400607943534851,-10.362403869628906
1759440621459859000,3.13985888671875,2.760514497756958,-1.455674648284912,-10.455778121948242
1759440621469859000,3.149859130859375,2.942473888397217,-1.4413094520568848,-10.527604103088379
1759440621479859000,3.15985888671875,3.0406360626220703,-1.3215993642807007,-10.64970874786377
1759440621489859000,3.169859130859375,3.0358476638793945,-1.1827356815338135,-10.874763488769531
1759440621499859000,3.17985888671875,3.141192674636841,-1.0989385843276978,-11.061511039733887
1759440621509859000,3.189859130859375,3.445256233215332,-0.9624691009521484,-11.26023006439209
1759440621519859000,3.19985888671875,3.665522813796997,-0.7589619159698486,-11.3176908493042
1759440621529859000,3.209859130859375,3.648763418197632,-0.5554547905921936,-11.32966136932373
1759440621539859000,3.21985888671875,3.507505416870117,-0.363918662071228,-11.281777381896973
1759440621549859000,3.229859130859375,3.3949780464172363,-0.06224924325942993,-11.123760223388672
1759440621559859000,3.23985888671875,3.4117374420166016,0.23942017555236816,-10.783783912658691
1759440621569859000,3.249859130859375,3.550601005554199,0.5003881454467773,-10.228328704833984
1759440621579859000,3.25985888671875,3.620033025741577,0.7110779285430908,-9.818920135498047
1759440621589859000,3.269859130859375,3.603273630142212,0.8355764150619507,-9.428665161132812
1759440621599859000,3.27985888671875,3.4620156288146973,0.8523358106613159,-9.064746856689453
1759440621609859000,3.289859130859375,3.251325845718384,0.8307880163192749,-8.930671691894531
1759440621619859000,3.29985888671875,3.064578056335449,0.7852981686592102,-9.000102996826172
1759440621629859000,3.309859130859375,2.894589900970459,0.6703764796257019,-9.184456825256348
1759440621639859000,3.31985888671875,2.760514497756958,0.5363011956214905,-9.34965705871582
1759440621649859000,3.329859130859375,2.7269957065582275,0.42377370595932007,-9.481337547302246
1759440621659859000,3.33985888671875,2.7724854946136475,0.3016694188117981,-9.557952880859375
1759440621669859000,3.349859130859375,2.911349296569824,0.2537853717803955,-9.636960983276367
1759440621679859000,3.35985888671875,3.047818660736084,0.2537853717803955,-9.629778861999512
1759440621689859000,3.369859130859375,3.2106244564056396,0.31842881441116333,-9.641749382019043
1759440621699859000,3.37985888671875,3.337517261505127,0.31364041566848755,-9.660902976989746
1759440621709858800,3.38985888671875,3.383007049560547,0.3447650372982025,-9.687239646911621
1759440621719859000,3.39985888671875,3.35667085647583,0.33518823981285095,-9.696816444396973
1759440621729858800,3.40985888671875,3.287238836288452,0.33758243918418884,-9.692028045654297
1759440621739859000,3.41985888671875,3.1962592601776123,0.3256114423274994,-9.701604843139648
1759440621749858800,3.42985888671875,3.0550012588500977,0.304063618183136,-9.701604843139648
1759440621759859000,3.43985888671875,2.918531894683838,0.28730419278144836,-9.74709415435791
1759440621769858800,3.44985888671875,2.806004285812378,0.2992752194404602,-9.751882553100586
1759440621779859000,3.45985888671875,2.691082715988159,0.3256114423274994,-9.785401344299316
1759440621789858800,3.46985888671875,2.631227731704712,0.30885201692581177,-9.78061294555664
1759440621799859000,3.47985888671875,2.609679937362671,0.2825157940387726,-9.775824546813965
1759440621809858800,3.48985888671875,2.6240451335906982,0.24181437492370605,-9.775824546813965
1759440621819859000,3.49985888671875,2.6839001178741455,0.2106897532939911,-9.74470043182373
1759440621829858800,3.50985888671875,2.741360902786255,0.2346317619085312,-9.711181640625
1759440621839859000,3.51985888671875,2.8227639198303223,0.2298433631658554,-9.687239646911621
1759440621849858800,3.52985888671875,2.8826189041137695,0.2825157940387726,-9.641749382019043
1759440621859859000,3.53985888671875,2.9544448852539062,0.3064578175544739,-9.617807388305664
1759440621869858800,3.54985888671875,3.026270866394043,0.3423708379268646,-9.577106475830078
1759440621879859000,3.55985888671875,3.1004912853240967,0.3902548849582672,-9.560346603393555
1759440621889859000,3.569859130859375,3.1507694721221924,0.3998316824436188,-9.507674217224121
1759440621899859000,3.57985888671875,3.1938650608062744,0.4213795065879822,-9.490914344787598
1759440621909859000,3.589859130859375,3.246537446975708,0.4620809257030487,-9.457395553588867
1759440621919859000,3.59985888671875,3.268085241317749,0.45010992884635925,-9.435848236083984
1759440621929859000,3.609859130859375,3.315969467163086,0.47884035110473633,-9.390357971191406
1759440621939859000,3.61985888671875,3.3710360527038574,0.4812345504760742,-9.38317584991455
1759440621949859000,3.629859130859375,3.442862033843994,0.524330198764801,-9.34965705871582
1759440621959859000,3.63985888671875,3.507505416870117,0.5578489899635315,-9.340080261230469
1759440621969859000,3.649859130859375,3.552995204925537,0.5770025849342346,-9.347262382507324
1759440621979859000,3.65985888671875,3.5865142345428467,0.6224924325942993,-9.332897186279297
1759440621989859000,3.669859130859375,3.627215623855591,0.646434485912323,-9.320926666259766
1759440621999859000,3.67985888671875,3.6511576175689697,0.6344634294509888,-9.28261947631836
1759440622009859000,3.689859130859375,3.6774938106536865,0.646434485912323,-9.268254280090332
1759440622019859000,3.69985888671875,3.6822822093963623,0.629675030708313,-9.263465881347656
1759440622029859000,3.709859130859375,3.648763418197632,0.5722141861915588,-9.344868659973145
1759440622039859000,3.71985888671875,3.5913026332855225,0.5195417404174805,-9.419088363647461
1759440622049859000,3.729859130859375,3.557783842086792,0.4668693244457245,-9.438241958618164
1759440622059859000,3.73985888671875,3.507505416870117,0.4141969084739685,-9.431059837341309
1759440622069859000,3.749859130859375,3.514688014984131,0.3974374830722809,-9.3735990524292
1759440622079859000,3.75985888671875,3.507505416870117,0.3902548849582672,-9.308955192565918
1759440622089859000,3.769859130859375,3.469198226928711,0.40462008118629456,-9.222764015197754
1759440622099859000,3.77985888671875,3.4356794357299805,0.43335050344467163,-9.155726432800293
1759440622109858800,3.78985888671875,3.3470940589904785,0.4357447028160095,-9.093477249145508
1759440622119859000,3.79985888671875,3.3016040325164795,0.4836287498474121,-9.093477249145508
1759440622129858800,3.80985888671875,3.2848446369171143,0.48602294921875,-9.069535255432129
1759440622139859000,3.81985888671875,3.2417490482330322,0.5123591423034668,-9.110237121582031
1759440622149858800,3.82985888671875,3.251325845718384,0.5291185975074768,-9.182063102722168
1759440622159859000,3.83985888671875,3.3016040325164795,0.5386953949928284,-9.244312286376953
1759440622169858800,3.84985888671875,3.3925838470458984,0.5267243981361389,-9.308955192565918
1759440622179859000,3.85985888671875,3.421314239501953,0.5506663918495178,-9.366415977478027
1759440622189858800,3.86985888671875,3.4356794357299805,0.5339069962501526,-9.402329444885254
1759440622199858700,3.879858642578125,3.4165258407592773,0.5530605912208557,-9.44303035736084
1759440622209858800,3.88985888671875,3.3877954483032227,0.5746083855628967,-9.450213432312012
1759440622219858700,3.899858642578125,3.3638534545898438,0.5817909836769104,-9.493309020996094
1759440622229858800,3.90985888671875,3.3446998596191406,0.5793967843055725,-9.510068893432617
1759440622239858700,3.919858642578125,3.3207578659057617,0.5722141861915588,-9.486125946044922
1759440622249858800,3.92985888671875,3.3016040325164795,0.6009446382522583,-9.47654914855957
1759440622259858700,3.939858642578125,3.3039982318878174,0.6344634294509888,-9.450213432312012
1759440622269858800,3.94985888671875,3.28963303565979,0.6224924325942993,-9.419088363647461
1759440622279858700,3.959858642578125,3.28963303565979,0.6224924325942993,-9.390357971191406
1759440622289858800,3.96985888671875,3.294421434402466,0.6560112833976746,-9.368810653686523
1759440622299858700,3.979858642578125,3.2968156337738037,0.6320692300796509,-9.330503463745117
1759440622309858800,3.98985888671875,3.2848446369171143,0.6272808313369751,-9.306561470031738
1759440622319858700,3.999858642578125,3.2632968425750732,0.6488286852836609,-9.29458999633789
1759440622329859000,4.009859130859375,3.2561142444610596,0.6607996821403503,-9.304166793823242
1759440622339859000,4.01985888671875,3.2417490482330322,0.6655880808830261,-9.31613826751709
1759440622349859000,4.029859130859375,3.2417490482330322,0.6536170840263367,-9.323320388793945
1759440622359859000,4.03985888671875,3.2752678394317627,0.6727706789970398,-9.328108787536621
1759440622369859000,4.049859130859375,3.268085241317749,0.6607996821403503,-9.34965705871582
1759440622379859000,4.05985888671875,3.28963303565979,0.6488286852836609,-9.378387451171875
1759440622389859000,4.069859130859375,3.3039982318878174,0.6631938815116882,-9.378387451171875
1759440622399859200,4.079859130859375,3.31118106842041,0.6607996821403503,-9.397541046142578
1759440622409859000,4.089859130859375,3.2968156337738037,0.6536170840263367,-9.447818756103516
1759440622419859200,4.099859130859375,3.2752678394317627,0.6440402865409851,-9.455001831054688
1759440622429859000,4.109859130859375,3.294421434402466,0.6272808313369751,-9.450213432312012
1759440622439859200,4.119859130859375,3.3039982318878174,0.6057330369949341,-9.44063663482666
1759440622449859000,4.129859130859375,3.3231520652770996,0.5985504388809204,-9.375992774963379
1759440622459859200,4.139859130859375,3.337517261505127,0.586579442024231,-9.375992774963379
1759440622469859000,4.149859130859375,3.3470940589904785,0.5985504388809204,-9.340080261230469
1759440622479859200,4.159859130859375,3.3279404640197754,0.608127236366272,-9.311349868774414
1759440622489859000,4.169859130859375,3.3231520652770996,0.5961562395095825,-9.289801597595215
1759440622499859200,4.179859130859375,3.332728862762451,0.5841852426528931,-9.275436401367188
1759440622509859000,4.189859130859375,3.3303346633911133,0.569819986820221,-9.263465881347656
1759440622519859200,4.199859130859375,3.337517261505127,0.5674257874488831,-9.25867748260498
1759440622529859000,4.209859130859375,3.3303346633911133,0.5793967843055725,-9.270648002624512
1759440622539859200,4.219859130859375,3.3255462646484375,0.5889736413955688,-9.285013198852539
1759440622549859000,4.229859130859375,3.3518824577331543,0.5937620401382446,-9.320926666259766
1759440622559859000,4.23985888671875,3.3470940589904785,0.5961562395095825,-9.359233856201172
1759440622569858800,4.24985888671875,3.3494882583618164,0.608127236366272,-9.354445457458496
1759440622579859000,4.25985888671875,3.359065055847168,0.6177040338516235,-9.3735990524292
1759440622589858800,4.26985888671875,3.378218650817871,0.6033388376235962,-9.40951156616211
1759440622599859000,4.27985888671875,3.3662476539611816,0.6440402865409851,-9.411906242370605
1759440622609858800,4.28985888671875,3.3446998596191406,0.629675030708313,-9.404723167419434
1759440622619859000,4.29985888671875,3.3518824577331543,0.6200982332229614,-9.399934768676758
1759440622629858800,4.30985888671875,3.35667085647583,0.6033388376235962,-9.3735990524292
1759440622639858700,4.319858642578125,3.339911460876465,0.5985504388809204,-9.3735990524292
1759440622649858800,4.32985888671875,3.3446998596191406,0.5746083855628967,-9.359233856201172
1759440622659858700,4.339858642578125,3.3734302520751953,0.5650315880775452,-9.340080261230469
1759440622669858800,4.34985888671875,3.3662476539611816,0.5291185975074768,-9.323320388793945
1759440622679858700,4.359858642578125,3.3854012489318848,0.5291185975074768,-9.270648002624512
1759440622689858800,4.36985888671875,3.3303346633911133,0.5482721924781799,-9.308955192565918
1759440622699858700,4.379858642578125,3.3255462646484375,0.5434837937355042,-9.299378395080566
1759440622709858800,4.38985888671875,3.332728862762451,0.5482721924781799,-9.313743591308594
1759440622719858700,4.399858642578125,3.3518824577331543,0.5674257874488831,-9.344868659973145
1759440622729858800,4.40985888671875,3.3446998596191406,0.5841852426528931,-9.375992774963379
1759440622739858700,4.419858642578125,3.3470940589904785,0.5889736413955688,-9.368810653686523
1759440622749858800,4.42985888671875,3.339911460876465,0.5985504388809204,-9.368810653686523
1759440622759858700,4.439858642578125,3.3470940589904785,0.6057330369949341,-9.34965705871582
1759440622769858800,4.44985888671875,3.335123062133789,0.569819986820221,-9.320926666259766
1759440622779858700,4.459858642578125,3.35667085647583,0.5722141861915588,-9.308955192565918
1759440622789858800,4.46985888671875,3.3494882583618164,0.5530605912208557,-9.337685585021973
1759440622799858400,4.4798583984375,3.3470940589904785,0.5363011956214905,-9.323320388793945
1759440622809858300,4.4898583984375,3.361459255218506,0.5339069962501526,-9.366415977478027
1759440622819858400,4.4998583984375,3.359065055847168,0.5530605912208557,-9.371204376220703
1759440622829858300,4.5098583984375,3.3638534545898438,0.5530605912208557,-9.375992774963379
1759440622839858400,4.5198583984375,3.337517261505127,0.5554547905921936,-9.3735990524292
1759440622849858300,4.5298583984375,3.3303346633911133,0.5889736413955688,-9.354445457458496
1759440622859858700,4.539858642578125,3.3063924312591553,0.5961562395095825,-9.311349868774414
1759440622869858600,4.549858642578125,3.3063924312591553,0.6033388376235962,-9.299378395080566
1759440622879858700,4.559858642578125,3.318363666534424,0.5937620401382446,-9.292196273803711
1759440622889858600,4.569858642578125,3.3279404640197754,0.6129156351089478,-9.337685585021973
1759440622899858700,4.579858642578125,3.332728862762451,0.5961562395095825,-9.3735990524292
1759440622909858600,4.589858642578125,3.3231520652770996,0.5985504388809204,-9.402329444885254
1759440622919858700,4.599858642578125,3.3231520652770996,0.6057330369949341,-9.378387451171875
1759440622929858600,4.609858642578125,3.315969467163086,0.5889736413955688,-9.359233856201172
1759440622939858700,4.619858642578125,3.31118106842041,0.6129156351089478,-9.371204376220703
1759440622949858600,4.629858642578125,3.3016040325164795,0.6344634294509888,-9.364022254943848
1759440622959858700,4.639858642578125,3.3039982318878174,0.6416460275650024,-9.368810653686523
1759440622969858600,4.649858642578125,3.3039982318878174,0.6440402865409851,-9.356839179992676
1759440622979858700,4.659858642578125,3.3303346633911133,0.6392518281936646,-9.354445457458496
1759440622989858600,4.669858642578125,3.3303346633911133,0.6344634294509888,-9.313743591308594
1759440622999858700,4.679858642578125,3.3470940589904785,0.6344634294509888,-9.308955192565918
1759440623009858600,4.689858642578125,3.3231520652770996,0.6272808313369751,-9.330503463745117
1759440623019858700,4.699858642578125,3.315969467163086,0.6224924325942993,-9.330503463745117
1759440623029858600,4.709858642578125,3.294421434402466,0.6416460275650024,-9.337685585021973
1759440623039858700,4.719858642578125,3.3207578659057617,0.6224924325942993,-9.354445457458496
1759440623049858600,4.729858642578125,3.3255462646484375,0.6248866319656372,-9.3735990524292
1759440623059858700,4.739858642578125,3.3303346633911133,0.6153098344802856,-9.347262382507324
1759440623069858600,4.749858642578125,3.3494882583618164,0.6057330369949341,-9.337685585021973
1759440623079858700,4.759858642578125,3.3470940589904785,0.6272808313369751,-9.335291862487793
1759440623089858600,4.769858642578125,3.3494882583618164,0.6153098344802856,-9.34965705871582
1759440623099859000,4.77985888671875,3.0597896575927734,0.5482721924781799,-9.325715065002441
1759440623109859000,4.789859130859375,2.964021682739258,0.5889736413955688,-9.289801597595215
1759440623129859000,4.809859130859375,3.5266590118408203,0.6344634294509888,-9.3735990524292
1759440623139859000,4.81985888671875,3.620033025741577,0.6105214357376099,-9.38317584991455
1759440623149859000,4.829859130859375,3.6128504276275635,0.6057330369949341,-9.390357971191406
1759440623159859000,4.83985888671875,3.533841609954834,0.6057330369949341,-9.3735990524292
1759440623169859000,4.849859130859375,3.3207578659057617,0.5817909836769104,-9.342473983764648
1759440623179859000,4.85985888671875,3.134010076522827,0.5602431893348694,-9.347262382507324
1759440623189859000,4.869859130859375,3.043030261993408,0.5602431893348694,-9.344868659973145
