seconds_elapsed,acc_z,acc_y,acc_x,grav_z,grav_y,grav_x,gyro_z,gyro_y,gyro_x
0.0500,-0.0902,0.0649,-0.0670,1.4567,-9.0782,3.4110,-0.0014,0.0915,0.0252
0.0600,-0.1253,0.0618,-0.0460,1.4597,-9.0781,3.4098,0.0032,0.0534,-0.0138
0.0700,-0.1219,0.0511,0.0010,1.4585,-9.0787,3.4088,0.0052,0.0258,-0.0412
0.0800,-0.0806,0.0258,0.0455,1.4546,-9.0797,3.4080,0.0074,0.0138,-0.0545
0.0900,-0.0229,-0.0119,0.0777,1.4503,-9.0808,3.4068,0.0120,0.0144,-0.0501
0.1000,0.0205,-0.0309,0.0981,1.4471,-9.0819,3.4053,0.0155,0.0238,-0.0329
0.1100,0.0279,-0.0071,0.1121,1.4462,-9.0827,3.4033,0.0168,0.0351,-0.0112
0.1200,0.0086,0.0485,0.1114,1.4474,-9.0833,3.4012,0.0170,0.0414,0.0085
0.1300,-0.0149,0.1023,0.1114,1.4501,-9.0837,3.3992,0.0141,0.0398,0.0196
0.1400,-0.0463,0.1222,0.1329,1.4533,-9.0838,3.3976,0.0099,0.0311,0.0209
0.1500,-0.0750,0.1215,0.1484,1.4557,-9.0838,3.3963,0.0084,0.0204,0.0136
0.1600,-0.0812,0.1030,0.1428,1.4569,-9.0840,3.3953,0.0075,0.0130,0.0000
0.1700,-0.0663,0.0737,0.1318,1.4566,-9.0843,3.3946,0.0057,0.0115,-0.0158
0.1800,-0.0289,0.0450,0.1068,1.4551,-9.0849,3.3939,0.0070,0.0118,-0.0280
0.1900,0.0017,0.0336,0.0838,1.4530,-9.0855,3.3931,0.0097,0.0104,-0.0336
0.2000,0.0094,0.0380,0.0785,1.4521,-9.0858,3.3927,0.0103,0.0092,-0.0352
0.2100,0.0356,0.0423,0.0661,1.4497,-9.0865,3.3919,0.0108,0.0087,-0.0344
0.2200,0.0688,0.0368,0.0731,1.4472,-9.0872,3.3910,0.0104,0.0105,-0.0259
0.2300,0.0842,0.0357,0.0956,1.4457,-9.0878,3.3900,0.0112,0.0148,-0.0135
0.2400,0.0891,0.0386,0.1044,1.4456,-9.0882,3.3890,0.0102,0.0237,-0.0016
0.2500,0.0891,0.0513,0.1042,1.4468,-9.0884,3.3880,0.0073,0.0354,0.0073
0.2600,0.0588,0.0697,0.0876,1.4490,-9.0884,3.3870,0.0055,0.0454,0.0099
0.2700,0.0083,0.0670,0.0476,1.4513,-9.0885,3.3859,0.0067,0.0468,0.0051
0.2800,-0.0299,0.0459,0.0149,1.4529,-9.0887,3.3845,0.0115,0.0390,-0.0037
0.2900,-0.0513,0.0107,0.0025,1.4531,-9.0892,3.3830,0.0135,0.0254,-0.0157
0.3000,-0.0476,-0.0152,0.0062,1.4517,-9.0899,3.3817,0.0117,0.0101,-0.0299
0.3100,-0.0193,-0.0132,0.0130,1.4487,-9.0907,3.3808,0.0106,0.0012,-0.0415
0.3200,0.0258,-0.0050,-0.0053,1.4447,-9.0917,3.3800,0.0111,0.0009,-0.0487
0.3300,0.0739,0.0034,-0.0353,1.4405,-9.0927,3.3790,0.0122,0.0093,-0.0477
0.3400,0.1022,0.0162,-0.0691,1.4372,-9.0937,3.3777,0.0145,0.0230,-0.0393
0.3500,0.1059,0.0276,-0.1018,1.4352,-9.0947,3.3759,0.0180,0.0351,-0.0257
0.3600,0.0840,0.0212,-0.1247,1.4348,-9.0957,3.3735,0.0228,0.0411,-0.0096
0.3700,0.0449,-0.0106,-0.1430,1.4359,-9.0967,3.3704,0.0321,0.0365,0.0053
0.3800,0.0017,-0.0358,-0.1424,1.4378,-9.0978,3.3665,0.0440,0.0182,0.0169
0.3900,-0.0516,-0.0401,-0.1030,1.4398,-9.0991,3.3621,0.0509,-0.0071,0.0226
0.4000,-0.0936,-0.0449,-0.0375,1.4413,-9.1005,3.3576,0.0523,-0.0290,0.0225
0.4100,-0.1002,-0.0406,0.0167,1.4420,-9.1020,3.3533,0.0529,-0.0377,0.0153
0.4200,-0.0641,-0.0123,0.0525,1.4421,-9.1036,3.3490,0.0514,-0.0287,0.0048
0.4300,0.0032,0.0169,0.0815,1.4415,-9.1053,3.3446,0.0499,-0.0095,-0.0053
0.4400,0.0585,0.0529,0.1081,1.4406,-9.1071,3.3401,0.0496,0.0044,-0.0138
0.4500,0.0744,0.0817,0.1185,1.4392,-9.1090,3.3355,0.0484,-0.0001,-0.0177
0.4600,0.0563,0.0811,0.1046,1.4374,-9.1108,3.3312,0.0499,-0.0221,-0.0138
0.4700,0.0239,0.0538,0.0889,1.4353,-9.1127,3.3269,0.0551,-0.0498,-0.0062
0.4800,-0.0144,0.0192,0.0951,1.4331,-9.1147,3.3224,0.0608,-0.0672,-0.0003
0.4900,-0.0334,0.0154,0.0928,1.4308,-9.1168,3.3176,0.0664,-0.0700,0.0012
0.5000,-0.0271,0.0462,0.0635,1.4284,-9.1191,3.3123,0.0696,-0.0618,-0.0051
0.5100,-0.0090,0.0885,0.0556,1.4256,-9.1216,3.3067,0.0698,-0.0488,-0.0173
0.5200,0.0293,0.1027,0.0552,1.4218,-9.1244,3.3008,0.0742,-0.0402,-0.0323
0.5300,0.0574,0.1018,0.0091,1.4168,-9.1276,3.2940,0.0849,-0.0401,-0.0475
0.5400,0.0924,0.1271,-0.0448,1.4106,-9.1313,3.2864,0.0949,-0.0452,-0.0565
0.5500,0.1570,0.1418,-0.0489,1.4039,-9.1353,3.2781,0.0914,-0.0254,-0.0617
0.5600,0.2782,0.2049,-0.0059,1.3977,-9.1391,3.2702,0.0812,0.0203,-0.0701
0.5700,0.2669,0.2420,-0.0681,1.3919,-9.1430,3.2616,0.0961,0.0573,-0.0836
0.5800,0.1657,0.2775,-0.1493,1.3857,-9.1479,3.2505,0.1205,0.0789,-0.0976
0.5900,0.1274,0.2959,-0.1040,1.3791,-9.1535,3.2375,0.1363,0.0765,-0.1007
0.6000,0.0953,0.2344,-0.0002,1.3724,-9.1593,3.2239,0.1360,0.0674,-0.0970
0.6100,0.0931,0.1928,0.0623,1.3658,-9.1650,3.2107,0.1350,0.0592,-0.0923
0.6200,0.0709,0.1575,0.0151,1.3593,-9.1707,3.1971,0.1436,0.0679,-0.0942
0.6300,0.0655,0.1827,-0.0360,1.3529,-9.1767,3.1826,0.1453,0.1043,-0.1050
0.6400,0.0474,0.1889,-0.0537,1.3465,-9.1828,3.1676,0.1441,0.1295,-0.1140
0.6500,-0.0053,0.1058,-0.0527,1.3399,-9.1890,3.1523,0.1509,0.1259,-0.1172
0.6600,-0.0834,-0.0399,-0.0539,1.3327,-9.1958,3.1354,0.1892,0.0828,-0.1128
0.6700,-0.1488,-0.2426,-0.0259,1.3242,-9.2041,3.1146,0.2433,0.0219,-0.1061
0.6800,-0.1002,-0.3278,0.1174,1.3140,-9.2138,3.0901,0.2833,-0.0417,-0.1067
0.6900,-0.0131,-0.2166,0.2910,1.3012,-9.2244,3.0638,0.3016,-0.1018,-0.1237
0.7000,0.0148,0.0914,0.3185,1.2842,-9.2357,3.0370,0.3132,-0.1518,-0.1602
0.7100,0.0158,0.4616,0.1915,1.2617,-9.2478,3.0094,0.3294,-0.1943,-0.2109
0.7200,0.0069,0.6999,0.0037,1.2328,-9.2613,2.9796,0.3762,-0.2293,-0.2740
0.7300,-0.0635,0.9967,-0.4138,1.1968,-9.2777,2.9430,0.4800,-0.2763,-0.3387
0.7400,-0.0841,1.1564,-0.7603,1.1541,-9.2977,2.8964,0.5876,-0.2924,-0.3970
0.7500,0.0348,0.8549,-0.6125,1.1067,-9.3204,2.8415,0.6469,-0.2636,-0.4409
0.7600,0.0975,0.5294,-0.3518,1.0567,-9.3441,2.7820,0.6800,-0.2447,-0.4718
0.7700,-0.0118,0.6092,-0.2585,1.0038,-9.3686,2.7184,0.7279,-0.2400,-0.5117
0.7800,-0.1863,0.9072,-0.3285,0.9472,-9.3945,2.6485,0.8071,-0.2572,-0.5457
0.7900,-0.2441,1.0677,-0.4919,0.8882,-9.4220,2.5700,0.9091,-0.2970,-0.5449
0.8000,-0.1438,0.9749,-0.5607,0.8295,-9.4510,2.4814,1.0154,-0.3113,-0.5271
0.8100,-0.0337,0.9389,-0.5046,0.7724,-9.4814,2.3819,1.1283,-0.2732,-0.5230
0.8200,0.0205,1.1035,-0.5369,0.7166,-9.5132,2.2695,1.2659,-0.1912,-0.5329
0.8300,0.1270,1.1667,-0.6131,0.6622,-9.5467,2.1416,1.4214,-0.0494,-0.5430
0.8400,0.3709,0.9870,-0.4791,0.6114,-9.5812,1.9975,1.5612,0.1944,-0.5391
0.8500,0.6512,0.5720,-0.0553,0.5662,-9.6154,1.8403,1.6391,0.5087,-0.5347
0.8600,0.7646,-0.0645,0.6791,0.5259,-9.6471,1.6794,1.5846,0.8984,-0.5490
0.8700,0.9613,-0.8127,1.6759,0.4898,-9.6741,1.5289,1.3784,1.3761,-0.5667
0.8800,1.2006,-1.4566,2.4998,0.4568,-9.6952,1.4007,1.1009,1.7993,-0.5925
0.8900,1.1332,-1.9155,2.6725,0.4228,-9.7112,1.2966,0.8716,1.9971,-0.6336
0.9000,1.0136,-2.0289,2.3905,0.3839,-9.7239,1.2114,0.7097,1.9347,-0.6726
0.9100,0.9072,-1.6752,2.2126,0.3385,-9.7339,1.1428,0.5569,1.6869,-0.6930
0.9200,0.8195,-1.0648,2.0485,0.2894,-9.7415,1.0905,0.4151,1.3544,-0.6482
0.9300,1.0195,-0.4653,1.7275,0.2452,-9.7469,1.0524,0.2986,1.0604,-0.5080
0.9400,1.2097,-0.0124,1.4849,0.2149,-9.7505,1.0256,0.2062,0.8331,-0.3076
0.9500,1.0320,0.3039,1.3267,0.2029,-9.7526,1.0077,0.1281,0.6563,-0.0928
0.9600,0.7199,0.4791,1.2749,0.2096,-9.7535,0.9974,0.0559,0.5391,0.1023
0.9700,0.3740,0.6479,1.2514,0.2322,-9.7533,0.9944,-0.0167,0.4523,0.2502
0.9800,-0.1066,0.8045,1.1481,0.2649,-9.7521,0.9985,-0.0848,0.3539,0.3220
0.9900,-0.6720,0.7894,0.9496,0.2992,-9.7501,1.0085,-0.1312,0.2099,0.3097
1.0000,-1.1285,0.6686,0.6407,0.3274,-9.7477,1.0221,-0.1499,0.0374,0.2368
1.0100,-1.2926,0.4782,0.3371,0.3453,-9.7456,1.0369,-0.1471,-0.1095,0.1353
1.0200,-1.1818,0.1570,0.0214,0.3522,-9.7438,1.0512,-0.1294,-0.2154,0.0426
1.0300,-0.9825,-0.2388,-0.3461,0.3504,-9.7425,1.0634,-0.0998,-0.2993,-0.0182
1.0400,-0.8906,-0.6062,-0.7746,0.3430,-9.7418,1.0721,-0.0545,-0.3979,-0.0575
1.0500,-1.0462,-0.9046,-1.3130,0.3310,-9.7418,1.0763,0.0002,-0.4975,-0.0860
1.0600,-0.8781,-1.2477,-1.8650,0.3164,-9.7424,1.0755,0.0501,-0.5163,-0.0978
1.0700,-0.4382,-1.5554,-2.2921,0.3010,-9.7435,1.0696,0.1033,-0.4134,-0.1179
1.0800,-0.0246,-1.7329,-2.7574,0.2839,-9.7455,1.0563,0.1899,-0.1412,-0.1704
1.0900,0.4787,-1.8383,-3.1855,0.2640,-9.7486,1.0319,0.3073,0.2460,-0.2475
1.1000,0.6794,-1.6990,-3.3436,0.2406,-9.7530,0.9952,0.4194,0.5708,-0.3117
1.1100,0.8734,-1.1295,-3.2598,0.2160,-9.7583,0.9477,0.5145,0.7702,-0.3142
1.1200,1.1305,-0.3722,-2.8632,0.1957,-9.7641,0.8912,0.6023,0.8513,-0.2488
1.1300,0.9634,0.1291,-2.3954,0.1826,-9.7701,0.8256,0.7022,0.8445,-0.1743
1.1400,0.3255,0.2842,-2.0196,0.1725,-9.7764,0.7495,0.8162,0.8914,-0.1868
1.1500,-0.5385,0.1746,-1.4863,0.1543,-9.7829,0.6631,0.9001,1.1004,-0.3432
1.1600,-1.3603,0.0045,-0.6655,0.1166,-9.7891,0.5725,0.8924,1.2902,-0.5754
1.1700,-1.7591,0.0741,0.2494,0.0570,-9.7942,0.4883,0.7843,1.2988,-0.7645
1.1800,-1.5381,0.3790,0.8724,-0.0177,-9.7976,0.4180,0.6356,1.1466,-0.8531
1.1900,-0.9598,0.6591,1.0353,-0.0974,-9.7994,0.3625,0.5052,0.8614,-0.8320
1.2000,-0.3253,0.7842,1.0225,-0.1722,-9.7999,0.3184,0.4103,0.4852,-0.7274
1.2100,0.1380,0.7216,1.0992,-0.2349,-9.7997,0.2835,0.3032,0.0283,-0.5533
1.2200,0.5458,0.5221,1.3130,-0.2794,-9.7992,0.2596,0.1680,-0.4270,-0.3374
1.2300,0.7959,0.1974,1.1728,-0.3051,-9.7988,0.2465,0.0699,-0.7440,-0.1678
1.2400,0.6718,-0.2531,0.3466,-0.3200,-9.7985,0.2389,0.0447,-0.8271,-0.1103
1.2500,0.5682,-0.6657,-0.5223,-0.3342,-9.7982,0.2308,0.0733,-0.6560,-0.1476
1.2600,0.6387,-0.9218,-1.0468,-0.3535,-9.7978,0.2192,0.1279,-0.3649,-0.2203
1.2700,0.6917,-0.9751,-1.2180,-0.3785,-9.7972,0.2034,0.1721,-0.1077,-0.2734
1.2800,0.8035,-0.7913,-0.8991,-0.4058,-9.7965,0.1863,0.1657,0.0571,-0.2773
1.2900,0.9665,-0.3929,-0.2794,-0.4314,-9.7956,0.1725,0.1179,0.1289,-0.2439
1.3000,0.9505,0.0726,0.2215,-0.4533,-9.7948,0.1641,0.0654,0.1272,-0.2070
1.3100,0.7550,0.4647,0.5307,-0.4721,-9.7940,0.1601,0.0281,0.0903,-0.1773
1.3200,0.5900,0.6907,0.6772,-0.4882,-9.7932,0.1586,0.0080,0.0418,-0.1504
1.3300,0.5178,0.8099,0.6986,-0.5013,-9.7925,0.1588,-0.0125,-0.0019,-0.1157
1.3400,0.5333,0.9250,0.6860,-0.5107,-9.7920,0.1612,-0.0377,-0.0236,-0.0769
1.3500,0.5157,0.8934,0.5212,-0.5172,-9.7916,0.1655,-0.0532,-0.0390,-0.0597
1.3600,0.3801,0.7485,0.2836,-0.5239,-9.7911,0.1714,-0.0701,-0.0334,-0.0780
1.3700,0.3217,0.6239,0.1341,-0.5339,-9.7905,0.1798,-0.1035,0.0188,-0.1283
1.3800,0.3748,0.5256,0.0237,-0.5492,-9.7894,0.1923,-0.1452,0.1060,-0.1865
1.3900,0.5186,0.3866,-0.1501,-0.5694,-9.7879,0.2095,-0.1876,0.1943,-0.2263
1.4000,0.7284,0.1915,-0.3207,-0.5920,-9.7860,0.2317,-0.2391,0.2725,-0.2419
1.4100,0.9176,0.0312,-0.3799,-0.6152,-9.7839,0.2597,-0.2912,0.3486,-0.2456
1.4200,1.0020,-0.0886,-0.4312,-0.6383,-9.7815,0.2924,-0.3221,0.3953,-0.2459
1.4300,0.9595,-0.1120,-0.5205,-0.6613,-9.7788,0.3268,-0.3193,0.3927,-0.2450
1.4400,0.8728,-0.0767,-0.6496,-0.6838,-9.7762,0.3595,-0.2939,0.3537,-0.2367
1.4500,0.8248,0.0330,-0.6694,-0.7050,-9.7735,0.3902,-0.2868,0.3238,-0.2205
1.4600,0.8572,0.2843,-0.4898,-0.7243,-9.7707,0.4219,-0.3129,0.3468,-0.2000
1.4700,0.9567,0.4542,-0.3768,-0.7410,-9.7679,0.4570,-0.3420,0.4167,-0.1750
1.4800,1.0148,0.3996,-0.3931,-0.7551,-9.7650,0.4952,-0.3643,0.5141,-0.1620
1.4900,0.9351,0.2432,-0.3334,-0.7685,-9.7617,0.5367,-0.3938,0.6228,-0.1741
1.5000,0.7349,0.0726,-0.2134,-0.7832,-9.7579,0.5825,-0.4320,0.7183,-0.2046
1.5100,0.4548,-0.1725,-0.1731,-0.8005,-9.7534,0.6326,-0.4693,0.7773,-0.2422
1.5200,0.0890,-0.5761,-0.2273,-0.8213,-9.7480,0.6864,-0.4953,0.8150,-0.2929
1.5300,-0.3876,-1.2071,-0.3740,-0.8479,-9.7417,0.7417,-0.4831,0.8505,-0.3769
1.5400,-1.0405,-2.1982,-0.7540,-0.8834,-9.7345,0.7927,-0.3999,0.8011,-0.4811
1.5500,-1.6789,-3.3078,-1.3304,-0.9286,-9.7270,0.8327,-0.2915,0.5931,-0.5560
1.5600,-1.8444,-3.7334,-1.4785,-0.9811,-9.7191,0.8633,-0.2609,0.3129,-0.5928
1.5700,-1.5752,-3.4252,-1.1099,-1.0383,-9.7105,0.8930,-0.3181,0.0744,-0.6087
1.5800,-1.0902,-3.3285,-0.7871,-1.0975,-9.7007,0.9282,-0.4069,-0.0473,-0.6052
1.5900,-0.2628,-3.7930,-0.4122,-1.1555,-9.6896,0.9722,-0.5095,-0.0392,-0.5699
1.6000,0.8392,-4.5405,0.1323,-1.2071,-9.6777,1.0270,-0.6209,0.0281,-0.4851
1.6100,1.9756,-5.3953,0.5865,-1.2471,-9.6653,1.0932,-0.7240,0.1400,-0.3576
1.6200,3.0393,-6.1976,0.7924,-1.2716,-9.6531,1.1699,-0.7969,0.3240,-0.2046
1.6300,3.9540,-6.5820,0.7423,-1.2780,-9.6416,1.2548,-0.8317,0.5617,-0.0400
1.6400,4.5846,-6.2710,0.5637,-1.2643,-9.6314,1.3440,-0.8257,0.7579,0.1432
1.6500,4.8317,-5.5740,0.2129,-1.2287,-9.6234,1.4313,-0.7645,0.8268,0.3639
1.6600,4.7363,-4.8762,-0.3185,-1.1694,-9.6187,1.5104,-0.6643,0.7990,0.6142
1.6700,4.3896,-4.1617,-0.7999,-1.0853,-9.6175,1.5787,-0.5713,0.7501,0.8735
1.6800,3.9144,-3.3698,-1.1967,-0.9765,-9.6192,1.6379,-0.4987,0.7182,1.1286
1.6900,3.4746,-2.5384,-1.6461,-0.8433,-9.6229,1.6893,-0.4292,0.6871,1.3779
1.7000,3.1791,-1.7695,-2.1412,-0.6867,-9.6275,1.7327,-0.3625,0.6266,1.6203
1.7100,2.9951,-1.1785,-2.4489,-0.5089,-9.6319,1.7690,-0.3147,0.5451,1.8318
1.7200,2.8621,-0.8437,-2.4741,-0.3141,-9.6344,1.7998,-0.2764,0.4696,1.9977
1.7300,2.8610,-0.8663,-2.3836,-0.1058,-9.6342,1.8248,-0.2173,0.4443,2.1284
1.7400,3.0376,-1.2624,-2.2796,0.1148,-9.6308,1.8418,-0.1311,0.5380,2.2382
1.7500,3.2373,-1.9174,-1.9925,0.3478,-9.6239,1.8482,-0.0372,0.8088,2.3102
1.7600,2.9087,-2.6175,-1.3352,0.5904,-9.6130,1.8432,0.0334,1.2283,2.3044
1.7700,1.8152,-3.0856,-0.4037,0.8361,-9.5977,1.8276,0.0630,1.6799,2.2172
1.7800,0.3280,-3.1230,0.4879,1.0775,-9.5785,1.8023,0.0854,2.0415,2.0757
1.7900,-1.2942,-2.8282,0.8494,1.3067,-9.5572,1.7635,0.2014,2.2215,1.8853
1.8000,-2.6906,-2.4611,0.5317,1.5153,-9.5373,1.7037,0.3831,2.2358,1.6424
1.8100,-3.5996,-1.8982,0.8746,1.6981,-9.5201,1.6266,0.4601,2.1933,1.4019
1.8200,-3.4681,-1.6251,2.2632,1.8610,-9.5036,1.5429,0.4471,2.3472,1.2735
1.8300,-1.8162,-2.0934,3.1578,2.0226,-9.4853,1.4487,0.4908,2.7858,1.3353
1.8400,-0.0156,-2.5208,2.9987,2.2000,-9.4630,1.3301,0.6609,3.2428,1.5061
1.8500,0.3542,-2.3908,2.1619,2.3922,-9.4362,1.1783,0.8981,3.4406,1.6346
1.8600,-0.5354,-1.7661,1.4535,2.5833,-9.4064,0.9991,1.1451,3.1159,1.6137
1.8700,-2.1288,-0.9323,0.8641,2.7542,-9.3768,0.8028,1.4360,2.4476,1.4443
1.8800,-2.8856,-0.3757,0.6316,2.8953,-9.3499,0.5929,1.7042,1.9365,1.2172
1.8900,-2.6535,-0.4326,1.2482,3.0080,-9.3257,0.3703,1.9253,1.5783,1.0003
1.9000,-2.9280,-1.1239,1.4837,3.0975,-9.3028,0.1359,2.1625,1.2283,0.8390
1.9100,-3.1340,-2.3377,1.1411,3.1735,-9.2774,-0.1107,2.4051,0.8848,0.7975
1.9200,-2.7581,-3.5574,0.8189,3.2512,-9.2436,-0.3687,2.6171,0.6130,0.9252
1.9300,-2.0587,-3.9783,0.7557,3.3464,-9.1948,-0.6371,2.7693,0.5124,1.2060
1.9400,-1.8341,-3.6535,0.8412,3.4705,-9.1251,-0.9128,2.8910,0.3233,1.5688
1.9500,-2.5823,-3.3453,0.7031,3.6000,-9.0489,-1.1410,2.9736,-0.0051,1.8755
1.9600,-3.1247,-3.2851,0.5946,3.6591,-9.0134,-1.2304,2.9945,-0.1521,1.9940
1.9700,-3.5743,-2.8401,0.7672,3.8221,-8.9131,-1.4452,2.9743,-0.4352,2.2445
1.9800,-3.5901,-1.6812,1.4002,4.0415,-8.7738,-1.6813,2.8363,-0.7230,2.4725
1.9900,-3.8696,-0.3014,1.8938,4.2800,-8.6182,-1.8838,2.6166,-1.0017,2.6128
2.0000,-4.1647,0.8652,2.0852,4.5287,-8.4521,-2.0483,2.3694,-1.2325,2.6490
2.0100,-4.4200,1.8390,2.0421,4.7782,-8.2812,-2.1760,2.1422,-1.4021,2.6058
2.0200,-4.5026,2.5398,1.9573,5.0219,-8.1095,-2.2724,1.9245,-1.4799,2.5173
2.0300,-4.2206,3.0537,2.0759,5.2546,-7.9403,-2.3431,1.7108,-1.4533,2.3857
2.0400,-3.7756,3.6618,2.2229,5.4702,-7.7782,-2.3939,1.5148,-1.4005,2.2021
2.0500,-3.8012,4.3140,2.4075,5.6675,-7.6261,-2.4243,1.3205,-1.4534,2.0087
2.0600,-4.2665,4.7480,2.5582,5.8513,-7.4846,-2.4292,1.1272,-1.5809,1.8497
2.0700,-4.5120,5.1916,2.4691,6.0237,-7.3530,-2.4100,0.9475,-1.6432,1.7147
2.0800,-4.4798,5.6089,2.3963,6.1834,-7.2309,-2.3751,0.8027,-1.5826,1.5800
2.0900,-4.3498,5.8698,2.4029,6.3281,-7.1188,-2.3325,0.6920,-1.4789,1.4185
2.1000,-4.2161,6.0038,2.3384,6.4547,-7.0194,-2.2867,0.6092,-1.3690,1.1958
2.1100,-3.9358,5.7527,2.2505,6.5580,-6.9374,-2.2433,0.5616,-1.2152,0.9019
2.1200,-3.4360,5.4227,2.1772,6.6350,-6.8759,-2.2063,0.5156,-1.0549,0.5874
2.1300,-2.9826,5.3682,2.2113,6.6872,-6.8354,-2.1742,0.4519,-0.9111,0.3025
2.1400,-2.5665,5.3210,2.1863,6.7173,-6.8145,-2.1471,0.3995,-0.7649,0.0500
2.1500,-2.1468,5.1487,2.0485,6.7279,-6.8104,-2.1270,0.3645,-0.6048,-0.1676
2.1600,-1.7121,4.8043,1.8813,6.7205,-6.8208,-2.1170,0.3485,-0.4065,-0.3634
2.1700,-1.3946,4.2922,1.4744,6.6959,-6.8441,-2.1196,0.3411,-0.2323,-0.5393
2.1800,-1.4015,3.8645,0.8705,6.6578,-6.8779,-2.1299,0.3221,-0.1551,-0.6769
2.1900,-1.4101,3.6515,0.2233,6.6088,-6.9209,-2.1432,0.2965,-0.0813,-0.8149
2.2000,-1.2063,3.5577,-0.3589,6.5466,-6.9743,-2.1608,0.2657,0.0197,-0.9883
2.2100,-1.0326,3.6256,-0.7556,6.4684,-7.0401,-2.1825,0.2141,0.1223,-1.1868
2.2200,-0.8735,3.7352,-0.9737,6.3732,-7.1190,-2.2063,0.1552,0.2080,-1.3824
2.2300,-0.7772,3.6970,-1.1293,6.2619,-7.2096,-2.2303,0.0958,0.2499,-1.5598
2.2400,-0.8477,3.6051,-0.9882,6.1360,-7.3111,-2.2495,-0.0137,0.2553,-1.7307
2.2500,-0.9598,3.6646,-0.3748,5.9956,-7.4244,-2.2565,-0.2116,0.2328,-1.9080
2.2600,-0.9941,3.7965,0.4376,5.8407,-7.5507,-2.2435,-0.4848,0.2075,-2.0678
2.2700,-0.2219,3.6747,0.9538,5.6752,-7.6850,-2.2116,-0.6871,0.3130,-2.0714
2.2800,3.9694,2.6843,-0.2336,5.5184,-7.8045,-2.1909,-0.6076,0.8486,-1.5652
2.2900,11.5621,0.0753,-2.2708,5.3998,-7.8831,-2.2058,-0.4517,1.1031,-0.9334
2.3000,9.3336,-4.4301,-3.0278,5.3004,-7.9445,-2.2263,-0.4143,0.8903,-1.1370
2.3100,-0.5152,-9.8663,-2.2775,5.1649,-8.0315,-2.2315,-0.6111,0.8184,-1.6942
2.3200,-2.6666,-11.8665,0.0295,5.0240,-8.1324,-2.1878,-1.0165,-0.0938,-1.4227
2.3300,0.6742,-10.9129,1.2289,4.9495,-8.2117,-2.0573,-1.1958,-1.3423,-0.8033
2.3400,1.4865,-10.4133,0.8124,4.9227,-8.2685,-1.8873,-1.1039,-1.5074,-0.6105
2.3500,0.0376,-7.6781,1.1443,4.8974,-8.3168,-1.7353,-0.9542,-1.1751,-0.5865
2.3600,-0.4460,-3.2386,1.5878,4.8662,-8.3603,-1.6100,-0.7981,-0.9738,-0.6069
2.3700,-0.8082,-0.0331,1.7976,4.8225,-8.4047,-1.5073,-0.6378,-0.7624,-0.7885
2.3800,-1.1186,1.9639,2.0675,4.7506,-8.4587,-1.4310,-0.4997,-0.4127,-1.1323
2.3900,-1.4321,3.3064,2.2840,4.6410,-8.5276,-1.3807,-0.4524,-0.0324,-1.5100
2.4000,-1.4458,4.3538,2.4233,4.4945,-8.6111,-1.3451,-0.5263,0.2935,-1.8392
2.4100,-1.3814,4.8644,2.2967,4.3161,-8.7067,-1.3125,-0.6733,0.5894,-2.1175
2.4200,-1.5401,4.7464,2.0105,4.1096,-8.8112,-1.2766,-0.8427,0.8714,-2.3521
2.4300,-1.6502,4.2079,1.6546,3.8784,-8.9211,-1.2348,-0.9917,1.1331,-2.5442
2.4400,-1.6428,3.1878,1.4096,3.6263,-9.0328,-1.1866,-1.1155,1.3615,-2.6966
2.4500,-1.7224,1.7116,1.5570,3.3581,-9.1430,-1.1301,-1.2272,1.5144,-2.7958
2.4600,-1.7967,0.0194,1.8919,3.0811,-9.2480,-1.0620,-1.3271,1.5745,-2.8126
2.4700,-1.7067,-1.8650,2.1993,2.8061,-9.3441,-0.9803,-1.4063,1.5455,-2.7097
2.4800,-1.4392,-3.7327,2.4166,2.5467,-9.4276,-0.8860,-1.4494,1.4713,-2.4725
2.4900,-1.0455,-4.9433,2.5684,2.3145,-9.4966,-0.7826,-1.4528,1.3828,-2.1537
2.5000,-0.9253,-5.2171,2.4825,2.1142,-9.5516,-0.6743,-1.4071,1.1973,-1.8333
2.5100,-1.2641,-4.6883,2.0297,1.9451,-9.5947,-0.5642,-1.3248,0.8834,-1.5439
2.5200,-1.4105,-3.4606,1.7013,1.8057,-9.6279,-0.4533,-1.2476,0.5106,-1.2650
2.5300,-1.0359,-1.8876,1.6345,1.6953,-9.6527,-0.3407,-1.2005,0.1533,-0.9864
2.5400,-0.5822,-0.4618,1.5340,1.6118,-9.6704,-0.2247,-1.1940,-0.1299,-0.7374
2.5500,-0.3477,0.6552,1.3536,1.5501,-9.6826,-0.1035,-1.2140,-0.3948,-0.5448
2.5600,-0.5194,1.3153,1.0329,1.5042,-9.6903,0.0242,-1.2350,-0.7175,-0.4076
2.5700,-0.7928,1.4685,0.7059,1.4685,-9.6945,0.1590,-1.2616,-1.0609,-0.3095
2.5800,-0.8175,1.3433,0.5020,1.4391,-9.6955,0.3013,-1.2905,-1.3666,-0.2345
2.5900,-0.6529,1.0014,0.3039,1.4139,-9.6935,0.4489,-1.2948,-1.6038,-0.1669
2.6000,-0.4502,0.3634,0.0681,1.3924,-9.6886,0.5972,-1.2460,-1.8146,-0.0873
2.6100,-0.4056,-0.5717,-0.3519,1.3747,-9.6814,0.7394,-1.1110,-2.0253,-0.0124
2.6200,-0.4549,-1.5526,-1.0552,1.3576,-9.6734,0.8655,-0.8783,-2.1625,0.0013
2.6300,-0.4829,-2.1039,-1.7645,1.3348,-9.6669,0.9685,-0.6389,-2.1871,-0.0640
2.6400,-0.4917,-1.8897,-1.9398,1.3007,-9.6629,1.0514,-0.4931,-2.1046,-0.1978
2.6500,-0.6483,-1.2611,-1.8176,1.2502,-9.6617,1.1215,-0.4150,-1.9531,-0.3913
2.6600,-0.9808,-0.6510,-1.8987,1.1799,-9.6634,1.1813,-0.3382,-1.8041,-0.6112
2.6700,-1.3120,-0.1598,-2.1276,1.0886,-9.6682,1.2282,-0.2164,-1.6486,-0.8361
2.6800,-1.3295,0.2214,-2.2518,0.9777,-9.6760,1.2589,-0.0920,-1.4230,-1.0418
2.6900,-0.7924,0.6779,-1.8864,0.8534,-9.6855,1.2766,-0.0407,-1.0894,-1.1641
2.7000,0.2299,1.2875,-1.3147,0.7280,-9.6942,1.2881,-0.0530,-0.6713,-1.1599
2.7100,1.1325,1.8449,-1.0573,0.6129,-9.7009,1.2977,-0.0725,-0.2835,-1.0675
2.7200,1.3987,2.0948,-1.2095,0.5122,-9.7059,1.3045,-0.0414,-0.0093,-0.9589
2.7300,1.4236,2.0470,-1.4887,0.4248,-9.7102,1.3039,0.0576,0.1768,-0.8574
2.7400,1.4359,1.7212,-1.8910,0.3465,-9.7155,1.2873,0.2862,0.3338,-0.8296
2.7500,0.9411,0.8354,-2.8202,0.2660,-9.7239,1.2422,0.6131,0.5044,-0.9451
2.7600,0.4778,-0.0267,-2.9386,0.1718,-9.7349,1.1697,0.8104,0.6282,-1.1211
2.7700,0.8236,-0.2151,-1.3652,0.0637,-9.7454,1.0906,0.7605,0.6259,-1.2172
2.7800,1.4518,-0.5151,0.1801,-0.0479,-9.7526,1.0251,0.5645,0.4694,-1.1655
2.7900,1.7429,-0.8596,0.9370,-0.1518,-9.7560,0.9821,0.3138,0.2034,-1.0165
2.8000,1.6881,-0.6067,1.5089,-0.2423,-9.7562,0.9629,0.0879,0.0061,-0.8429
2.8100,1.6612,-0.1231,1.5313,-0.3172,-9.7543,0.9604,-0.0216,0.0059,-0.6887
2.8200,1.4251,0.3401,1.0224,-0.3785,-9.7517,0.9650,-0.0643,0.1266,-0.5811
2.8300,0.9237,0.8692,0.9445,-0.4290,-9.7487,0.9743,-0.1135,0.1520,-0.4741
2.8400,0.7096,1.1160,0.8972,-0.4677,-9.7456,0.9870,-0.1294,0.0230,-0.3292
2.8500,0.8701,0.8494,0.1375,-0.4934,-9.7433,0.9976,-0.0888,-0.1101,-0.1904
2.8600,1.0129,0.5957,-0.6914,-0.5089,-9.7419,1.0036,-0.0523,-0.1593,-0.1053
2.8700,1.0472,0.4226,-1.1786,-0.5187,-9.7409,1.0076,-0.0506,-0.1566,-0.0659
2.8800,1.1921,0.1017,-1.5215,-0.5256,-9.7400,1.0129,-0.0751,-0.1066,-0.0479
2.8900,1.4450,-0.1310,-1.6993,-0.5306,-9.7388,1.0217,-0.1123,0.0093,-0.0470
2.9000,1.5892,-0.2206,-1.8232,-0.5352,-9.7372,1.0347,-0.1431,0.1370,-0.0691
2.9100,1.3790,-0.2114,-1.9414,-0.5424,-9.7351,1.0508,-0.1650,0.2093,-0.1187
2.9200,0.9905,-0.0311,-1.9794,-0.5544,-9.7324,1.0694,-0.1915,0.2314,-0.1731
2.9300,0.7798,0.3259,-1.8821,-0.5701,-9.7290,1.0917,-0.2380,0.2477,-0.1969
2.9400,0.7069,0.7103,-1.7539,-0.5858,-9.7249,1.1192,-0.2938,0.2803,-0.1804
2.9500,0.5686,0.9301,-1.6789,-0.5985,-9.7203,1.1521,-0.3430,0.3173,-0.1523
2.9600,0.2969,0.9043,-1.5836,-0.6095,-9.7150,1.1901,-0.3939,0.3361,-0.1582
2.9700,-0.1173,0.5701,-1.3079,-0.6240,-9.7087,1.2338,-0.4600,0.3449,-0.2332
2.9800,-0.7206,-0.1726,-0.7975,-0.6491,-9.7005,1.2841,-0.5248,0.3144,-0.3715
2.9900,-1.4450,-1.3580,-0.3410,-0.6894,-9.6902,1.3392,-0.5691,0.1721,-0.5190
3.0000,-2.0280,-2.6280,0.1070,-0.7450,-9.6779,1.3971,-0.6134,-0.0664,-0.6322
3.0100,-2.3378,-3.5337,0.6787,-0.8128,-9.6634,1.4582,-0.6715,-0.2619,-0.7026
3.0200,-2.1798,-4.0324,1.1573,-0.8866,-9.6467,1.5243,-0.7366,-0.2893,-0.7147
3.0300,-1.4647,-4.1988,1.3822,-0.9566,-9.6283,1.5963,-0.7967,-0.1986,-0.6386
3.0400,-0.4644,-4.0041,1.4673,-1.0135,-9.6092,1.6744,-0.8513,-0.1333,-0.4731
3.0500,0.4946,-4.1192,1.3858,-1.0514,-9.5905,1.7563,-0.8656,-0.1330,-0.2622
3.0600,1.3429,-5.3256,0.9914,-1.0686,-9.5738,1.8354,-0.7966,-0.0852,-0.0566
3.0700,2.2023,-7.1730,0.7649,-1.0652,-9.5602,1.9069,-0.7033,0.0768,0.1237
3.0800,3.0214,-8.5770,0.9938,-1.0418,-9.5495,1.9723,-0.6256,0.2489,0.2895
3.0900,3.6766,-9.0459,0.9375,-0.9999,-9.5419,2.0300,-0.5037,0.3258,0.4619
3.1000,4.2280,-8.3244,0.1585,-0.9400,-9.5389,2.0725,-0.3031,0.3739,0.6396
3.1100,4.7726,-6.5069,-0.7329,-0.8606,-9.5415,2.0948,-0.0878,0.4598,0.8390
3.1200,5.0593,-4.5267,-1.1843,-0.7579,-9.5489,2.1002,0.0489,0.5489,1.0819
3.1300,4.8348,-2.8924,-1.2614,-0.6288,-9.5589,2.0970,0.0918,0.5979,1.3505
3.1400,4.2665,-1.5849,-1.3725,-0.4731,-9.5691,2.0911,0.1017,0.6060,1.6244
3.1500,3.7643,-0.6393,-1.7265,-0.2908,-9.5782,2.0819,0.1424,0.6184,1.8930
3.1600,3.3829,-0.1057,-2.1867,-0.0831,-9.5857,2.0654,0.2309,0.6674,2.1321
3.1700,2.8994,0.0586,-2.5190,0.1464,-9.5908,2.0372,0.3488,0.7591,2.3164
3.1800,2.3789,-0.1452,-2.5301,0.3929,-9.5926,1.9951,0.4756,0.9057,2.4373
3.1900,1.8387,-0.7048,-2.2213,0.6497,-9.5903,1.9382,0.5848,1.1276,2.4527
3.2000,0.8518,-1.3495,-1.5505,0.9046,-9.5835,1.8687,0.6473,1.3682,2.3241
3.2100,-0.3053,-1.9010,-0.7008,1.1455,-9.5730,1.7889,0.6941,1.5729,2.1134
3.2200,-0.9753,-2.2935,-0.0037,1.3673,-9.5605,1.6984,0.7619,1.6263,1.9131
3.2300,-1.6203,-2.3090,0.5949,1.5686,-9.5468,1.5992,0.8324,1.4064,1.7504
3.2400,-2.4671,-2.0379,1.2727,1.7482,-9.5322,1.4970,0.8738,1.0256,1.5932
3.2500,-3.0451,-1.7570,2.0351,1.9057,-9.5173,1.3972,0.8688,0.7724,1.4288
3.2600,-2.6308,-1.6063,3.0010,2.0467,-9.5017,1.3005,0.8171,0.8587,1.3053
3.2700,-1.3009,-1.5736,4.1347,2.1822,-9.4843,1.2036,0.7333,1.3124,1.2662
3.2800,0.2262,-1.4726,4.9861,2.3242,-9.4630,1.1006,0.6367,2.0002,1.3246
3.2900,0.9702,-0.9962,5.3189,2.4762,-9.4368,0.9874,0.5845,2.5492,1.3617
3.3000,-0.2035,-0.2335,4.5081,2.6253,-9.4089,0.8615,0.6625,2.6664,1.2410
3.3100,-2.1702,0.4514,2.8954,2.7511,-9.3848,0.7201,0.8990,2.3816,0.9792
3.3200,-3.1612,0.6163,1.3501,2.8439,-9.3682,0.5577,1.2561,1.9961,0.6887
3.3300,-2.8237,0.1642,0.2741,2.9058,-9.3585,0.3667,1.6269,1.8535,0.4424
3.3400,-1.8638,-0.5720,-0.0322,2.9432,-9.3527,0.1421,1.9470,1.9824,0.2639
3.3500,-1.0328,-1.2650,-0.0432,2.9654,-9.3459,-0.1150,2.2011,2.1344,0.2264
3.3600,-0.6825,-1.5304,0.1255,2.9872,-9.3313,-0.3918,2.3537,1.9920,0.3666
3.3700,-0.9167,-1.5419,0.4814,3.0233,-9.3038,-0.6698,2.4121,1.5651,0.6064
3.3800,-1.4592,-1.5422,0.6656,3.0815,-9.2618,-0.9357,2.4309,1.0199,0.8423
3.3900,-2.3155,-1.5890,0.4331,3.1608,-9.2063,-1.1855,2.4756,0.3997,1.0103
3.4000,-3.2427,-1.6353,0.1152,3.2593,-9.1387,-1.4194,2.5392,-0.2296,1.1415
3.4100,-3.6414,-1.3999,0.0818,3.3795,-9.0584,-1.6363,2.5537,-0.7248,1.3204
3.4200,-3.2898,-0.7725,0.3445,3.5243,-8.9645,-1.8356,2.4856,-0.9414,1.5508
3.4300,-2.5068,-0.0935,0.6535,3.6928,-8.8568,-2.0178,2.3424,-0.9528,1.7965
3.4400,-1.9385,0.4698,0.7871,3.8813,-8.7369,-2.1799,2.1351,-0.9739,2.0011
3.4500,-2.0559,0.9984,1.0665,4.0843,-8.6092,-2.3133,1.8683,-1.1156,2.0976
3.4600,-2.5865,1.3682,1.5361,4.2923,-8.4806,-2.4105,1.5781,-1.2866,2.0537
3.4700,-2.8440,1.5956,1.8887,4.4936,-8.3574,-2.4736,1.3209,-1.3960,1.9158
3.4800,-2.7561,1.8525,1.9506,4.6836,-8.2415,-2.5101,1.1468,-1.4548,1.7766
3.4900,-2.5556,2.1683,1.9958,4.8608,-8.1319,-2.5310,1.0356,-1.3989,1.6417
3.5000,-2.4316,2.6875,2.3731,5.0242,-8.0283,-2.5428,0.9109,-1.3327,1.5399
3.5100,-2.7961,3.5120,2.6864,5.1812,-7.9290,-2.5393,0.7547,-1.4179,1.5039
3.5200,-3.2641,4.2224,2.7530,5.3362,-7.8331,-2.5157,0.6102,-1.5021,1.4633
3.5300,-3.3315,4.8204,2.8268,5.4852,-7.7420,-2.4773,0.4921,-1.4848,1.3730
3.5400,-3.3287,5.5354,3.0309,5.6219,-7.6584,-2.4303,0.3893,-1.4190,1.2238
3.5500,-3.3705,6.1119,3.0870,5.7411,-7.5858,-2.3793,0.3195,-1.3130,1.0152
3.5600,-3.2573,6.4804,2.8223,5.8379,-7.5270,-2.3305,0.2841,-1.1369,0.7556
3.5700,-2.9810,6.6377,2.4924,5.9077,-7.4845,-2.2914,0.2630,-0.8801,0.4628
3.5800,-2.6481,6.5577,2.1964,5.9479,-7.4602,-2.2666,0.2298,-0.5848,0.1629
3.5900,-2.4010,6.3292,1.9337,5.9600,-7.4541,-2.2550,0.1837,-0.3238,-0.1124
3.6000,-2.1966,5.8780,1.7114,5.9468,-7.4645,-2.2555,0.1509,-0.0711,-0.3587
3.6100,-1.8284,5.2296,1.5855,5.9102,-7.4892,-2.2695,0.1341,0.1680,-0.5758
3.6200,-1.5256,4.5982,1.5395,5.8544,-7.5257,-2.2931,0.1093,0.3003,-0.7489
3.6300,-1.3055,4.0561,1.5139,5.7842,-7.5717,-2.3196,0.0649,0.3773,-0.8932
3.6400,-0.9631,3.5312,1.4226,5.7010,-7.6265,-2.3458,0.0015,0.4284,-1.0322
3.6500,-0.7093,3.0792,1.1976,5.6061,-7.6898,-2.3676,-0.0824,0.4237,-1.1592
3.6600,-0.4332,2.7326,0.8925,5.5020,-7.7609,-2.3796,-0.1875,0.3790,-1.2745
3.6700,0.0791,2.3900,0.6443,5.3897,-7.8396,-2.3785,-0.3163,0.3042,-1.3794
3.6800,0.6523,2.0624,0.4078,5.2708,-7.9249,-2.3622,-0.4483,0.2311,-1.4535
3.6900,2.0582,1.5766,-0.3163,5.1500,-8.0114,-2.3367,-0.4700,0.2534,-1.4024
3.7000,4.4874,0.7186,-1.5238,5.0536,-8.0774,-2.3201,-0.3943,0.3426,-1.2808
3.7100,5.7891,0.2034,-2.1553,5.0172,-8.1011,-2.3166,-0.3586,0.3793,-1.2371
3.7200,5.6265,-1.0448,-2.7088,4.9197,-8.1621,-2.3114,-0.3264,0.4848,-1.3754
3.7300,0.7307,-2.7429,-2.6635,4.7791,-8.2454,-2.3100,-0.3407,0.5403,-1.7203
3.7400,-3.1129,-4.2196,-2.6367,4.6254,-8.3364,-2.2964,-0.4535,0.1775,-1.6783
3.7500,-0.7364,-4.6868,-1.9123,4.5022,-8.4180,-2.2433,-0.6630,-0.4422,-1.3262
3.7600,2.1179,-6.0525,-1.4919,4.4091,-8.4910,-2.1510,-0.9082,-0.6246,-1.2051
3.7700,2.2084,-7.8981,-1.4274,4.3157,-8.5667,-2.0370,-1.1989,-0.4451,-1.2416
3.7800,1.3192,-7.6846,-0.7234,4.2169,-8.6462,-1.9034,-1.4311,-0.4729,-1.2400
3.7900,0.2398,-6.0493,-0.0023,4.1205,-8.7244,-1.7513,-1.4840,-0.6528,-1.2028
3.8000,-0.1322,-3.9946,0.5758,4.0271,-8.7975,-1.5962,-1.3811,-0.7185,-1.1880
3.8100,-0.7883,-1.8703,1.2660,3.9319,-8.8653,-1.4520,-1.2218,-0.7088,-1.2021
3.8200,-1.2385,0.1657,1.9261,3.8337,-8.9284,-1.3225,-1.0670,-0.6928,-1.2129
3.8300,-1.2931,1.8537,2.0902,3.7318,-8.9879,-1.2065,-0.9325,-0.6779,-1.2509
3.8400,-1.2456,2.9765,1.8717,3.6220,-9.0458,-1.1034,-0.8232,-0.5942,-1.3434
3.8500,-1.0145,3.6655,1.5687,3.4990,-9.1045,-1.0140,-0.7342,-0.4325,-1.4811
3.8600,-0.8525,3.9957,1.4017,3.3592,-9.1651,-0.9374,-0.6905,-0.2286,-1.6351
3.8700,-0.8259,4.0488,1.5650,3.2023,-9.2279,-0.8679,-0.7361,-0.0155,-1.7817
3.8800,-0.9999,3.8431,1.9525,3.0300,-9.2922,-0.7957,-0.8661,0.1424,-1.9005
3.8900,-1.3727,3.1846,2.1723,2.8470,-9.3566,-0.7123,-1.0242,0.2104,-1.9645
3.9000,-1.6417,1.9928,2.1696,2.6607,-9.4181,-0.6151,-1.1596,0.2350,-1.9383
3.9100,-1.7149,0.3884,2.2799,2.4806,-9.4736,-0.5059,-1.2667,0.2363,-1.8144
3.9200,-1.8300,-1.3794,2.6180,2.3152,-9.5211,-0.3857,-1.3587,0.1882,-1.6228
3.9300,-2.0577,-3.0088,3.0549,2.1702,-9.5596,-0.2545,-1.4457,0.1084,-1.3836
3.9400,-2.1819,-4.0967,3.3870,2.0513,-9.5886,-0.1138,-1.4771,-0.0683,-1.0777
3.9500,-2.0630,-4.4933,3.2707,1.9645,-9.6075,0.0299,-1.3967,-0.3631,-0.7192
3.9600,-1.5679,-4.5331,2.8044,1.9105,-9.6171,0.1672,-1.2374,-0.6456,-0.3957
3.9700,-0.8214,-4.3996,2.3712,1.8818,-9.6197,0.2933,-1.0720,-0.8817,-0.1712
3.9800,-0.2117,-4.1124,1.8410,1.8684,-9.6182,0.4081,-0.9158,-1.1035,-0.0410
3.9900,0.0891,-3.6486,0.9478,1.8622,-9.6145,0.5122,-0.7674,-1.3213,0.0208
4.0000,0.1733,-2.8303,-0.0453,1.8567,-9.6100,0.6074,-0.6462,-1.5325,0.0306
4.0100,0.1236,-1.7782,-0.7224,1.8480,-9.6057,0.6956,-0.5570,-1.6879,0.0088
4.0200,-0.0025,-0.7111,-0.8216,1.8345,-9.6019,0.7793,-0.5195,-1.7602,-0.0216
4.0300,-0.1934,0.1433,-0.5115,1.8163,-9.5982,0.8625,-0.5305,-1.7828,-0.0486
4.0400,-0.5259,0.6210,-0.2927,1.7946,-9.5943,0.9470,-0.5457,-1.7917,-0.0608
4.0500,-0.8383,0.7467,-0.3984,1.7704,-9.5901,1.0313,-0.5386,-1.7402,-0.0755
4.0600,-1.0334,0.7268,-0.7239,1.7427,-9.5863,1.1109,-0.4963,-1.5676,-0.1346
4.0700,-1.2168,0.7487,-1.1395,1.7075,-9.5845,1.1797,-0.3995,-1.3143,-0.2608
4.0800,-1.4989,0.7635,-1.5632,1.6593,-9.5864,1.2313,-0.2461,-1.0695,-0.4429
4.0900,-1.7679,0.7914,-1.8444,1.5944,-9.5933,1.2628,-0.0776,-0.8975,-0.6487
4.1000,-1.9188,0.9268,-1.9458,1.5107,-9.6051,1.2763,0.0691,-0.7897,-0.8643
4.1100,-1.9189,1.1356,-1.8154,1.4067,-9.6210,1.2748,0.1818,-0.6786,-1.0912
4.1200,-1.7428,1.3767,-1.6045,1.2822,-9.6401,1.2612,0.2638,-0.5067,-1.3193
4.1300,-1.4193,1.7099,-1.4630,1.1392,-9.6611,1.2370,0.3337,-0.2449,-1.5280
4.1400,-1.0067,2.0240,-1.3908,0.9813,-9.6827,1.2022,0.4042,0.0474,-1.6858
4.1500,-0.4696,2.0937,-1.3487,0.8145,-9.7035,1.1583,0.4613,0.2916,-1.7648
4.1600,0.1406,1.9490,-1.1724,0.6463,-9.7219,1.1085,0.5014,0.5079,-1.7600
4.1700,0.6855,1.6925,-1.0516,0.4825,-9.7376,1.0536,0.5545,0.7316,-1.7247
4.1800,0.9472,1.3052,-1.1544,0.3229,-9.7505,0.9934,0.6064,0.9293,-1.7095
4.1900,1.2103,0.8228,-1.1558,0.1663,-9.7606,0.9303,0.6287,1.0290,-1.6696
4.2000,1.7345,0.3353,-0.9327,0.0159,-9.7678,0.8686,0.5987,1.0387,-1.5763
4.2100,2.1938,0.0001,-0.4031,-0.1237,-9.7716,0.8157,0.4769,0.9667,-1.4341
4.2200,2.4953,-0.2101,0.1727,-0.2491,-9.7724,0.7783,0.3136,0.8140,-1.2605
4.2300,2.6722,-0.5166,0.2957,-0.3586,-9.7707,0.7568,0.1697,0.6248,-1.0804
4.2400,2.7076,-0.5810,0.2000,-0.4511,-9.7675,0.7488,0.0432,0.4334,-0.8841
4.2500,2.4809,-0.3106,0.0028,-0.5268,-9.7637,0.7500,-0.0205,0.2922,-0.7230
4.2600,1.9847,-0.0281,-0.2747,-0.5920,-9.7596,0.7547,-0.0451,0.2329,-0.6563
4.2700,1.4184,0.2687,-0.1022,-0.6538,-9.7550,0.7627,-0.0980,0.2038,-0.6374
4.2800,1.1738,0.5123,0.2539,-0.7124,-9.7498,0.7770,-0.1675,0.1497,-0.5767
4.2900,1.3748,0.5614,0.2278,-0.7618,-9.7444,0.7973,-0.2225,0.0982,-0.4436
4.3000,1.7091,0.3969,-0.0893,-0.7967,-9.7397,0.8206,-0.2337,0.0775,-0.2829
4.3100,1.8607,0.1341,-0.6457,-0.8167,-9.7362,0.8423,-0.1930,0.0811,-0.1421
4.3200,1.8748,-0.1040,-1.2197,-0.8245,-9.7341,0.8589,-0.1284,0.1233,-0.0387
4.3300,1.8756,-0.2366,-1.5360,-0.8231,-9.7333,0.8698,-0.0620,0.2498,0.0301
4.3400,1.9040,-0.3089,-1.7337,-0.8144,-9.7335,0.8747,0.0207,0.4149,0.0871
4.3500,1.9018,-0.4231,-2.0472,-0.7994,-9.7351,0.8716,0.1210,0.5174,0.1307
4.3600,1.6407,-0.4565,-2.2344,-0.7821,-9.7375,0.8606,0.1827,0.5253,0.1187
4.3700,1.0585,-0.3406,-2.0334,-0.7699,-9.7396,0.8478,0.1439,0.4618,0.0363
4.3800,0.4564,-0.1769,-1.4655,-0.7681,-9.7401,0.8432,0.0056,0.3840,-0.0744
4.3900,0.0083,0.0080,-0.6838,-0.7770,-9.7384,0.8546,-0.1867,0.3388,-0.1629
4.4000,-0.2919,0.2023,-0.0345,-0.7923,-9.7345,0.8847,-0.3667,0.3657,-0.2045
4.4100,-0.2648,0.3956,0.2368,-0.8087,-9.7288,0.9302,-0.4890,0.4554,-0.2036
4.4200,-0.0032,0.4559,0.2025,-0.8229,-9.7222,0.9857,-0.5585,0.5275,-0.1846
4.4300,0.0613,0.2674,0.1566,-0.8356,-9.7147,1.0471,-0.6061,0.5356,-0.1967
4.4400,-0.3427,-0.1567,0.3610,-0.8534,-9.7057,1.1133,-0.6582,0.5111,-0.2977
4.4500,-1.2170,-0.9517,0.7280,-0.8849,-9.6946,1.1835,-0.6902,0.4295,-0.4639
4.4600,-2.0992,-2.2528,0.8074,-0.9332,-9.6813,1.2527,-0.6607,0.2129,-0.6015
4.4700,-2.5344,-3.6784,0.5339,-0.9949,-9.6669,1.3150,-0.6117,-0.0627,-0.6773
4.4800,-2.4478,-4.7011,0.4252,-1.0640,-9.6516,1.3722,-0.6083,-0.2181,-0.6972
4.4900,-1.7933,-5.4669,0.4151,-1.1321,-9.6354,1.4306,-0.6448,-0.1845,-0.6335
4.5000,-0.6331,-6.1586,0.1234,-1.1875,-9.6191,1.4939,-0.6903,-0.0269,-0.4626
4.5100,0.6895,-6.5001,-0.2359,-1.2188,-9.6041,1.5634,-0.7313,0.1521,-0.1979
4.5200,1.8344,-6.3079,-0.4768,-1.2187,-9.5917,1.6380,-0.7568,0.2839,0.1268
4.5300,2.7022,-5.6658,-0.7041,-1.1845,-9.5826,1.7145,-0.7398,0.4015,0.4600
4.5400,3.3484,-4.8615,-0.9048,-1.1178,-9.5774,1.7863,-0.6262,0.5354,0.7437
4.5500,3.6601,-4.2419,-1.1201,-1.0253,-9.5770,1.8430,-0.4101,0.6335,0.9381
4.5600,3.6775,-3.7238,-1.2495,-0.9167,-9.5814,1.8772,-0.1720,0.6630,1.0555
4.5700,3.6757,-3.0893,-1.2213,-0.7975,-9.5894,1.8903,0.0040,0.6305,1.1653
4.5800,3.6695,-2.3623,-1.2961,-0.6670,-9.5996,1.8890,0.1072,0.5749,1.3082
4.5900,3.6267,-1.6065,-1.5573,-0.5219,-9.6106,1.8784,0.1791,0.5268,1.4832
4.6000,3.5342,-0.9559,-1.9140,-0.3596,-9.6216,1.8598,0.2550,0.4805,1.6774
4.6100,3.3383,-0.5370,-2.2217,-0.1794,-9.6319,1.8318,0.3512,0.4384,1.8651
4.6200,3.0579,-0.4323,-2.3795,0.0173,-9.6408,1.7926,0.4671,0.4341,2.0255
4.6300,2.6891,-0.7364,-2.2772,0.2274,-9.6475,1.7412,0.5767,0.4714,2.1312
4.6400,1.9470,-1.3646,-1.8445,0.4435,-9.6509,1.6798,0.6484,0.4954,2.1388
4.6500,0.9027,-1.9967,-1.2055,0.6565,-9.6503,1.6124,0.6784,0.5139,2.0695
4.6600,0.3178,-2.4578,-0.4949,0.8622,-9.6456,1.5420,0.6828,0.6192,1.9894
4.6700,0.2691,-2.6873,0.2426,1.0621,-9.6371,1.4688,0.6795,0.8450,1.9100
4.6800,0.1204,-2.5822,1.0142,1.2579,-9.6251,1.3910,0.6756,1.2007,1.8324
4.6900,0.0004,-2.4272,1.7581,1.4513,-9.6097,1.3063,0.6682,1.6608,1.7710
4.7000,0.1017,-2.4420,2.5498,1.6439,-9.5908,1.2140,0.6279,2.0856,1.7242
4.7100,-0.0364,-2.3833,3.3919,1.8331,-9.5682,1.1173,0.5617,2.3820,1.6552
4.7200,-0.2143,-2.3802,4.1134,2.0147,-9.5428,1.0175,0.5064,2.6264,1.5652
4.7300,-0.0238,-2.4375,4.6500,2.1859,-9.5158,0.9124,0.4812,2.8354,1.4462
4.7400,-0.4852,-2.0448,4.6881,2.3401,-9.4893,0.7991,0.5380,2.8666,1.2511
4.7500,-1.4761,-1.3213,3.9580,2.4690,-9.4665,0.6726,0.7162,2.6983,1.0136
4.7600,-1.9896,-0.7072,2.8220,2.5686,-9.4493,0.5252,1.0245,2.4615,0.7444
4.7700,-2.3745,-0.3290,1.4349,2.6373,-9.4384,0.3471,1.4451,2.2261,0.4879
4.7800,-2.2789,-0.4920,0.0384,2.6799,-9.4317,0.1306,1.8986,2.1027,0.3126
4.7900,-1.5352,-1.1120,-0.4991,2.7065,-9.4239,-0.1246,2.2559,2.1454,0.2612
4.8000,-0.9138,-1.8343,0.0516,2.7299,-9.4091,-0.4067,2.4536,2.0735,0.3686
4.8100,-0.9901,-2.4638,0.4012,2.7650,-9.3818,-0.6968,2.5796,1.6660,0.6014
4.8200,-1.2700,-2.8533,0.0387,2.8240,-9.3383,-0.9844,2.6785,1.1896,0.8979
4.8300,-1.0851,-2.7873,0.2202,2.9087,-9.2779,-1.2674,2.7132,0.9280,1.1489
4.8400,-1.4784,-2.3656,0.4327,3.0101,-9.2032,-1.5451,2.7380,0.7134,1.2653
4.8500,-2.5000,-2.0149,0.0577,3.1194,-9.1170,-1.8156,2.7642,0.3768,1.3015
4.8600,-3.0951,-1.4412,0.1808,3.2380,-9.0208,-2.0710,2.7206,-0.1020,1.3636
4.8700,-3.4608,-0.6740,0.5204,3.3753,-8.9150,-2.2980,2.5926,-0.6757,1.4944
4.8800,-3.5004,0.0462,0.6809,3.5385,-8.8000,-2.4881,2.3792,-1.1125,1.6694
4.8900,-3.0543,0.9307,0.9986,3.7235,-8.6781,-2.6417,2.1177,-1.2687,1.8243
4.9000,-2.7094,1.7333,1.2510,3.9207,-8.5518,-2.7654,1.8709,-1.2871,1.9200
4.9100,-2.7764,2.1984,1.4994,4.1227,-8.4238,-2.8630,1.6498,-1.3194,1.9405
4.9200,-3.0171,2.3788,1.8756,4.3237,-8.2969,-2.9364,1.4663,-1.3761,1.8970
4.9300,-3.2137,2.3134,2.2236,4.5196,-8.1725,-2.9901,1.3409,-1.4226,1.8246
4.9400,-3.2347,2.1776,2.4571,4.7080,-8.0504,-3.0306,1.2582,-1.3827,1.7450
4.9500,-3.0186,2.4358,2.6556,4.8855,-7.9313,-3.0637,1.1753,-1.3086,1.6400
4.9600,-3.1705,3.1047,2.8387,5.0529,-7.8172,-3.0855,1.0608,-1.3951,1.5450
4.9700,-3.5792,3.9230,2.9680,5.2157,-7.7088,-3.0873,0.9173,-1.5223,1.4576
4.9800,-3.7047,4.6879,3.0330,5.3715,-7.6083,-3.0698,0.7733,-1.5596,1.3351
4.9900,-3.7370,5.2783,2.8086,5.5156,-7.5172,-3.0386,0.6580,-1.5546,1.1927
5.0000,-3.6189,5.8041,2.5427,5.6458,-7.4362,-2.9989,0.5618,-1.4882,1.0320
5.0100,-3.3404,6.1499,2.4563,5.7582,-7.3671,-2.9556,0.4682,-1.3521,0.8351
5.0200,-2.9535,6.3262,2.4021,5.8484,-7.3128,-2.9132,0.3756,-1.1665,0.5924
5.0300,-2.4578,6.2940,2.2981,5.9133,-7.2760,-2.8743,0.2861,-0.9741,0.3275
5.0400,-1.9694,5.9815,2.1619,5.9529,-7.2574,-2.8395,0.2060,-0.8003,0.0619
5.0500,-1.6706,5.5463,2.0338,5.9686,-7.2564,-2.8090,0.1544,-0.6503,-0.1926
5.0600,-1.5938,5.1201,1.8610,5.9624,-7.2709,-2.7847,0.1349,-0.5100,-0.4188
5.0700,-1.6064,4.8231,1.7415,5.9373,-7.2979,-2.7674,0.1251,-0.3873,-0.6002
5.0800,-1.5931,4.6678,1.5748,5.8969,-7.3347,-2.7564,0.1123,-0.2764,-0.7460
5.0900,-1.4280,4.5617,1.2883,5.8424,-7.3802,-2.7510,0.0848,-0.1555,-0.8911
5.1000,-1.1080,4.4275,0.9721,5.7720,-7.4354,-2.7508,0.0338,0.0023,-1.0614
5.1100,-0.5189,4.2062,0.6315,5.6827,-7.5018,-2.7561,-0.0438,0.1917,-1.2458
5.1200,0.1308,3.8257,0.1613,5.5727,-7.5801,-2.7664,-0.1464,0.4271,-1.4267
5.1300,0.4372,3.2520,-0.4763,5.4400,-7.6702,-2.7814,-0.2671,0.6483,-1.6220
5.1400,0.1503,2.7408,-1.2764,5.2884,-7.7704,-2.7955,-0.3462,0.7619,-1.7512
5.1500,1.5824,2.1717,-2.6847,5.1279,-7.8699,-2.8162,-0.2654,1.0056,-1.6747
5.1600,5.3016,0.8519,-4.1019,4.9672,-7.9569,-2.8594,-0.1207,1.2162,-1.5561
5.1700,5.0138,-1.1589,-3.6506,4.8070,-8.0376,-2.9070,-0.1485,1.0678,-1.6088
5.1800,0.3583,-3.6996,-2.0254,4.6500,-8.1231,-2.9251,-0.3831,0.5010,-1.6312
5.1900,-1.1865,-5.8876,-0.4517,4.5283,-8.2066,-2.8829,-0.7524,-0.3710,-1.2280
5.2000,2.7482,-7.3011,0.6778,4.4680,-8.2778,-2.7709,-1.1236,-1.0701,-0.7808
5.2100,3.6309,-9.2520,0.4376,4.4394,-8.3444,-2.6124,-1.3808,-1.2437,-0.7088
5.2200,1.1285,-9.9676,0.0409,4.4096,-8.4128,-2.4376,-1.5051,-1.1124,-0.7021
5.2300,-0.3615,-8.1470,0.9409,4.3780,-8.4788,-2.2591,-1.5319,-1.1520,-0.6682
5.2400,-1.8682,-5.3726,2.2960,4.3478,-8.5408,-2.0768,-1.4769,-1.2409,-0.6544
5.2500,-1.4330,-2.4990,2.9021,4.3152,-8.5977,-1.9030,-1.3346,-1.1312,-0.6681
5.2600,-0.5360,-0.1295,2.9007,4.2726,-8.6514,-1.7503,-1.1727,-0.9038,-0.7623
5.2700,-0.5574,1.6214,2.7878,4.2110,-8.7066,-1.6207,-1.0541,-0.6221,-0.9618
5.2800,-0.7066,2.7801,2.5717,4.1220,-8.7683,-1.5133,-0.9591,-0.2713,-1.2330
5.2900,-0.6023,3.3826,2.2948,4.0014,-8.8380,-1.4291,-0.8785,0.1296,-1.5156
5.3000,-0.4450,3.6705,2.1881,3.8497,-8.9150,-1.3652,-0.8533,0.5410,-1.7706
5.3100,-0.4555,3.6852,2.2707,3.6720,-8.9972,-1.3139,-0.8876,0.8688,-1.9533
5.3200,-0.5280,3.5032,2.4177,3.4768,-9.0814,-1.2641,-0.9828,1.0608,-2.0536
5.3300,-0.7058,3.0898,2.5858,3.2718,-9.1650,-1.2061,-1.1112,1.1629,-2.1096
5.3400,-1.0555,2.2061,2.6184,3.0611,-9.2465,-1.1350,-1.2371,1.2058,-2.1362
5.3500,-1.2753,0.9271,2.4811,2.8495,-9.3238,-1.0505,-1.3435,1.2391,-2.1001
5.3600,-1.3479,-0.4151,2.2334,2.6440,-9.3943,-0.9554,-1.4110,1.2683,-1.9884
5.3700,-1.4961,-1.6055,1.9062,2.4517,-9.4562,-0.8533,-1.4194,1.2565,-1.8220
5.3800,-1.6693,-2.5069,1.4510,2.2775,-9.5085,-0.7501,-1.3528,1.2079,-1.6186
5.3900,-1.8177,-2.9847,0.9798,2.1244,-9.5512,-0.6508,-1.2478,1.0699,-1.4110
5.4000,-2.0664,-3.1048,0.7527,1.9918,-9.5859,-0.5552,-1.1524,0.8084,-1.2305
5.4100,-2.2770,-2.9214,0.7461,1.8771,-9.6141,-0.4595,-1.0868,0.4350,-1.0804
5.4200,-2.3038,-2.4192,0.6699,1.7779,-9.6371,-0.3608,-1.0379,0.0003,-0.9481
5.4300,-2.0599,-1.7626,0.3627,1.6926,-9.6558,-0.2591,-0.9858,-0.4071,-0.8210
5.4400,-1.6239,-1.2880,-0.0984,1.6202,-9.6704,-0.1559,-0.9452,-0.7490,-0.6930
5.4500,-1.1209,-1.1135,-0.4984,1.5601,-9.6814,-0.0505,-0.9343,-0.9960,-0.5613
5.4600,-0.6089,-1.0433,-0.7862,1.5189,-9.6881,0.0391,-0.9385,-1.1046,-0.4498
5.4700,-0.3840,-0.9977,-0.9347,1.5047,-9.6901,0.0753,-0.9408,-1.1181,-0.4056
5.4800,0.1269,-0.8524,-1.1605,1.4754,-9.6934,0.1666,-0.9637,-1.1080,-0.2917
5.4900,0.5258,-0.5160,-1.1089,1.4516,-9.6944,0.2796,-1.0335,-1.0536,-0.1494
5.5000,0.6900,-0.0707,-0.8525,1.4406,-9.6918,0.4005,-1.1409,-1.0039,-0.0068
5.5100,0.6867,0.1932,-0.7747,1.4416,-9.6854,0.5305,-1.2146,-1.0519,0.1215
5.5200,0.3581,0.1405,-1.0873,1.4510,-9.6756,0.6651,-1.1964,-1.2412,0.2055
5.5300,-0.1387,-0.2513,-1.5948,1.4612,-9.6642,0.7961,-1.0649,-1.5453,0.2065
5.5400,-0.6875,-0.9555,-2.1901,1.4621,-9.6538,0.9135,-0.8113,-1.9361,0.1114
5.5500,-1.2819,-1.6852,-2.7272,1.4446,-9.6471,1.0075,-0.4820,-2.3080,-0.0535
5.5600,-1.7620,-1.7962,-2.8668,1.4039,-9.6459,1.0747,-0.1942,-2.5440,-0.2604
5.5700,-1.9721,-1.2057,-2.5292,1.3394,-9.6499,1.1201,-0.0265,-2.5772,-0.4808
5.5800,-1.8869,-0.4670,-1.9865,1.2542,-9.6575,1.1522,0.0267,-2.4266,-0.6789
5.5900,-1.6348,0.1926,-1.5153,1.1533,-9.6669,1.1779,0.0131,-2.1180,-0.8453
5.6000,-1.1561,0.7786,-1.3166,1.0416,-9.6771,1.1982,0.0126,-1.6828,-0.9764
5.6100,-0.5106,1.2033,-1.4265,0.9253,-9.6875,1.2094,0.0600,-1.1993,-1.0459
5.6200,0.1239,1.3935,-1.5397,0.8115,-9.6978,1.2087,0.1315,-0.7541,-1.0371
5.6300,0.6597,1.4993,-1.4676,0.7054,-9.7076,1.1969,0.1953,-0.3866,-0.9952
5.6400,0.9539,1.6460,-1.3151,0.6066,-9.7168,1.1766,0.2557,-0.1092,-0.9708
5.6500,1.0402,1.6470,-1.2449,0.5121,-9.7257,1.1474,0.3551,0.0226,-0.9548
5.6600,0.7326,1.3936,-1.6041,0.4177,-9.7353,1.1030,0.5685,0.0135,-0.9937
5.6700,-0.0292,0.9252,-2.3851,0.3129,-9.7468,1.0329,0.8638,0.0166,-1.1649
5.6800,-0.4365,0.4859,-2.2222,0.1868,-9.7595,0.9380,1.0450,0.1419,-1.4178
5.6900,-0.0367,0.2826,-0.6816,0.0409,-9.7704,0.8367,0.9780,0.2772,-1.5624
5.7000,1.1221,0.2314,1.0668,-0.1064,-9.7768,0.7537,0.6916,0.2003,-1.4390
5.7100,2.3662,0.3753,2.3996,-0.2315,-9.7784,0.7049,0.2988,-0.0075,-1.1104
5.7200,2.9883,0.7489,3.1867,-0.3237,-9.7767,0.6928,-0.0428,-0.1331,-0.7620
5.7300,2.8512,1.1554,3.1154,-0.3875,-9.7735,0.7059,-0.2164,-0.2042,-0.5297
5.7400,2.0121,1.3224,2.5311,-0.4352,-9.7698,0.7292,-0.2657,-0.2798,-0.4140
5.7500,1.4916,1.2546,2.3479,-0.4733,-9.7661,0.7543,-0.2757,-0.3889,-0.3030
5.7600,1.8072,0.8864,2.3035,-0.4991,-9.7629,0.7790,-0.2649,-0.4216,-0.1548
5.7700,2.3486,0.3864,1.7978,-0.5106,-9.7605,0.8017,-0.2333,-0.2487,-0.0307
5.7800,2.4854,0.0689,0.8664,-0.5115,-9.7588,0.8212,-0.1707,0.0182,0.0189
5.7900,1.9169,-0.1113,-0.1945,-0.5097,-9.7578,0.8343,-0.0832,0.2012,-0.0118
5.8000,1.0940,-0.1662,-0.9741,-0.5126,-9.7571,0.8401,-0.0131,0.2943,-0.0932
5.8100,0.5812,-0.1174,-1.3249,-0.5230,-9.7564,0.8422,-0.0002,0.3565,-0.1723
5.8200,0.4033,-0.0682,-1.3598,-0.5390,-9.7552,0.8463,-0.0489,0.3851,-0.2117
5.8300,0.3082,-0.0850,-1.3084,-0.5564,-9.7533,0.8572,-0.1332,0.3783,-0.2030
5.8400,0.2622,-0.1646,-1.3147,-0.5715,-9.7507,0.8766,-0.2186,0.3585,-0.1701
5.8500,0.2171,-0.1900,-1.4692,-0.5842,-9.7475,0.9032,-0.2793,0.3265,-0.1575
5.8600,0.0148,-0.0887,-1.7307,-0.5982,-9.7437,0.9345,-0.3224,0.2743,-0.1873
5.8700,-0.2368,0.0880,-1.8155,-0.6168,-9.7390,0.9704,-0.3867,0.2192,-0.2401
5.8800,-0.4023,0.2375,-1.6434,-0.6411,-9.7329,1.0147,-0.4946,0.2033,-0.3000
5.8900,-0.5248,0.0890,-1.4528,-0.6720,-9.7248,1.0702,-0.6108,0.2547,-0.3825
5.9000,-0.7270,-0.4598,-1.3707,-0.7117,-9.7144,1.1366,-0.6985,0.3648,-0.5097
5.9100,-1.1422,-1.3506,-1.3086,-0.7640,-9.7016,1.2098,-0.7327,0.4174,-0.6555
5.9200,-1.4501,-2.5012,-1.2629,-0.8282,-9.6869,1.2827,-0.6980,0.3160,-0.7465
5.9300,-1.2095,-3.3625,-0.9678,-0.8989,-9.6715,1.3502,-0.6540,0.1375,-0.7591
5.9400,-0.7505,-3.5355,-0.0988,-0.9707,-9.6553,1.4143,-0.6626,-0.0010,-0.7323
5.9500,-0.3819,-3.4402,0.8972,-1.0400,-9.6382,1.4806,-0.7121,-0.0426,-0.6810
5.9600,0.1250,-3.5516,1.4760,-1.1017,-9.6201,1.5516,-0.7616,-0.0618,-0.5653
5.9700,0.7712,-4.1330,1.5544,-1.1489,-9.6025,1.6250,-0.7761,-0.1379,-0.3708
5.9800,1.3451,-5.2017,1.3332,-1.1767,-9.5868,1.6966,-0.7478,-0.2019,-0.1460
5.9900,1.7945,-6.4053,0.9969,-1.1838,-9.5737,1.7639,-0.6980,-0.1704,0.0655
6.0000,2.2018,-7.2358,0.6508,-1.1698,-9.5635,1.8279,-0.6601,-0.0392,0.2654
6.0100,2.6522,-7.3860,0.2182,-1.1334,-9.5559,1.8892,-0.5987,0.1426,0.4695
6.0200,3.0689,-6.9005,-0.5395,-1.0742,-9.5520,1.9427,-0.4476,0.3602,0.6575
6.0300,3.3669,-5.9782,-1.3768,-0.9934,-9.5529,1.9805,-0.2410,0.5432,0.8357
6.0400,3.5093,-4.8193,-1.8639,-0.8919,-9.5588,2.0005,-0.0696,0.6219,1.0338
6.0500,3.5961,-3.5057,-1.9276,-0.7695,-9.5679,2.0072,0.0303,0.6395,1.2472
6.0600,3.6534,-2.2855,-1.8308,-0.6257,-9.5786,2.0057,0.0899,0.6098,1.4795
6.0700,3.5649,-1.3704,-1.8226,-0.4593,-9.5896,1.9977,0.1427,0.5463,1.7320
6.0800,3.4054,-0.7241,-1.8883,-0.2692,-9.5998,1.9828,0.2073,0.4827,1.9958
6.0900,3.1981,-0.3829,-2.0167,-0.0546,-9.6081,1.9594,0.2964,0.4843,2.2436
6.1000,2.8818,-0.3201,-2.1466,0.1820,-9.6132,1.9255,0.3958,0.5944,2.4263
6.1100,2.3730,-0.4714,-2.0887,0.4348,-9.6139,1.8806,0.4818,0.7975,2.5187
6.1200,1.8531,-0.8538,-1.7566,0.6963,-9.6090,1.8262,0.5216,1.1049,2.5129
6.1300,1.3340,-1.4778,-1.0412,0.9575,-9.5979,1.7651,0.5095,1.4820,2.3965
6.1400,0.5392,-2.1783,-0.1077,1.2074,-9.5818,1.6986,0.4957,1.7908,2.1822
6.1500,-0.4392,-2.6846,0.6387,1.4366,-9.5632,1.6242,0.5440,1.9300,1.9276
6.1600,-1.3355,-2.7393,1.0205,1.6403,-9.5451,1.5361,0.6724,1.9362,1.6729
6.1700,-1.8342,-2.2627,1.2702,1.8195,-9.5290,1.4308,0.8105,1.9723,1.4652
6.1800,-1.4881,-1.7398,1.8719,1.9819,-9.5141,1.3093,0.8991,2.1458,1.3467
6.1900,-0.7968,-1.5131,2.6531,2.1361,-9.4984,1.1734,0.9476,2.4272,1.2852
6.2000,-0.5024,-1.4828,3.2274,2.2850,-9.4809,1.0250,0.9487,2.7261,1.2384
6.2100,-0.4979,-1.3763,3.8009,2.4259,-9.4615,0.8690,0.9467,2.8238,1.1437
6.2200,-1.6331,-1.2183,3.1749,2.5467,-9.4433,0.7062,1.0878,2.5334,0.9297
6.2300,-2.5950,-1.2578,1.6951,2.6378,-9.4298,0.5305,1.3360,2.1492,0.6908
6.2400,-1.7164,-1.3482,1.4610,2.7054,-9.4194,0.3387,1.5569,1.9100,0.5580
6.2500,-1.0517,-1.2497,1.6200,2.7593,-9.4089,0.1320,1.7681,1.6729,0.4929
6.2600,-1.6649,-1.0380,1.1475,2.8057,-9.3956,-0.0882,1.9830,1.3650,0.4857
6.2700,-2.3123,-1.0955,0.9765,2.8517,-9.3768,-0.3170,2.1204,1.0778,0.5432
6.2800,-2.5455,-1.4615,1.1552,2.9027,-9.3504,-0.5483,2.1836,0.9139,0.6314
6.2900,-2.5332,-1.8163,0.8391,2.9615,-9.3151,-0.7827,2.2716,0.8258,0.7468
6.3000,-2.3330,-2.0347,-0.0855,3.0303,-9.2692,-1.0258,2.4295,0.7471,0.8799
6.3100,-1.9238,-2.2585,-0.9152,3.1114,-9.2101,-1.2817,2.5928,0.6948,1.0558
6.3200,-1.2393,-2.1648,-0.5630,3.2085,-9.1360,-1.5452,2.6420,0.6195,1.2541
6.3300,-1.3269,-1.3023,0.3820,3.3231,-9.0483,-1.7984,2.5532,0.2627,1.4105
6.3400,-2.5791,-0.1669,0.8038,3.4567,-8.9511,-2.0200,2.3722,-0.3617,1.5056
6.3500,-3.6301,0.8502,1.0585,3.6062,-8.8495,-2.1995,2.1334,-0.8576,1.5217
6.3600,-3.7759,1.8641,1.4669,3.7609,-8.7481,-2.3419,1.8969,-1.0380,1.4713
6.3700,-3.5123,2.5956,1.6495,3.9125,-8.6487,-2.4601,1.7368,-1.0451,1.4212
6.3800,-3.1316,2.8410,1.6537,4.0621,-8.5487,-2.5648,1.6555,-1.0412,1.4412
6.3900,-2.8705,2.8049,1.8880,4.2162,-8.4443,-2.6603,1.6080,-1.0798,1.5161
6.4000,-2.9254,2.5575,2.1526,4.3760,-8.3343,-2.7476,1.5736,-1.0810,1.5664
6.4100,-3.0011,2.3756,2.3652,4.5351,-8.2212,-2.8292,1.5242,-1.0397,1.5346
6.4200,-3.1230,2.5729,2.7067,4.6903,-8.1087,-2.9001,1.4096,-1.1333,1.4955
6.4300,-3.4236,3.0635,3.0844,4.8487,-7.9979,-2.9468,1.2187,-1.3687,1.5099
6.4400,-3.7174,3.5731,3.2146,5.0118,-7.8902,-2.9644,1.0367,-1.5151,1.4773
6.4500,-3.7435,3.8915,2.9013,5.1680,-7.7888,-2.9647,0.9175,-1.4886,1.3463
6.4600,-3.6095,4.4901,2.8146,5.3099,-7.6963,-2.9554,0.8093,-1.4340,1.1862
6.4700,-3.4312,5.1826,2.9477,5.4365,-7.6142,-2.9382,0.7085,-1.3468,1.0170
6.4800,-3.0228,5.5193,2.9058,5.5429,-7.5445,-2.9196,0.6261,-1.1695,0.7931
6.4900,-2.6074,5.8298,2.8678,5.6240,-7.4907,-2.9031,0.5396,-0.9903,0.5108
6.5000,-2.3483,5.9445,2.8132,5.6767,-7.4565,-2.8887,0.4487,-0.8331,0.1854
6.5100,-2.1351,5.7087,2.6623,5.7002,-7.4436,-2.8759,0.3656,-0.6775,-0.1402
6.5200,-1.8609,5.3319,2.3845,5.6962,-7.4503,-2.8665,0.3035,-0.5152,-0.4235
6.5300,-1.6080,4.9012,2.0085,5.6677,-7.4732,-2.8633,0.2622,-0.3385,-0.6552
6.5400,-1.4128,4.3659,1.6019,5.6182,-7.5085,-2.8685,0.2481,-0.1584,-0.8375
6.5500,-1.1931,3.7649,1.2632,5.5518,-7.5523,-2.8824,0.2452,-0.0194,-0.9730
6.5600,-0.9681,3.3313,1.0299,5.4726,-7.6025,-2.9019,0.2282,0.0649,-1.0856
6.5700,-0.7917,3.0759,0.8121,5.3818,-7.6588,-2.9233,0.1907,0.1246,-1.2100
6.5800,-0.6432,2.9223,0.6120,5.2793,-7.7224,-2.9427,0.1221,0.1382,-1.3371
6.5900,-0.3785,2.8729,0.3738,5.1670,-7.7932,-2.9553,0.0238,0.1240,-1.4370
6.6000,0.2654,2.9226,0.0005,5.0468,-7.8697,-2.9601,-0.0772,0.1541,-1.5084
6.6100,1.3442,2.8293,-0.7727,4.9195,-7.9488,-2.9630,-0.0960,0.2788,-1.5192
6.6200,3.4135,2.0646,-2.2755,4.7889,-8.0222,-2.9791,0.0279,0.5285,-1.4251
6.6300,5.6564,0.2433,-3.9783,4.6549,-8.0846,-3.0225,0.2671,0.7722,-1.4081
6.6400,4.5896,-2.4902,-5.0492,4.5068,-8.1427,-3.0897,0.4060,0.8726,-1.6184
6.6500,0.9666,-4.6579,-4.0480,4.3401,-8.2086,-3.1532,0.1746,0.7757,-1.7460
6.6600,-0.7849,-4.8440,-1.9453,4.1905,-8.2806,-3.1680,-0.3236,0.0938,-1.4547
6.6700,0.3611,-4.2300,-0.6674,4.0976,-8.3510,-3.1040,-0.8216,-0.8224,-1.0777
6.6800,0.9449,-4.7967,0.2431,4.0440,-8.4240,-2.9739,-1.1812,-1.2938,-1.0141
6.6900,0.1970,-5.5632,0.6670,3.9963,-8.5020,-2.8119,-1.3688,-1.2523,-0.9773
6.7000,0.7889,-5.0491,0.6938,3.9492,-8.5769,-2.6461,-1.4364,-1.0011,-0.8419
6.7100,1.0069,-3.7867,1.0425,3.9028,-8.6466,-2.4832,-1.4592,-0.9226,-0.8188
6.7200,0.5079,-2.3531,1.5661,3.8488,-8.7160,-2.3193,-1.4775,-0.8841,-0.9345
6.7300,0.2649,-0.9986,1.8792,3.7765,-8.7887,-2.1581,-1.4750,-0.7200,-1.1299
6.7400,-0.4017,-0.0235,2.1491,3.6807,-8.8651,-2.0059,-1.4347,-0.4912,-1.3092
6.7500,-0.8844,0.6242,2.4659,3.5660,-8.9422,-1.8659,-1.3616,-0.3213,-1.4154
6.7600,-0.8590,1.1713,2.6330,3.4401,-9.0170,-1.7377,-1.2701,-0.2057,-1.4751
6.7700,-0.5770,1.4962,2.6222,3.3050,-9.0890,-1.6213,-1.1941,-0.0545,-1.5456
6.7800,-0.4869,1.5821,2.7094,3.1576,-9.1596,-1.5137,-1.1866,0.1339,-1.6597
6.7900,-0.6157,1.4769,2.8577,2.9947,-9.2307,-1.4086,-1.2499,0.3388,-1.7876
6.8000,-0.7479,1.1718,2.8159,2.8173,-9.3021,-1.3005,-1.3471,0.5434,-1.8873
6.8100,-1.0082,0.7223,2.7070,2.6284,-9.3724,-1.1858,-1.4573,0.6907,-1.9712
6.8200,-1.4254,0.2075,2.6019,2.4306,-9.4403,-1.0618,-1.5489,0.7415,-2.0315
6.8300,-1.7177,-0.3737,2.3261,2.2294,-9.5038,-0.9290,-1.5951,0.7309,-2.0278
6.8400,-1.7825,-1.0187,2.0741,2.0328,-9.5602,-0.7909,-1.6027,0.6871,-1.9356
6.8500,-1.7371,-1.6311,2.0110,1.8496,-9.6080,-0.6498,-1.5799,0.5626,-1.7639
6.8600,-1.6830,-2.0130,1.9030,1.6861,-9.6467,-0.5074,-1.5274,0.3633,-1.5498
6.8700,-1.5502,-2.0815,1.6568,1.5459,-9.6766,-0.3674,-1.4291,0.1041,-1.3096
6.8800,-1.3729,-1.9203,1.2419,1.4308,-9.6985,-0.2344,-1.2843,-0.2022,-1.0547
6.8900,-1.0853,-1.5733,0.8436,1.3404,-9.7137,-0.1108,-1.1543,-0.4829,-0.8104
6.9000,-0.6624,-1.0817,0.7711,1.2729,-9.7235,0.0058,-1.0828,-0.6898,-0.5743
6.9100,-0.2725,-0.6007,0.8807,1.2282,-9.7285,0.1202,-1.0634,-0.8334,-0.3264
6.9200,0.0319,-0.3406,0.8823,1.2069,-9.7291,0.2354,-1.0670,-0.9550,-0.0776
6.9300,0.1752,-0.3797,0.6527,1.2070,-9.7255,0.3518,-1.0576,-1.0753,0.1386
6.9400,0.1897,-0.6327,0.2597,1.2241,-9.7185,0.4678,-1.0316,-1.1643,0.2980
6.9500,0.2163,-0.8558,-0.1106,1.2517,-9.7088,0.5819,-1.0004,-1.2110,0.3896
6.9600,0.2420,-1.0330,-0.4399,1.2837,-9.6974,0.6925,-0.9404,-1.2414,0.4225
6.9700,0.1210,-1.1294,-0.9135,1.3149,-9.6853,0.7960,-0.8335,-1.3094,0.4082
6.9800,-0.2048,-0.9242,-1.5610,1.3401,-9.6738,0.8890,-0.6990,-1.4411,0.3411
6.9900,-0.6905,-0.6614,-2.0790,1.3531,-9.6641,0.9713,-0.5698,-1.6031,0.2163
7.0000,-1.1594,-0.4515,-2.1857,1.3492,-9.6570,1.0445,-0.4740,-1.7235,0.0494
7.0100,-1.4661,-0.1414,-2.1275,1.3255,-9.6530,1.1097,-0.3796,-1.7787,-0.1499
7.0200,-1.8531,0.1065,-2.3033,1.2797,-9.6528,1.1644,-0.2609,-1.7876,-0.3761
7.0300,-2.1866,0.2757,-2.4414,1.2108,-9.6565,1.2061,-0.1456,-1.7239,-0.6106
7.0400,-2.2143,0.4108,-2.3542,1.1202,-9.6638,1.2343,-0.0326,-1.5883,-0.8311
7.0500,-1.9999,0.4816,-2.4084,1.0116,-9.6740,1.2478,0.0922,-1.4268,-1.0087
7.0600,-1.6737,0.5078,-2.5835,0.8897,-9.6863,1.2453,0.2259,-1.2577,-1.1417
7.0700,-1.3698,0.5614,-2.6845,0.7596,-9.6997,1.2263,0.3587,-1.0422,-1.2247
7.0800,-0.7598,0.7943,-2.6322,0.6282,-9.7134,1.1919,0.4725,-0.7523,-1.2311
7.0900,-0.0101,1.1540,-2.4772,0.5027,-9.7265,1.1437,0.5875,-0.3861,-1.1978
7.1000,0.3745,1.4743,-2.5457,0.3831,-9.7392,1.0804,0.7260,0.1240,-1.2236
7.1100,0.3621,1.5854,-2.5323,0.2605,-9.7516,1.0012,0.8617,0.7987,-1.3901
7.1200,0.1151,1.4548,-2.1463,0.1227,-9.7632,0.9094,0.9659,1.4678,-1.6344
7.1300,0.6346,1.2222,-1.3338,-0.0304,-9.7725,0.8119,0.9929,1.8764,-1.7499
7.1400,2.2121,0.8277,0.1078,-0.1815,-9.7780,0.7217,0.8663,1.8105,-1.5849
7.1500,3.5516,0.3717,1.6578,-0.3095,-9.7799,0.6514,0.6303,1.2502,-1.2187
7.1600,3.9044,0.1787,2.3598,-0.4031,-9.7796,0.6049,0.3657,0.4498,-0.7977
7.1700,3.5068,0.2674,2.8440,-0.4639,-9.7782,0.5842,0.0505,-0.2879,-0.4693
7.1800,2.4843,0.5289,3.4475,-0.5053,-9.7757,0.5915,-0.2358,-0.7259,-0.3274
7.1900,1.5724,0.6406,2.8349,-0.5399,-9.7723,0.6164,-0.3252,-0.7883,-0.2844
7.2000,1.3784,0.3303,1.0169,-0.5702,-9.7691,0.6394,-0.2052,-0.6201,-0.2343
7.2100,1.5627,-0.0281,-0.5231,-0.5920,-9.7673,0.6477,-0.0218,-0.3494,-0.1424
7.2200,1.7623,-0.0887,-1.0459,-0.6021,-9.7669,0.6442,0.0799,-0.1013,-0.0701
7.2300,1.7982,-0.0412,-1.0889,-0.6041,-9.7670,0.6410,0.0959,-0.0071,-0.0526
7.2400,1.6162,0.1708,-1.0045,-0.6075,-9.7673,0.6339,0.0834,0.1799,-0.0449
7.2500,1.1373,0.3638,-0.8398,-0.6118,-9.7672,0.6307,0.0094,0.2922,-0.0751
7.2600,0.7576,0.2729,-0.9209,-0.6192,-9.7664,0.6363,-0.0812,0.3253,-0.1134
7.2700,0.6301,0.1053,-1.0031,-0.6299,-9.7647,0.6506,-0.1624,0.3931,-0.1526
7.2800,0.6166,-0.0716,-1.0366,-0.6434,-9.7624,0.6723,-0.2152,0.4729,-0.1783
7.2900,0.5976,-0.3618,-1.2467,-0.6578,-9.7597,0.6974,-0.2270,0.4885,-0.1818
7.3000,0.5454,-0.5819,-1.4885,-0.6722,-9.7569,0.7220,-0.2063,0.4565,-0.1826
7.3100,0.4115,-0.5013,-1.5250,-0.6874,-9.7541,0.7445,-0.1976,0.4117,-0.1953
7.3200,0.1896,-0.0537,-1.1927,-0.7048,-9.7510,0.7688,-0.2486,0.3708,-0.2205
7.3300,-0.0082,0.5453,-0.7296,-0.7248,-9.7470,0.8007,-0.3555,0.3353,-0.2420
7.3400,-0.0203,0.8226,-0.6270,-0.7454,-9.7419,0.8421,-0.4396,0.3223,-0.2350
7.3500,0.1465,0.6652,-0.7663,-0.7649,-9.7360,0.8911,-0.5079,0.3685,-0.2262
7.3600,0.1332,0.4551,-0.4872,-0.7834,-9.7292,0.9481,-0.5921,0.4203,-0.2280
7.3700,-0.0646,0.0072,-0.1259,-0.8016,-9.7212,1.0124,-0.6471,0.4344,-0.2315
7.3800,-0.2301,-0.8222,-0.0636,-0.8212,-9.7123,1.0799,-0.6514,0.4412,-0.2683
7.3900,-0.5773,-1.9405,-0.0430,-0.8456,-9.7028,1.1442,-0.5824,0.3742,-0.3213
7.4000,-1.0931,-3.4533,-0.1010,-0.8745,-9.6939,1.1976,-0.4632,0.1476,-0.3259
7.4100,-1.4272,-4.7485,0.0628,-0.9040,-9.6860,1.2387,-0.3986,-0.1672,-0.2718
7.4200,-1.3817,-5.2602,0.5145,-0.9307,-9.6786,1.2763,-0.4377,-0.3849,-0.1998
7.4300,-0.9612,-5.4457,0.6521,-0.9518,-9.6709,1.3184,-0.5082,-0.4306,-0.1194
7.4400,-0.4002,-5.6829,0.3975,-0.9646,-9.6629,1.3668,-0.5618,-0.3391,-0.0371
7.4500,0.1495,-5.6061,0.2797,-0.9682,-9.6546,1.4216,-0.6198,-0.1475,0.0304
7.4600,0.5661,-5.1520,0.3466,-0.9633,-9.6456,1.4845,-0.6895,0.0470,0.0802
7.4700,0.6353,-4.8426,0.3659,-0.9522,-9.6356,1.5548,-0.7334,0.2045,0.1035
7.4800,0.5890,-4.7432,0.5310,-0.9378,-9.6248,1.6287,-0.7291,0.3659,0.0987
7.4900,0.7507,-4.5227,0.9516,-0.9205,-9.6140,1.7010,-0.6774,0.4865,0.1157
7.5000,1.0840,-3.9669,1.4865,-0.8971,-9.6041,1.7681,-0.6051,0.5719,0.1846
7.5100,1.3912,-3.1801,1.8806,-0.8625,-9.5961,1.8278,-0.5132,0.6517,0.3096
7.5200,1.5011,-2.4046,1.8523,-0.8117,-9.5909,1.8776,-0.4054,0.7143,0.4792
7.5300,1.4162,-1.5588,1.5275,-0.7431,-9.5882,1.9191,-0.3403,0.7815,0.6437
7.5400,1.2288,-0.6325,1.0319,-0.6587,-9.5868,1.9565,-0.3197,0.8125,0.7790
7.5500,1.0170,0.1238,0.2341,-0.5622,-9.5857,1.9916,-0.3046,0.7660,0.8953
7.5600,0.9844,0.6051,-0.6694,-0.4558,-9.5846,2.0236,-0.2814,0.6564,1.0132
7.5700,1.1306,0.8067,-1.4546,-0.3406,-9.5836,2.0509,-0.2335,0.4849,1.1297
7.5800,1.1016,0.6853,-2.1906,-0.2190,-9.5829,2.0702,-0.1369,0.2688,1.2257
7.5900,0.9808,0.2943,-2.7973,-0.0940,-9.5835,2.0769,0.0106,0.0929,1.2878
7.6000,1.0222,-0.1999,-3.1069,0.0327,-9.5861,2.0669,0.2006,0.0509,1.3062
7.6100,1.0452,-0.6793,-3.1931,0.1597,-9.5913,2.0366,0.4267,0.1441,1.2863
7.6200,1.0101,-1.1160,-3.1690,0.2875,-9.5994,1.9833,0.6621,0.3003,1.2746
7.6300,1.1136,-1.3964,-2.9261,0.4196,-9.6098,1.9080,0.8607,0.4514,1.3145
7.6400,1.2752,-1.4560,-2.4661,0.5607,-9.6205,1.8147,1.0109,0.5579,1.4120
7.6500,1.3273,-1.4312,-2.0490,0.7141,-9.6299,1.7076,1.1217,0.5772,1.5520
7.6600,1.2868,-1.4402,-1.6190,0.8808,-9.6359,1.5916,1.1749,0.5001,1.6998
7.6700,1.1057,-1.4154,-0.9100,1.0582,-9.6367,1.4743,1.1455,0.3918,1.8124
7.6800,0.6757,-1.3281,0.0972,1.2410,-9.6310,1.3652,1.0144,0.2963,1.8486
7.6900,-0.1380,-1.0777,1.3174,1.4205,-9.6187,1.2743,0.7863,0.1974,1.7768
7.7000,-1.2830,-0.5546,2.5095,1.5861,-9.6013,1.2098,0.4938,0.1237,1.5977
7.7100,-2.1486,0.0411,3.4487,1.7309,-9.5807,1.1745,0.1902,0.1569,1.3731
7.7200,-2.2993,0.4986,4.0282,1.8564,-9.5584,1.1654,-0.0757,0.2734,1.1918
7.7300,-2.0430,0.9501,4.2064,1.9694,-9.5344,1.1765,-0.2726,0.3354,1.0962
7.7400,-1.9614,1.5959,4.0885,2.0764,-9.5085,1.2013,-0.3645,0.2700,1.0647
7.7500,-2.1576,2.2588,3.8362,2.1801,-9.4815,1.2315,-0.3426,0.1223,1.0535
7.7600,-2.4243,2.6698,3.5792,2.2780,-9.4548,1.2591,-0.2371,-0.1125,0.9905
7.7700,-3.0555,2.7490,3.2809,2.3622,-9.4311,1.2819,-0.1129,-0.4192,0.8453
7.7800,-3.3292,2.6742,3.2208,2.4275,-9.4116,1.3033,-0.0704,-0.6871,0.6915
7.7900,-3.0645,2.9060,3.4212,2.4765,-9.3947,1.3325,-0.1341,-0.9246,0.5767
7.8000,-3.1056,3.2668,3.0102,2.5125,-9.3790,1.3751,-0.2140,-1.1290,0.4883
7.8100,-2.9882,3.2349,1.8527,2.5397,-9.3641,1.4259,-0.2359,-1.1283,0.4340
7.8200,-2.3146,2.9459,0.4595,2.5650,-9.3502,1.4714,-0.1753,-0.8455,0.4184
7.8300,-1.6900,2.6540,-0.9631,2.5954,-9.3376,1.4979,-0.0418,-0.3592,0.4220
7.8400,-1.4315,2.4745,-2.3726,2.6341,-9.3272,1.4951,0.1356,0.2566,0.4175
7.8500,-1.4281,2.4016,-3.4644,2.6796,-9.3197,1.4601,0.2823,0.8422,0.3730
7.8600,-1.8738,2.4437,-3.5368,2.7249,-9.3150,1.4050,0.2659,1.2021,0.2667
7.8700,-2.5112,2.6628,-2.4529,2.7613,-9.3118,1.3547,0.0602,1.2450,0.1439
7.8800,-2.6516,2.9940,-1.2540,2.7858,-9.3083,1.3287,-0.1873,1.0604,0.0493
7.8900,-2.4738,3.1122,-0.7743,2.7991,-9.3045,1.3272,-0.3213,0.7958,-0.0296
7.9000,-2.4595,2.8811,-0.5945,2.8014,-9.3021,1.3393,-0.3190,0.5266,-0.1122
7.9100,-2.4762,2.6071,-0.3535,2.7921,-9.3027,1.3540,-0.2393,0.3064,-0.2064
7.9200,-2.4351,2.4290,-0.1448,2.7714,-9.3072,1.3658,-0.1426,0.1281,-0.2965
7.9300,-2.3305,2.2793,-0.0084,2.7406,-9.3151,1.3739,-0.0588,-0.0441,-0.3735
7.9400,-2.2554,2.1066,0.0049,2.7003,-9.3259,1.3803,-0.0021,-0.2439,-0.4440
7.9500,-2.3087,1.9500,0.0257,2.6500,-9.3390,1.3893,0.0208,-0.5043,-0.5148
7.9600,-2.3661,1.7586,0.0115,2.5899,-9.3536,1.4040,0.0408,-0.8277,-0.5589
7.9700,-2.1589,1.5504,-0.1081,2.5227,-9.3689,1.4245,0.0688,-1.1687,-0.5641
7.9800,-1.7762,1.3748,-0.2286,2.4503,-9.3842,1.4498,0.1001,-1.4875,-0.5637
7.9900,-1.3926,1.1515,-0.4230,2.3725,-9.3997,1.4781,0.1350,-1.7583,-0.5753
8.0000,-0.8989,0.8940,-0.6820,2.2894,-9.4157,1.5073,0.1703,-1.9465,-0.5886
8.0100,-0.3098,0.5329,-0.9451,2.2030,-9.4319,1.5342,0.2148,-2.0288,-0.5867
8.0200,0.2783,-0.0180,-1.1091,2.1170,-9.4481,1.5557,0.2602,-2.0222,-0.5572
8.0300,0.7540,-0.5069,-1.0666,2.0352,-9.4635,1.5713,0.2849,-1.9482,-0.5019
8.0400,1.1663,-0.8589,-0.9230,1.9610,-9.4776,1.5804,0.3264,-1.8172,-0.4247
8.0500,1.6194,-0.9670,-0.7942,1.8972,-9.4909,1.5787,0.4156,-1.6336,-0.3392
8.0600,2.0468,-0.5553,-0.6290,1.8441,-9.5041,1.5625,0.5209,-1.3841,-0.2744
8.0700,2.4281,0.1924,-0.4153,1.8008,-9.5175,1.5311,0.6082,-1.0823,-0.2311
8.0800,2.7704,0.9552,-0.1011,1.7668,-9.5310,1.4860,0.6731,-0.7306,-0.1885
8.0900,2.9650,1.5292,0.3774,1.7435,-9.5441,1.4284,0.7176,-0.3342,-0.1293
8.1000,2.7262,1.8775,1.0179,1.7323,-9.5559,1.3613,0.7260,0.0450,-0.0619
8.1100,1.8883,2.0486,1.7020,1.7315,-9.5660,1.2893,0.6947,0.3418,-0.0099
8.1200,0.7703,2.0985,2.1917,1.7374,-9.5744,1.2172,0.6403,0.5231,0.0108
8.1300,-0.3378,2.0185,2.4229,1.7437,-9.5818,1.1484,0.5862,0.5769,-0.0235
8.1400,-1.3231,1.6904,2.4853,1.7435,-9.5892,1.0846,0.5365,0.5182,-0.1131
8.1500,-2.0137,1.0531,2.5709,1.7320,-9.5976,1.0277,0.4712,0.3888,-0.2290
8.1600,-2.4356,0.0205,2.7871,1.7076,-9.6067,0.9822,0.3616,0.1827,-0.3320
8.1700,-2.7037,-1.2996,2.9337,1.6733,-9.6156,0.9539,0.2043,-0.1071,-0.3745
8.1800,-2.7395,-2.4082,2.7191,1.6362,-9.6228,0.9462,0.0513,-0.4535,-0.3327
8.1900,-2.4285,-3.1193,2.2446,1.6012,-9.6277,0.9563,-0.0328,-0.8284,-0.2638
8.2000,-1.5198,-3.8411,1.9042,1.5676,-9.6313,0.9755,-0.0329,-1.1037,-0.2407
8.2100,0.6127,-4.6560,1.7430,1.5334,-9.6349,0.9933,0.0178,-0.9687,-0.2459
8.2200,3.6747,-4.7843,1.2911,1.5041,-9.6391,0.9983,0.0867,-0.2725,-0.2176
8.2300,5.3638,-3.4841,0.4978,1.4888,-9.6428,0.9848,0.1285,0.6371,-0.1267
8.2400,4.6463,-1.5142,-0.0260,1.4934,-9.6448,0.9576,0.1197,1.3154,0.0291
8.2500,2.8587,-0.0234,-0.1694,1.5188,-9.6440,0.9257,0.0693,1.5804,0.2067
8.2600,0.6780,1.3433,-0.3045,1.5581,-9.6393,0.9093,-0.1851,1.2401,0.3175
8.2700,-1.7966,2.6030,-0.8098,1.5991,-9.6305,0.9300,-0.4851,0.3943,0.3677
8.2800,-3.3610,2.1669,-1.2688,1.6366,-9.6192,0.9810,-0.5108,-0.4857,0.4271
8.2900,-3.6057,0.5061,-1.0908,1.6720,-9.6075,1.0339,-0.3023,-1.0944,0.4657
8.3000,-3.6638,-0.0831,-0.4135,1.6999,-9.5981,1.0755,-0.1462,-1.4000,0.3661
8.3100,-3.8000,0.6688,0.4039,1.7075,-9.5920,1.1169,-0.2119,-1.4886,0.1133
8.3200,-3.5419,1.3149,0.7418,1.6873,-9.5894,1.1684,-0.3269,-1.4750,-0.1788
8.3300,-3.0515,1.0756,0.5131,1.6395,-9.5903,1.2274,-0.3716,-1.5139,-0.4335
8.3400,-2.6962,0.3737,0.2949,1.5674,-9.5943,1.2883,-0.3554,-1.6683,-0.6411
8.3500,-2.2445,-0.2866,0.3972,1.4733,-9.6010,1.3482,-0.3268,-1.8505,-0.8210
8.3600,-1.0855,-0.8201,0.6726,1.3614,-9.6092,1.4055,-0.3091,-1.8813,-0.9448
8.3700,1.2375,-1.2381,0.9403,1.2436,-9.6173,1.4585,-0.3079,-1.6418,-0.9433
8.3800,3.7322,-1.2863,1.1438,1.1376,-9.6231,1.5067,-0.3400,-1.1728,-0.7950
8.3900,5.0396,-0.9355,1.3272,1.0590,-9.6248,1.5529,-0.4088,-0.6416,-0.5308
8.4000,4.9306,-0.4861,1.3929,1.0168,-9.6215,1.6005,-0.4833,-0.2136,-0.1980
8.4100,3.8219,-0.0779,1.2231,1.0133,-9.6134,1.6510,-0.5446,0.0319,0.1503
8.4200,2.2790,0.3063,0.9471,1.0441,-9.6005,1.7054,-0.5974,0.1069,0.4509
8.4300,0.6942,0.5467,0.7651,1.0996,-9.5836,1.7643,-0.6456,0.0796,0.6512
8.4400,-0.6880,0.5807,0.6798,1.1676,-9.5637,1.8279,-0.6790,-0.0112,0.7320
8.4500,-1.8017,0.4979,0.5095,1.2351,-9.5421,1.8949,-0.6924,-0.1545,0.6916
8.4600,-2.5709,0.3914,0.2371,1.2906,-9.5208,1.9641,-0.6850,-0.3037,0.5505
8.4700,-2.7980,0.3526,-0.1150,1.3265,-9.5014,2.0328,-0.6467,-0.4211,0.3489
8.4800,-2.6087,0.3356,-0.5243,1.3391,-9.4855,2.0979,-0.5828,-0.5009,0.1126
8.4900,-2.2877,0.2908,-0.9081,1.3266,-9.4740,2.1571,-0.5093,-0.5604,-0.1365
8.5000,-1.9576,0.2599,-1.2618,1.2894,-9.4670,2.2096,-0.4301,-0.6225,-0.3692
8.5100,-1.5680,0.1726,-1.6006,1.2307,-9.4643,2.2540,-0.3287,-0.6665,-0.5491
8.5200,-0.9448,0.0879,-1.8545,1.1573,-9.4654,2.2880,-0.2204,-0.6100,-0.6761
8.5300,-0.1806,0.2182,-1.9129,1.0763,-9.4696,2.3102,-0.1293,-0.4327,-0.7628
8.5400,0.4564,0.1402,-1.6611,0.9946,-9.4755,2.3227,-0.0708,-0.1956,-0.7899
8.5500,0.9325,-0.2520,-1.1750,0.9192,-9.4815,2.3291,-0.0542,0.0520,-0.7512
8.5600,1.2549,-0.5074,-0.6598,0.8553,-9.4864,2.3338,-0.0797,0.2836,-0.6675
8.5700,1.3637,-0.4798,-0.1782,0.8056,-9.4889,2.3414,-0.1517,0.4803,-0.5619
8.5800,1.2608,-0.1782,0.1250,0.7702,-9.4882,2.3560,-0.2504,0.6084,-0.4528
8.5900,0.9478,0.2782,0.2034,0.7469,-9.4838,2.3812,-0.3833,0.6515,-0.3541
8.6000,0.5612,0.8104,0.2128,0.7332,-9.4747,2.4211,-0.5561,0.6101,-0.2554
8.6100,0.1873,1.1209,0.1915,0.7274,-9.4601,2.4792,-0.7525,0.4853,-0.1515
8.6200,-0.1553,1.0759,0.2312,0.7277,-9.4389,2.5583,-0.9785,0.2878,-0.0511
8.6300,-0.3899,0.6780,0.3645,0.7317,-9.4100,2.6614,-1.2232,0.0253,0.0513
8.6400,-0.4658,-0.0804,0.3538,0.7383,-9.3728,2.7876,-1.4172,-0.3043,0.1740
8.6500,-0.3613,-0.9630,0.0325,0.7473,-9.3290,2.9286,-1.4846,-0.6721,0.3230
8.6600,-0.1195,-1.6561,-0.4828,0.7590,-9.2822,3.0709,-1.4004,-1.0105,0.4733
8.6700,0.1483,-1.9819,-0.9521,0.7724,-9.2373,3.2003,-1.1721,-1.2525,0.5850
8.6800,0.3867,-2.0166,-1.2506,0.7865,-9.1999,3.3034,-0.8173,-1.3409,0.6378
8.6900,0.5310,-1.8600,-1.3047,0.8013,-9.1742,3.3706,-0.4088,-1.2223,0.6145
8.7000,0.5608,-1.4873,-1.0396,0.8171,-9.1621,3.3997,-0.0408,-0.9044,0.5112
8.7100,0.4543,-0.9132,-0.5847,0.8339,-9.1618,3.3965,0.2148,-0.4593,0.3590
8.7200,0.2314,-0.2189,-0.0837,0.8517,-9.1688,3.3731,0.3112,0.0258,0.1891
8.7300,-0.0552,0.3593,0.4103,0.8700,-9.1780,3.3432,0.2781,0.4589,0.0314
8.7400,-0.3799,0.6465,0.7159,0.8879,-9.1862,3.3158,0.1958,0.7582,-0.0846
8.7500,-0.6475,0.6945,0.7524,0.9046,-9.1926,3.2937,0.1245,0.8812,-0.1432
8.7600,-0.8088,0.5756,0.6944,0.9197,-9.1973,3.2763,0.0844,0.8494,-0.1487
8.7700,-0.8284,0.4463,0.7094,0.9328,-9.2010,3.2623,0.0621,0.7098,-0.1210
8.7800,-0.7309,0.3562,0.8126,0.9439,-9.2037,3.2513,0.0532,0.5363,-0.0782
8.7900,-0.4815,0.1592,0.9687,0.9539,-9.2060,3.2418,0.0572,0.3886,-0.0275
8.8000,-0.1904,0.1031,1.1411,0.9646,-9.2077,3.2338,0.0400,0.2716,0.0298
8.8100,0.0413,0.3289,1.2417,0.9780,-9.2078,3.2297,-0.0029,0.2208,0.0909
8.8200,0.3002,0.3561,1.2195,0.9969,-9.2057,3.2298,-0.0481,0.2403,0.1588
8.8300,0.5161,0.1451,1.1988,1.0239,-9.2016,3.2330,-0.0857,0.3347,0.2253
8.8400,0.6872,0.0017,1.2474,1.0610,-9.1956,3.2380,-0.1197,0.5222,0.2764
8.8500,0.7358,0.0582,1.1151,1.1086,-9.1879,3.2440,-0.1540,0.7197,0.3147
8.8600,0.5132,0.1955,0.7243,1.1646,-9.1786,3.2505,-0.1821,0.8410,0.3433
8.8700,0.1368,0.1955,0.3938,1.2253,-9.1679,3.2585,-0.2056,0.8303,0.3754
8.8800,-0.2270,0.1004,0.2025,1.2868,-9.1560,3.2681,-0.2115,0.7185,0.4044
8.8900,-0.4452,0.0174,-0.0717,1.3458,-9.1440,3.2781,-0.1850,0.5529,0.4163
8.9000,-0.6966,-0.0234,-0.4148,1.3972,-9.1330,3.2871,-0.1354,0.2957,0.3904
8.9100,-1.1645,-0.0254,-0.6374,1.4347,-9.1245,3.2947,-0.0730,0.0007,0.3171
8.9200,-1.3431,0.0570,-0.7418,1.4559,-9.1191,3.3004,-0.0153,-0.2263,0.2312
8.9300,-1.1109,0.1882,-0.7470,1.4639,-9.1164,3.3044,0.0176,-0.3568,0.1617
8.9400,-0.7891,0.2861,-0.6587,1.4639,-9.1152,3.3078,0.0296,-0.3840,0.1169
8.9500,-0.3955,0.3432,-0.5715,1.4615,-9.1148,3.3098,0.0399,-0.3134,0.0895
8.9600,-0.0452,0.3772,-0.5369,1.4604,-9.1153,3.3088,0.0639,-0.1702,0.0638
8.9700,0.1916,0.3212,-0.5256,1.4622,-9.1172,3.3028,0.0960,0.0015,0.0364
8.9800,0.3021,0.1680,-0.4383,1.4661,-9.1196,3.2946,0.1044,0.0987,0.0319
8.9900,0.3143,0.0820,-0.3657,1.4683,-9.1205,3.2910,0.0973,0.1115,0.0400
9.0000,0.3554,-0.0781,-0.1821,1.4755,-9.1225,3.2824,0.0829,0.1493,0.0542
9.0100,0.4422,-0.1993,-0.1192,1.4865,-9.1241,3.2727,0.0741,0.1784,0.0652
9.0200,0.4642,-0.2592,-0.2227,1.4984,-9.1257,3.2631,0.0800,0.1741,0.0676
9.0300,0.3578,-0.2848,-0.2815,1.5095,-9.1276,3.2526,0.0956,0.1471,0.0581
9.0400,0.2559,-0.3103,-0.2496,1.5186,-9.1302,3.2411,0.1116,0.1179,0.0471
9.0500,0.2059,-0.3055,-0.1757,1.5261,-9.1333,3.2287,0.1218,0.0969,0.0424
9.0600,0.1450,-0.2513,-0.0765,1.5329,-9.1366,3.2161,0.1226,0.0870,0.0432
9.0700,0.0589,-0.1829,0.0414,1.5401,-9.1398,3.2036,0.1183,0.1013,0.0466
9.0800,-0.0199,-0.1243,0.1638,1.5482,-9.1428,3.1911,0.1137,0.1354,0.0487
9.0900,-0.0958,-0.0658,0.2812,1.5577,-9.1455,3.1786,0.1064,0.1675,0.0514
9.1000,-0.2008,-0.0015,0.3764,1.5682,-9.1479,3.1667,0.0926,0.1741,0.0563
9.1100,-0.3209,0.0832,0.4371,1.5787,-9.1496,3.1563,0.0763,0.1525,0.0585
9.1200,-0.4015,0.1755,0.4869,1.5880,-9.1509,3.1478,0.0634,0.1181,0.0500
9.1300,-0.4276,0.2313,0.5447,1.5949,-9.1521,3.1409,0.0532,0.0843,0.0295
9.1400,-0.4136,0.2550,0.6027,1.5987,-9.1533,3.1355,0.0377,0.0470,0.0071
9.1500,-0.3626,0.2604,0.6662,1.5994,-9.1542,3.1327,0.0145,0.0005,-0.0089
9.1600,-0.2866,0.2283,0.6870,1.5973,-9.1545,3.1329,-0.0093,-0.0486,-0.0181
9.1700,-0.1928,0.1799,0.6096,1.5932,-9.1543,3.1356,-0.0231,-0.0873,-0.0222
9.1800,-0.0876,0.1581,0.4750,1.5878,-9.1539,3.1394,-0.0264,-0.1082,-0.0259
9.1900,0.0130,0.1467,0.3542,1.5818,-9.1534,3.1438,-0.0302,-0.1143,-0.0257
9.2000,0.1162,0.1221,0.2595,1.5762,-9.1527,3.1486,-0.0364,-0.1110,-0.0162
9.2100,0.2155,0.0983,0.1613,1.5719,-9.1517,3.1538,-0.0386,-0.1002,-0.0007
9.2200,0.2725,0.0705,0.0686,1.5697,-9.1504,3.1587,-0.0349,-0.0787,0.0163
9.2300,0.2685,0.0180,0.0216,1.5698,-9.1490,3.1626,-0.0277,-0.0448,0.0286
9.2400,0.2278,-0.0466,0.0198,1.5719,-9.1478,3.1651,-0.0192,-0.0001,0.0350
9.2500,0.1655,-0.0853,0.0248,1.5759,-9.1467,3.1662,-0.0122,0.0458,0.0370
9.2600,0.0605,-0.0739,0.0024,1.5811,-9.1458,3.1662,-0.0092,0.0761,0.0335
9.2700,-0.0771,-0.0362,-0.0474,1.5865,-9.1451,3.1657,-0.0062,0.0827,0.0263
9.2800,-0.1926,-0.0134,-0.0995,1.5908,-9.1446,3.1647,0.0005,0.0698,0.0165
9.2900,-0.2428,0.0041,-0.1241,1.5935,-9.1446,3.1633,0.0101,0.0491,0.0027
9.3000,-0.2256,0.0269,-0.1103,1.5943,-9.1452,3.1614,0.0183,0.0280,-0.0125
9.3100,-0.1866,0.0501,-0.0457,1.5931,-9.1461,3.1592,0.0218,0.0117,-0.0254
9.3200,-0.1546,0.0540,0.0541,1.5904,-9.1473,3.1573,0.0184,0.0039,-0.0372
9.3300,-0.1005,0.0143,0.1501,1.5867,-9.1484,3.1558,0.0109,0.0067,-0.0462
9.3400,-0.0438,-0.0220,0.2001,1.5825,-9.1494,3.1551,0.0008,0.0146,-0.0494
9.3500,-0.0134,-0.0085,0.1872,1.5785,-9.1500,3.1553,-0.0096,0.0174,-0.0479
9.3600,-0.0088,0.0412,0.0911,1.5748,-9.1503,3.1563,-0.0156,0.0129,-0.0431
9.3700,-0.0066,0.0704,-0.0368,1.5713,-9.1504,3.1577,-0.0167,0.0039,-0.0378
9.3800,0.0084,0.0420,-0.1139,1.5680,-9.1506,3.1590,-0.0116,-0.0056,-0.0330
9.3900,0.0288,-0.0267,-0.1454,1.5649,-9.1508,3.1597,0.0003,-0.0085,-0.0282
9.4000,0.0531,-0.0594,-0.1541,1.5624,-9.1515,3.1591,0.0128,-0.0004,-0.0239
9.4100,0.0512,-0.0260,-0.1415,1.5606,-9.1523,3.1576,0.0181,0.0135,-0.0181
9.4200,0.0357,0.0260,-0.1103,1.5598,-9.1531,3.1556,0.0185,0.0297,-0.0128
9.4300,0.0202,0.0561,-0.0805,1.5600,-9.1538,3.1536,0.0186,0.0485,-0.0092
9.4400,-0.0079,0.0583,-0.0505,1.5611,-9.1544,3.1512,0.0172,0.0638,-0.0073
9.4500,-0.0303,0.0387,-0.0039,1.5626,-9.1550,3.1487,0.0136,0.0685,-0.0065
9.4600,-0.0531,0.0078,0.0399,1.5640,-9.1555,3.1467,0.0067,0.0608,-0.0067
9.4700,-0.0833,0.0183,0.0509,1.5649,-9.1557,3.1455,-0.0007,0.0428,-0.0102
9.4800,-0.0919,0.0424,0.0464,1.5647,-9.1559,3.1451,-0.0069,0.0181,-0.0159
9.4900,-0.0824,0.0565,0.0522,1.5637,-9.1558,3.1458,-0.0133,0.0057,-0.0122
9.5000,-0.0031,0.0440,0.0876,1.5639,-9.1554,3.1468,-0.0155,0.0299,0.0072
9.5100,0.0992,0.0045,0.1292,1.5671,-9.1548,3.1472,-0.0113,0.0701,0.0230
9.5200,0.0848,-0.0020,0.1693,1.5715,-9.1542,3.1467,-0.0074,0.0831,0.0146
9.5300,0.0091,0.0191,0.2222,1.5737,-9.1539,3.1464,-0.0123,0.0520,-0.0166
9.5400,-0.0232,0.0397,0.2424,1.5710,-9.1539,3.1477,-0.0226,-0.0109,-0.0548
9.5500,0.0340,0.0367,0.2165,1.5631,-9.1543,3.1507,-0.0254,-0.0655,-0.0849
