time,seconds_elapsed,z,y,x
1759336142430560000,0.18956005859375,8.171710014343262,5.193322658538818,0.7948749661445618
1759336142440560000,0.19956005859375,8.224382400512695,5.128679275512695,0.751779317855835
1759336142450560000,0.20956005859375,8.03763484954834,5.061641693115234,1.0989385843276978
1759336142460560100,0.21956005859375,7.860463619232178,4.915595531463623,1.338358759880066
1759336142470560000,0.22956005859375,7.8437042236328125,4.9706621170043945,1.4628572463989258
1759336142480560000,0.23956005859375,7.649773597717285,4.939537525177002,1.7860745191574097
1759336142490560000,0.24956005859375,7.527669429779053,5.049670696258545,1.843535304069519
1759336142500560100,0.25956005859375,7.71202278137207,5.152621269226074,1.680729627609253
1759336142510560000,0.26956005859375,8.119037628173828,5.143044471740723,1.4844050407409668
1759336142520560000,0.27956005859375,8.336909294128418,5.200505256652832,1.3838485479354858
1759336142530560300,0.289560302734375,8.394370079040527,5.2340240478515625,1.41257905960083
1759336142540560400,0.299560302734375,8.482955932617188,5.176563262939453,1.4413094520568848
1759336142550560300,0.309560302734375,8.535628318786621,5.1238908767700195,1.3886369466781616
1759336142560560400,0.319560302734375,8.451830863952637,4.505887508392334,1.9177556037902832
1759336142570560300,0.329560302734375,8.65054988861084,4.920383930206299,0.6248866319656372
1759336142580560400,0.339560302734375,8.102277755737305,5.633855819702148,0.8786720037460327
1759336142590560300,0.349560302734375,8.41112995147705,5.363311290740967,0.8619126081466675
1759336142600560400,0.359560302734375,8.408735275268555,5.011363506317139,0.9696516990661621
1759336142610560300,0.369560302734375,8.372822761535645,5.03291130065918,1.0582371950149536
1759336142620558800,0.379558837890625,8.262689590454102,5.035305500030518,0.8882488012313843
1759336142630559000,0.38955908203125,7.941866397857666,5.20289945602417,0.828393816947937
1759336142640558800,0.399558837890625,7.853281021118164,5.245995044708252,0.8738836050033569
1759336142650559000,0.40955908203125,7.90355920791626,5.265148639678955,0.8571242094039917
1759336142660558800,0.419558837890625,8.123826026916504,5.205293655395508,0.9888052940368652
1759336142670559000,0.42955908203125,8.37761116027832,5.0807952880859375,1.0558429956436157
1759336142680558800,0.439558837890625,8.719982147216797,4.888959884643555,1.2066776752471924
1759336142690559000,0.44955908203125,8.657732963562012,5.0807952880859375,1.1659762859344482
1759336142700558800,0.459558837890625,8.408735275268555,5.353734493255615,0.9911994934082031
1759336142710559000,0.46955908203125,8.133402824401855,5.4159836769104,0.9241618514060974
1759336142720558800,0.479558837890625,8.518868446350098,5.1454386711120605,0.8044517636299133
1759336142730559000,0.48955908203125,8.624214172363281,5.1023430824279785,0.7781155705451965
1759336142740558800,0.499558837890625,8.324938774108887,5.11191987991333,1.094150185585022
1759336142750559000,0.50955908203125,8.430283546447754,5.0161519050598145,0.9074024558067322
1759336142760558800,0.519558837890625,8.1046724319458,5.109525680541992,0.811634361743927
1759336142770559000,0.52955908203125,8.042423248291016,5.176563262939453,0.8307880163192749
1759336142780558800,0.539558837890625,8.001721382141113,5.166986465454102,0.8906430602073669
1759336142790559000,0.54955908203125,8.16452693939209,5.20289945602417,0.9672574996948242
1759336142800558800,0.559558837890625,8.281843185424805,5.272331237792969,1.0534487962722778
1759336142810559000,0.56955908203125,8.334515571594238,5.310638427734375,1.0582371950149536
1759336142830558000,0.589557861328125,8.41352367401123,5.289090633392334,1.1013327836990356
1759336142840557800,0.599557861328125,8.4015531539917,5.289090633392334,1.0845733880996704
1759336142850558000,0.609557861328125,8.308178901672363,5.265148639678955,1.0773907899856567
1759336142860557800,0.619557861328125,8.150161743164062,5.250783443450928,1.0869675874710083
1759336142870558000,0.629557861328125,8.080730438232422,5.20289945602417,1.0845733880996704
1759336142880557800,0.639557861328125,8.059182167053223,5.178957462310791,1.0630255937576294
1759336142890558000,0.649557861328125,7.889194011688232,5.178957462310791,1.1851298809051514
1759336142900557800,0.659557861328125,7.814973831176758,5.183745861053467,1.2210428714752197
1759336142910558000,0.669557861328125,7.829339027404785,5.226841449737549,1.1994950771331787
1759336142920558800,0.679558837890625,7.905953407287598,5.310638427734375,1.1971008777618408
1759336142930558700,0.689558837890625,8.075942039489746,5.3704938888549805,1.1851298809051514
1759336142940558800,0.699558837890625,8.202834129333496,5.399224281311035,1.2473790645599365
1759336142950558700,0.709558837890625,8.298602104187012,5.463867664337158,1.2473790645599365
1759336142960558800,0.719558837890625,8.260294914245605,5.46147346496582,1.2665326595306396
1759336142970558700,0.729558837890625,8.121431350708008,5.404012680053711,1.2880805730819702
1759336142980558800,0.739558837890625,8.083124160766602,5.351340293884277,1.3120225667953491
1759336142990558700,0.749558837890625,8.049605369567871,5.329792022705078,1.2952631711959839
1759336143000558800,0.759558837890625,8.085518836975098,5.269937038421631,1.3311761617660522
1759336143010558700,0.769558837890625,8.080730438232422,5.274725437164307,1.3407529592514038
1759336143020558000,0.77955810546875,8.056788444519043,5.28190803527832,1.3335703611373901
1759336143030558000,0.789557861328125,8.066365242004395,5.320215225219727,1.3263877630233765
1759336143040558000,0.79955810546875,8.025663375854492,5.363311290740967,1.2856862545013428
1759336143050558000,0.809557861328125,8.085518836975098,5.365705490112305,1.2545616626739502
1759336143060558000,0.81955810546875,8.770259857177734,5.121496677398682,1.1971008777618408
1759336143070558000,0.829557861328125,7.934683799743652,5.540482044219971,0.8259995579719543
1759336143080558000,0.83955810546875,7.901165008544922,5.590760231018066,1.3048399686813354
1759336143090558000,0.849557861328125,8.456619262695312,5.166986465454102,1.4867992401123047
1759336143100558000,0.85955810546875,8.250718116760254,5.305850028991699,0.9959878921508789
1759336143110558000,0.869557861328125,7.558794021606445,5.50696325302124,1.3263877630233765
1759336143120558800,0.879558837890625,7.965808391571045,5.286696434020996,1.3455413579940796
1759336143130559000,0.88955908203125,8.16213321685791,5.231629848480225,1.2689268589019775
1759336143140558800,0.899558837890625,8.042423248291016,5.442319869995117,1.3215993642807007
1759336143150559000,0.90955908203125,8.28663158416748,5.32739782333374,1.3000515699386597
1759336143160558800,0.919558837890625,7.9538373947143555,5.430348873138428,1.0965443849563599
1759336143170559000,0.92955908203125,7.848492622375488,5.451896667480469,1.2689268589019775
1759336143180558800,0.939558837890625,8.049605369567871,5.286696434020996,1.235408067703247
1759336143190559000,0.94955908203125,8.171710014343262,5.279513835906982,1.3024457693099976
1759336143200558800,0.959558837890625,7.956231594085693,5.459079265594482,1.2737152576446533
1759336143210558500,0.969558349609375,8.150161743164062,5.4135894775390625,1.403002142906189
1759336143220557600,0.9795576171875,8.152556419372559,5.408801078796387,1.338358759880066
1759336143230557700,0.9895576171875,8.183680534362793,5.468656063079834,1.3623007535934448
1759336143240557600,0.9995576171875,8.140584945678711,5.430348873138428,1.2497732639312744
1759336143250557700,1.0095576171875,7.94904899597168,5.399224281311035,1.2976573705673218
1759336143260557600,1.0195576171875,7.838915824890137,5.365705490112305,1.3120225667953491
1759336143270557700,1.0295576171875,7.795820236206055,5.358522891998291,1.2761094570159912
1759336143280557600,1.0395576171875,7.764695167541504,5.399224281311035,1.292868971824646
1759336143290557700,1.0495576171875,7.853281021118164,5.332186222076416,1.3862427473068237
1759336143300557600,1.0595576171875,7.893982410430908,5.217264652252197,1.359906554222107
1759336143310557700,1.0695576171875,8.028057098388672,5.284302234649658,1.3431471586227417
1759336143320558600,1.07955859375,8.190863609313965,5.494992256164551,1.335964560508728
1759336143330558500,1.089558349609375,8.243535995483398,5.583577632904053,1.3694833517074585
1759336143340558300,1.099558349609375,8.183680534362793,5.55245304107666,1.3670891523361206
1759336143350558500,1.109558349609375,8.135796546936035,5.504569053649902,1.3934253454208374
1759336143360558300,1.119558349609375,8.23156452178955,5.114314079284668,1.5298948287963867
1759336143370558500,1.129558349609375,7.9945387840271,5.186140060424805,1.6184803247451782
1759336143380558300,1.139558349609375,8.01608657836914,5.147832870483398,1.53707754611969
1759336143390558500,1.149558349609375,7.9945387840271,5.296273231506348,1.3838485479354858
1759336143400558300,1.159558349609375,7.882011413574219,5.664980411529541,1.2306196689605713
1759336143410558500,1.169558349609375,7.8652520179748535,5.822998046875,1.1204863786697388
1759336143420557600,1.1795576171875,8.200440406799316,5.387253284454346,1.2210428714752197
1759336143430557700,1.1895576171875,8.308178901672363,5.3226094245910645,1.2210428714752197
1759336143440557600,1.1995576171875,8.351274490356445,5.466261863708496,1.2186486721038818
1759336143450557400,1.209557373046875,8.336909294128418,5.51893424987793,1.3455413579940796
1759336143460557600,1.2195576171875,8.279448509216309,5.533299446105957,1.41257905960083
1759336143470557400,1.229557373046875,8.236352920532227,5.499780654907227,1.4173674583435059
1759336143480557600,1.2395576171875,8.19565200805664,5.24838924407959,1.4867992401123047
1759336143490557700,1.2495576171875,8.07115364074707,5.2340240478515625,1.525106430053711
1759336143500557600,1.2595576171875,7.963414192199707,5.396830081939697,1.5275006294250488
1759336143510558000,1.269557861328125,7.855675220489502,5.394435882568359,1.4317326545715332
1759336143520558800,1.279558837890625,7.898770809173584,5.356128692626953,1.4508862495422363
1759336143530558700,1.289558837890625,7.999327182769775,5.399224281311035,1.4317326545715332
1759336143540558800,1.299558837890625,8.207622528076172,5.396830081939697,1.4484920501708984
1759336143550559000,1.30955908203125,8.475772857666016,5.286696434020996,1.5466543436050415
1759336143560558800,1.319558837890625,8.629002571105957,5.530905246734619,1.4508862495422363
1759336143570559000,1.32955908203125,8.432677268981934,5.777507781982422,1.4053963422775269
1759336143580558800,1.339558837890625,8.245929718017578,5.858911037445068,1.381454348564148
1759336143590558700,1.349558837890625,8.063970565795898,5.875670433044434,1.37906014919281
1759336143600558800,1.359558837890625,7.968202590942383,5.911583423614502,1.3886369466781616
1759336143610558700,1.369558837890625,8.554781913757324,6.000168800354004,1.4317326545715332
1759336143620558000,1.37955810546875,8.293813705444336,5.928342819213867,1.3646949529647827
1759336143630558000,1.389557861328125,8.549993515014648,5.940313816070557,1.4460978507995605
1759336143640557600,1.3995576171875,8.312967300415039,5.743988990783691,1.6208745241165161
1759336143650557700,1.4095576171875,7.8437042236328125,5.6984992027282715,1.824381709098816
1759336143660557600,1.4195576171875,7.1781158447265625,6.1414265632629395,1.8722656965255737
1759336143670557700,1.4295576171875,6.730400085449219,6.493374347686768,2.0422539710998535
1759336143680557600,1.4395576171875,6.838139533996582,6.701669692993164,1.4460978507995605
1759336143690557700,1.4495576171875,7.123049259185791,6.371270179748535,1.7142484188079834
1759336143700557600,1.4595576171875,7.228394031524658,6.251559734344482,1.8555063009262085
1759336143710557700,1.4695576171875,7.384017467498779,6.316203594207764,2.0398597717285156
1759336143720558300,1.479558349609375,7.252336025238037,6.285078525543213,2.2218191623687744
1759336143730558500,1.489558349609375,7.094318866729736,6.313809394836426,2.0877439975738525
1759336143740558600,1.49955859375,6.988974094390869,6.5173163414001465,1.7046716213226318
1759336143754055000,1.513054931640625,7.216423034667969,6.69448709487915,1.3766659498214722
1759336143764054800,1.5230546875,7.173327445983887,6.644208908081055,1.3551181554794312
1759336143774055000,1.533054931640625,6.996156692504883,6.593930721282959,1.45806884765625
1759336143784054000,1.543053955078125,6.866869926452637,6.668150901794434,1.5849615335464478
1759336143794054100,1.55305419921875,6.816591739654541,6.7351884841918945,1.656787633895874
1759336143804054000,1.563053955078125,6.754342079162598,6.821380138397217,1.7046716213226318
1759336143814054100,1.57305419921875,5.966650009155273,6.929119110107422,2.0015525817871094
1759336143824053200,1.58305322265625,5.468656063079834,6.988974094390869,2.123656988143921
1759336143834053000,1.59305322265625,5.171774864196777,7.036858081817627,2.161964178085327
1759336143844053000,1.603052978515625,5.471050262451172,7.053617477416992,2.1308395862579346
1759336143854053000,1.61305322265625,5.949890613555908,7.063194274902344,2.123656988143921
1759336143864053000,1.623052978515625,6.440701961517334,7.1134724617004395,2.051830768585205
1759336143874053000,1.63305322265625,6.996156692504883,7.190086841583252,1.920149803161621
1759336143884053000,1.643052978515625,7.441478252410889,7.273883819580078,1.8363527059555054
1759336143894053000,1.65305322265625,7.573159217834473,7.3145856857299805,1.7477672100067139
1759336143904053000,1.663052978515625,7.269095420837402,7.470208644866943,1.6352397203445435
1759336143914053000,1.67305322265625,6.8022260665893555,7.348104476928711,1.6903064250946045
1759336143924054000,1.683053955078125,5.799055576324463,7.522881031036377,1.8124107122421265
1759336143934054000,1.693053955078125,5.195716857910156,7.350498676300049,2.0685901641845703
1759336143944054300,1.70305419921875,4.8267107009887695,7.206846237182617,2.382230758666992
1759336143954054400,1.713054443359375,4.7836151123046875,7.041646480560303,2.580949544906616
1759336143964054300,1.72305419921875,4.55616569519043,7.257124423980713,2.676717519760132
1759336143974054400,1.733054443359375,4.326322555541992,7.453449249267578,2.628833532333374
1759336143984054300,1.74305419921875,4.266467571258545,7.539640426635742,2.473210334777832
1759336143994054400,1.753054443359375,4.812345504760742,7.652167797088623,2.3726539611816406
1759336144004054300,1.76305419921875,5.5883660316467285,7.810185432434082,2.248155355453491
1759336144014054400,1.773054443359375,5.954679012298584,7.819762229919434,2.161964178085327
1759336144024053500,1.783053466796875,5.77990198135376,7.872434616088867,2.1811177730560303
1759336144034053600,1.7930537109375,5.557241439819336,7.853281021118164,2.142810583114624
1759336144044053500,1.803053466796875,5.636250019073486,7.63301420211792,2.231395959854126
1759336144054054000,1.813053955078125,5.791872978210449,7.364863872528076,2.341529369354248
1759336144064054000,1.823053955078125,5.471050262451172,7.735964775085449,2.3295583724975586
1759336144074054000,1.833053955078125,5.092766284942627,7.905953407287598,2.2218191623687744
1759336144084054800,1.8430546875,4.973056316375732,7.963414192199707,2.126051187515259
1759336144094054700,1.8530546875,5.224447250366211,7.688080787658691,1.9919757843017578
1759336144104054800,1.8630546875,5.542876243591309,7.618649005889893,2.1332337856292725
1759336144114054700,1.8730546875,5.4159836769104,7.788637638092041,2.1595699787139893
1759336144124055800,1.883055908203125,5.301061630249023,7.829339027404785,2.0805611610412598
1759336144134055700,1.8930556640625,5.274725437164307,7.786243438720703,2.0685901641845703
1759336144144055800,1.903055908203125,5.3489460945129395,7.81257963180542,2.140416383743286
1759336144154055700,1.9130556640625,5.411195278167725,7.7287821769714355,2.1523873805999756
1759336144164055800,1.923055908203125,5.4782328605651855,7.7072343826293945,2.207453966140747
1759336144174055700,1.9330556640625,5.451896667480469,7.721599578857422,2.248155355453491
1759336144184055800,1.943055908203125,5.418377876281738,7.76948356628418,2.185906171798706
1759336144194055700,1.9530556640625,5.748777389526367,7.690474987030029,2.2385785579681396
1759336144204055800,1.963055908203125,5.971438407897949,7.709628582000732,2.343923568725586
1759336144214055700,1.9730556640625,5.973832607269287,7.81257963180542,2.3750481605529785
1759336144224054800,1.9830546875,5.86848783493042,7.867646217346191,2.3582887649536133
1759336144234055000,1.993054931640625,5.68892240524292,7.941866397857666,2.252943754196167
1759336144244054800,2.0030546875,5.430348873138428,7.8867998123168945,2.1739351749420166
1759336144254055000,2.013054931640625,5.2124762535095215,7.798214435577393,2.0638017654418945
1759336144264054800,2.0230546875,5.238812446594238,7.697657585144043,2.0470423698425293
1759336144274055000,2.033054931640625,5.3226094245910645,7.616254806518555,2.1116859912872314
1759336144284054800,2.0430546875,5.267542839050293,7.635408401489258,2.1092917919158936
1759336144294055000,2.053054931640625,5.372888088226318,7.661744594573975,2.070984363555908
1759336144304054800,2.0630546875,5.624279022216797,7.733570575714111,2.1284453868865967
1759336144314055000,2.073054931640625,5.526116847991943,7.767089366912842,2.1499931812286377
1759336144324055600,2.0830556640625,5.653009414672852,7.470208644866943,2.185906171798706
1759336144334055700,2.0930556640625,5.296273231506348,7.922712802886963,2.183511972427368
1759336144344055600,2.1030556640625,5.317821025848389,8.020874977111816,2.188300371170044
1759336144354055700,2.1130556640625,5.516540050506592,7.951443195343018,2.190694570541382
1759336144364055600,2.1230556640625,5.650615215301514,7.779060363769531,2.164358377456665
1759336144374055700,2.1330556640625,5.554847240447998,7.819762229919434,2.121262788772583
1759336144384055600,2.1430556640625,5.353734493255615,7.807791233062744,2.10210919380188
1759336144394055700,2.1530556640625,5.217264652252197,7.793426036834717,2.0853497982025146
1759336144404055600,2.1630556640625,5.32739782333374,7.7287821769714355,2.1068975925445557
1759336144414055700,2.1730556640625,5.51893424987793,7.690474987030029,2.1068975925445557
1759336144424054800,2.1830546875,5.650615215301514,7.676109790802002,2.145204782485962
1759336144434054700,2.1930546875,5.59794282913208,7.767089366912842,2.1739351749420166
1759336144444054800,2.2030546875,5.5021748542785645,7.814973831176758,2.166752576828003
1759336144454054700,2.2130546875,5.439925670623779,7.877223014831543,2.1284453868865967
1759336144464054800,2.2230546875,5.396830081939697,7.848492622375488,2.1308395862579346
1759336144474054700,2.2330546875,5.404012680053711,7.848492622375488,2.185906171798706
1759336144484054800,2.2430546875,5.375282287597656,7.8221564292907715,2.140416383743286
1759336144494054700,2.2530546875,5.399224281311035,7.759906768798828,2.1092917919158936
1759336144504054800,2.2630546875,5.535693645477295,7.7072343826293945,2.094926595687866
1759336144514054700,2.2730546875,5.6984992027282715,7.704840183258057,2.140416383743286
1759336144524055600,2.2830556640625,5.602731227874756,7.764695167541504,2.1978771686553955
1759336144534055700,2.2930556640625,5.442319869995117,7.795820236206055,2.1499931812286377
1759336144544055600,2.3030556640625,5.459079265594482,7.76948356628418,2.1164743900299072
1759336144554055700,2.3130556640625,5.593154430389404,7.747935771942139,2.276885747909546
1759336144564055600,2.3230556640625,5.521328449249268,7.853281021118164,2.3271639347076416
1759336144574055700,2.3330556640625,5.432743072509766,7.870040416717529,2.248155355453491
1759336144584055600,2.3430556640625,5.475838661193848,7.807791233062744,2.185906171798706
1759336144594055700,2.3530556640625,5.50696325302124,7.755118370056152,2.207453966140747
1759336144604055600,2.3630556640625,5.475838661193848,7.75751256942749,2.2146365642547607
1759336144614055700,2.3730556640625,5.384859085083008,7.762300968170166,2.2170307636260986
1759336144624054800,2.3830546875,5.334580898284912,7.759906768798828,2.190694570541382
1759336144634054700,2.3930546875,5.384859085083008,7.726387977600098,2.1164743900299072
1759336144644054800,2.4030546875,5.497386455535889,7.709628582000732,2.1523873805999756
1759336144654054700,2.4130546875,5.377676486968994,7.740753173828125,2.142810583114624
1759336144664054800,2.4230546875,5.404012680053711,7.762300968170166,2.1356279850006104
1759336144674054700,2.4330546875,5.638644218444824,7.755118370056152,2.169146776199341
1759336144684054800,2.4430546875,5.693710803985596,7.759906768798828,2.2673089504241943
1759336144694054700,2.4530546875,5.73441219329834,7.836521625518799,2.3056161403656006
1759336144704054800,2.4630546875,5.700893402099609,7.862857818603516,2.2433669567108154
1759336144714054700,2.4730546875,5.6769514083862305,7.862857818603516,2.2242133617401123
1759336144724055600,2.4830556640625,5.490203857421875,7.814973831176758,2.2625205516815186
1759336144734055400,2.493055419921875,5.557241439819336,7.7527241706848145,2.3487119674682617
1759336144744055600,2.5030556640625,5.526116847991943,7.8006086349487305,2.2912509441375732
1759336144754055700,2.5130556640625,5.494992256164551,7.795820236206055,2.233790159225464
1759336144764055600,2.5230556640625,5.3704938888549805,7.7742719650268555,2.1571757793426514
1759336144774055700,2.5330556640625,5.399224281311035,7.762300968170166,2.142810583114624
1759336144784055600,2.5430556640625,5.360917091369629,7.7287821769714355,2.006340980529785
1759336144794055700,2.5530556640625,5.4159836769104,7.721599578857422,1.9919757843017578
1759336144804055600,2.5630556640625,5.430348873138428,7.695263385772705,1.9991583824157715
1759336144814055700,2.5730556640625,5.353734493255615,7.771877765655518,1.987187385559082
1759336144824054800,2.5830546875,5.571606636047363,7.781454563140869,2.0470423698425293
1759336144834054700,2.5930546875,5.607519626617432,7.81257963180542,2.161964178085327
1759336144844054800,2.6030546875,5.547664642333984,7.836521625518799,2.2409727573394775
1759336144854054700,2.6130546875,5.494992256164551,7.803002834320068,2.2170307636260986
1759336144864054800,2.6230546875,5.408801078796387,7.817368030548096,2.2002713680267334
1759336144874054700,2.6330546875,5.2986674308776855,7.759906768798828,2.1715409755706787
1759336144884054800,2.6430546875,5.51893424987793,7.6856865882873535,2.2026655673980713
1759336144894054700,2.6530546875,5.607519626617432,7.6641387939453125,2.293645143508911
1759336144904054800,2.6630546875,5.490203857421875,7.733570575714111,2.319981336593628
1759336144914054700,2.6730546875,5.418377876281738,7.738358974456787,2.22660756111145
1759336144924055600,2.6830556640625,5.667374610900879,7.747935771942139,2.2457611560821533
1759336144934055700,2.6930556640625,5.724835395812988,7.783848762512207,2.365471363067627
1759336144944055600,2.7030556640625,5.6434326171875,7.841310024261475,2.4899697303771973
1759336144954055700,2.7130556640625,5.550058841705322,7.850886821746826,2.4229321479797363
1759336144964055600,2.7230556640625,5.535693645477295,7.817368030548096,2.33913516998291
1759336144974055700,2.7330556640625,5.535693645477295,7.721599578857422,2.2697031497955322
1759336144984055800,2.743055908203125,5.51893424987793,7.702445983886719,2.2385785579681396
1759336144994056000,2.753055908203125,5.439925670623779,7.7287821769714355,2.161964178085327
1759336145004055800,2.763055908203125,5.387253284454346,7.6425909996032715,2.10210919380188
1759336145014056000,2.773055908203125,5.363311290740967,7.544428825378418,2.123656988143921
1759336145024055000,2.783054931640625,5.24838924407959,7.616254806518555,2.10210919380188
1759336145034055200,2.79305517578125,5.365705490112305,7.63301420211792,2.1308395862579346
1759336145044055000,2.803054931640625,5.468656063079834,7.688080787658691,2.1356279850006104
1759336145054055000,2.813054931640625,5.535693645477295,7.771877765655518,2.1332337856292725
1759336145064055000,2.823054931640625,5.5237226486206055,7.834127426147461,2.185906171798706
1759336145074055000,2.833054931640625,5.50696325302124,7.9083476066589355,2.166752576828003
1759336145084055000,2.843054931640625,5.430348873138428,7.963414192199707,2.094926595687866
1759336145094055000,2.853054931640625,5.396830081939697,8.004115104675293,2.099714994430542
1759336145104055000,2.863054931640625,5.339369297027588,7.958625793457031,2.1547815799713135
1759336145114055000,2.873054931640625,5.317821025848389,7.870040416717529,2.2409727573394775
1759336145124055800,2.883055908203125,5.250783443450928,7.848492622375488,2.2218191623687744
1759336145134056000,2.893055908203125,5.162198066711426,7.8221564292907715,2.2218191623687744
1759336145144055800,2.903055908203125,5.090372085571289,7.814973831176758,2.190694570541382
1759336145154056000,2.913055908203125,5.150227069854736,7.764695167541504,2.142810583114624
1759336145164055800,2.923055908203125,5.262754440307617,7.814973831176758,2.1380221843719482
1759336145174056000,2.933055908203125,5.269937038421631,7.884405612945557,2.118868589401245
1759336145184055800,2.943055908203125,5.262754440307617,7.89158821105957,2.0901381969451904
1759336145194056000,2.953055908203125,5.28190803527832,7.889194011688232,2.078166961669922
1759336145204055800,2.963055908203125,5.499780654907227,7.803002834320068,2.1571757793426514
1759336145214056000,2.973055908203125,5.542876243591309,7.807791233062744,2.205059766769409
1759336145224055000,2.983054931640625,5.514145851135254,7.81257963180542,2.205059766769409
1759336145234055200,2.99305517578125,5.389647483825684,7.841310024261475,2.190694570541382
1759336145244055000,3.003054931640625,5.296273231506348,7.814973831176758,2.126051187515259
1759336145254055000,3.013054931640625,5.3489460945129395,7.71202278137207,2.118868589401245
1759336145264055000,3.023054931640625,5.274725437164307,7.692869186401367,2.1045033931732178
1759336145274055000,3.033054931640625,5.315426826477051,7.644985198974609,2.142810583114624
1759336145284054800,3.0430546875,5.533299446105957,7.609072208404541,2.279279947280884
1759336145294055000,3.053054931640625,5.6984992027282715,7.616254806518555,2.363077163696289
1759336145314055000,3.073054931640625,5.449502468109131,7.7527241706848145,2.3726539611816406
1759336145324055600,3.0830556640625,5.471050262451172,7.735964775085449,2.3798365592956543
1759336145334055700,3.0930556640625,5.3489460945129395,7.733570575714111,2.408566951751709
1759336145344055600,3.1030556640625,5.29387903213501,7.72399377822876,2.3582887649536133
1759336145354055700,3.1130556640625,5.329792022705078,7.714416980743408,2.1930887699127197
1759336145364055600,3.1230556640625,5.1909284591674805,7.585130214691162,2.164358377456665
1759336145374055700,3.1330556640625,5.528511047363281,7.644985198974609,2.142810583114624
1759336145384055600,3.1430556640625,5.076006889343262,7.893982410430908,2.1787235736846924
1759336145394055700,3.1530556640625,5.612308025360107,7.702445983886719,2.0877439975738525
1759336145404055600,3.1630556640625,5.621884822845459,7.637802600860596,2.2864625453948975
1759336145414055700,3.1730556640625,5.29387903213501,7.5994954109191895,2.279279947280884
1759336145424054800,3.1830546875,5.150227069854736,7.644985198974609,2.3702597618103027
1759336145434054700,3.1930546875,5.217264652252197,7.6425909996032715,2.2242133617401123
1759336145444054800,3.2030546875,5.099948883056641,7.501333236694336,2.056619167327881
1759336145454054700,3.2130546875,4.922778129577637,7.340921878814697,1.8938134908676147
1759336145464054800,3.2230546875,5.411195278167725,7.111078262329102,1.8387469053268433
1759336145474054700,3.2330546875,6.352116584777832,7.166144847869873,1.9057846069335938
1759336145484054800,3.2430546875,6.948272705078125,7.381623268127441,2.094926595687866
1759336145494054700,3.2530546875,6.986579895019531,7.522881031036377,2.1547815799713135
1759336145504054800,3.2630546875,6.634632110595703,7.549217224121094,2.1164743900299072
1759336145514054700,3.2730546875,6.2084641456604,7.4678144454956055,1.9943699836730957
1759336145524055600,3.2830556640625,5.614702224731445,7.1996636390686035,1.9919757843017578
1759336145534055700,3.2930556640625,4.836287498474121,6.993762493133545,1.8842366933822632
1759336145544055600,3.3030556640625,4.558559894561768,6.818985939025879,1.8962076902389526
1759336145554055700,3.3130556640625,4.383783340454102,6.574777126312256,1.9249382019042969
1759336145564055600,3.3230556640625,5.33697509765625,6.246771335601807,2.1930887699127197
1759336145574055700,3.3330556640625,5.933131217956543,6.103119373321533,2.432508945465088
1759336145584055600,3.3430556640625,6.148609161376953,6.062417984008789,2.4636335372924805
1759336145594055700,3.3530556640625,7.005733489990234,6.2084641456604,2.276885747909546
1759336145604055600,3.3630556640625,7.525275230407715,6.6489973068237305,2.0231003761291504
1759336145614055700,3.3730556640625,7.5994954109191895,7.027281284332275,1.7621324062347412
1759336145624054800,3.3830546875,7.63301420211792,7.139808654785156,1.7046716213226318
1759336145634054700,3.3930546875,7.154173851013184,6.8501105308532715,1.5729905366897583
1759336145644054800,3.4030546875,6.9602437019348145,6.347328186035156,1.6927006244659424
1759336145654054700,3.4130546875,7.491756439208984,5.858911037445068,2.008735179901123
1759336145664054800,3.4230546875,8.547599792480469,5.3704938888549805,2.7461493015289307
1759336145674054700,3.4330546875,8.19804573059082,5.372888088226318,3.0789434909820557
1759336145684054800,3.4430546875,8.097489356994629,5.451896667480469,3.023876667022705
1759336145694054700,3.4530546875,8.013691902160645,5.430348873138428,2.9305028915405273
1759336145704054800,3.4630546875,8.035240173339844,5.736806392669678,2.5929205417633057
1759336145714054700,3.4730546875,8.085518836975098,6.069600582122803,2.2840683460235596
1759336145724055600,3.4830556640625,7.814973831176758,6.35451078414917,1.9608511924743652
1759336145734055700,3.4930556640625,7.233182430267334,6.656179904937744,1.7764976024627686
1759336145744055600,3.5030556640625,6.830956935882568,6.610690116882324,1.7597382068634033
1759336145754055700,3.5130556640625,6.917148113250732,6.12945556640625,1.8171991109848022
1759336145764055600,3.5230556640625,8.399158477783203,5.296273231506348,1.8602946996688843
1759336145774055700,3.5330556640625,11.157279014587402,4.2975921630859375,3.2082302570343018
1759336145784055600,3.5430556640625,11.427824020385742,4.479551315307617,3.864241600036621
1759336145794055700,3.5530556640625,10.673650741577148,4.3861775398254395,3.576937437057495
1759336145804055600,3.5630556640625,9.739912033081055,4.299986362457275,2.7054479122161865
1759336145814055700,3.5730556640625,8.588300704956055,4.434061527252197,1.7310078144073486
1759336145824054800,3.5830546875,7.7287821769714355,4.4508209228515625,0.9911994934082031
1759336145834054700,3.5930546875,7.120655059814453,4.570530891418457,0.7469909191131592
1759336145844054800,3.6030546875,6.502951145172119,4.663905143737793,0.6392518281936646
1759336145854054700,3.6130546875,6.246771335601807,4.60165548324585,0.42856210470199585
1759336145864054800,3.6230546875,7.041646480560303,4.156333923339844,0.5554547905921936
1759336145874054700,3.6330546875,8.657732963562012,3.557783842086792,1.2282254695892334
1759336145884054800,3.6430546875,10.099041938781738,3.3518824577331543,1.7764976024627686
1759336145894054700,3.6530546875,11.006444931030273,3.335123062133789,2.0877439975738525
1759336145904054800,3.6630546875,11.557110786437988,3.4739866256713867,2.0470423698425293
1759336145914054700,3.6730546875,11.74864673614502,3.3494882583618164,2.1499931812286377
1759336145924055600,3.6830556640625,11.38472843170166,3.095702886581421,2.169146776199341
1759336145934055700,3.6930556640625,11.4972562789917,2.8155810832977295,2.056619167327881
1759336145944055600,3.7030556640625,12.282553672790527,2.7054479122161865,1.9991583824157715
1759336145954055700,3.7130556640625,12.924200057983398,2.7269957065582275,1.9057846069335938
1759336145964055600,3.7230556640625,13.45092487335205,2.695871114730835,1.8626888990402222
1759336145974055700,3.7330556640625,14.066234588623047,2.5450363159179688,1.8842366933822632
1759336145984054800,3.7430546875,14.377480506896973,2.3127987384796143,1.800439715385437
1759336145994054700,3.7530546875,14.26734733581543,1.922544002532959,1.8411411046981812
1759336146004054800,3.7630546875,14.3702974319458,1.5873557329177856,2.1571757793426514
1759336146014054700,3.7730546875,14.202703475952148,1.3048399686813354,2.5234885215759277
1759336146024054000,3.783053955078125,13.340790748596191,1.173158884048462,2.7317841053009033
1759336146034054100,3.79305419921875,12.457330703735352,1.2545616626739502,2.655169725418091
1759336146044054000,3.803053955078125,11.794137001037598,1.4101848602294922,2.4205379486083984
1759336146054054000,3.813053955078125,11.08066463470459,1.5729905366897583,2.3104045391082764
1759336146064054000,3.823053955078125,10.482114791870117,1.7764976024627686,2.341529369354248
1759336146074054000,3.833053955078125,10.223540306091309,1.9057846069335938,2.4013843536376953
1759336146084054000,3.843053955078125,10.216358184814453,1.900996208190918,2.3080103397369385
1759336146094054000,3.853053955078125,10.343250274658203,1.7262194156646729,2.0638017654418945
1759336146104054000,3.863053955078125,10.788572311401367,1.479616641998291,1.656787633895874
1759336146114054000,3.873053955078125,11.231499671936035,1.1683704853057861,1.280897855758667
1759336146124054800,3.8830546875,11.44458293914795,0.8571242094039917,0.9097966551780701
1759336146134055000,3.893054931640625,11.719916343688965,0.6177040338516235,0.8643068075180054
1759336146144054800,3.9030546875,11.9928560256958,0.6320692300796509,0.8978256583213806
1759336146154055000,3.913054931640625,12.275371551513672,0.8044517636299133,0.8068459630012512
1759336146164054800,3.9230546875,12.296918869018555,0.9672574996948242,0.49799394607543945
1759336146174055000,3.933054931640625,11.511621475219727,2.3295583724975586,-0.272938996553421
1759336146184054800,3.9430546875,12.500426292419434,1.0055646896362305,0.0933738648891449
1759336146194055000,3.953054931640625,11.830049514770508,-0.304063618183136,0.5315127968788147
1759336146204054800,3.9630546875,11.042357444763184,-0.24420857429504395,0.6967126727104187
1759336146214055000,3.973054931640625,10.778995513916016,0.05027823522686958,0.8547300100326538
1759336146224054000,3.983053955078125,10.778995513916016,0.2777273952960968,0.9624691009521484
1759336146234054100,3.99305419921875,10.338461875915527,0.29209262132644653,0.9409212470054626
1759336146244054000,4.003053955078125,10.443806648254395,0.44771572947502136,0.9528923034667969
1759336146254054000,4.013053955078125,9.950601577758789,0.5578489899635315,0.9002198576927185
1759336146264054000,4.023053955078125,9.478943824768066,0.47644615173339844,0.7445967197418213
1759336146274054000,4.033053955078125,9.143755912780762,0.2561795711517334,0.790086567401886
1759336146284054800,4.0430546875,8.794201850891113,-0.06703764945268631,0.8403648138046265
1759336146294055000,4.053054931640625,8.427888870239258,-0.26336219906806946,0.727837324142456
1759336146304054800,4.0630546875,8.339303970336914,-0.3016694188117981,0.7038952708244324
1759336146314055000,4.073054931640625,8.456619262695312,-0.1364694982767105,0.6129156351089478
1759336146324055600,4.0830556640625,8.55717658996582,0.06464344263076782,0.5386953949928284
1759336146334055700,4.0930556640625,8.755894660949707,0.10534487664699554,0.42856210470199585
1759336146344055600,4.1030556640625,9.143755912780762,0.17238251864910126,0.5147533416748047
1759336146354055700,4.1130556640625,9.007286071777344,-0.06224924325942993,0.40701428055763245
1759336146364055600,4.1230556640625,9.153332710266113,-0.3471592366695404,0.2585737705230713
1759336146374055700,4.1330556640625,9.17009162902832,-0.42616790533065796,0.6416460275650024
1759336146384055600,4.1430556640625,8.696040153503418,-0.4357447028160095,0.7422025203704834
1759336146394055700,4.1530556640625,8.408735275268555,-0.22744916379451752,0.8690952062606812
1759336146404055600,4.1630556640625,8.2219877243042,0.15322890877723694,0.8595184087753296
1759336146414055700,4.1730556640625,8.312967300415039,0.3711012601852417,0.6392518281936646
1759336146424054800,4.1830546875,8.712799072265625,0.304063618183136,0.6033388376235962
1759336146434054700,4.1930546875,8.813355445861816,0.29209262132644653,0.5817909836769104
1759336146444054800,4.2030546875,8.992920875549316,0.38546648621559143,0.5793967843055725
1759336146454054700,4.2130546875,8.827720642089844,0.6200982332229614,0.7254431247711182
1759336146464054800,4.2230546875,8.619425773620605,0.8068459630012512,0.706289529800415
1759336146474054700,4.2330546875,8.516474723815918,0.7326257228851318,0.8667010068893433
1759336146484054800,4.2430546875,8.825326919555664,0.7852981686592102,1.192312479019165
1759336146494054700,4.2530546875,9.088688850402832,0.7110779285430908,1.2545616626739502
1759336146504054800,4.2630546875,9.237129211425781,0.6248866319656372,0.8954314589500427
1759336146514054700,4.2730546875,9.873987197875977,0.545877993106842,1.1420341730117798
1759336146524055600,4.2830556640625,9.754277229309082,0.3734954595565796,1.1563993692398071
1759336146534055700,4.2930556640625,9.603442192077637,0.19871874153614044,1.1085153818130493
1759336146544055600,4.3030556640625,9.49809741973877,0.0071826050989329815,1.3024457693099976
1759336146554055700,4.3130556640625,9.213187217712402,-0.1412578970193863,1.357512354850769
1759336146564055600,4.3230556640625,8.918700218200684,-0.28730419278144836,1.479616641998291
1759336146574055700,4.3330556640625,8.892364501953125,-0.3064578175544739,1.6424223184585571
1759336146584054800,4.3430546875,8.873210906982422,-0.22266076505184174,1.6974890232086182
1759336146594054700,4.3530546875,9.04319953918457,-0.07422025501728058,1.623268723487854
1759336146604054800,4.3630546875,9.124602317810059,0.15801730751991272,1.5322890281677246
1759336146614054700,4.3730546875,9.155726432800293,0.3280056416988373,1.4891934394836426
1759336146624053800,4.3830537109375,9.057564735412598,0.2825157940387726,1.5083470344543457
1759336146634054000,4.393053955078125,8.928277015686035,0.28969839215278625,1.5825673341751099
1759336146644053800,4.4030537109375,8.734347343444824,0.4908113479614258,1.4724340438842773
1759336146664053800,4.4230537109375,8.729558944702148,0.7230489253997803,1.4221558570861816
1759336146674054000,4.433053955078125,8.674491882324219,0.6057330369949341,1.2617442607879639
1759336146684053800,4.4430537109375,8.583512306213379,0.6344634294509888,0.9744400978088379
1759336146694054000,4.453053955078125,8.605060577392578,0.7206547260284424,0.811634361743927
1759336146704053800,4.4630537109375,8.99052619934082,0.811634361743927,0.3232172429561615
1759336146714054000,4.473053955078125,9.435848236083984,1.015141487121582,-0.026336219161748886
1759336146724054800,4.4830546875,9.703998565673828,0.811634361743927,0.016759412363171577
1759336146734054700,4.4930546875,9.696816444396973,0.5410895943641663,-0.06703764945268631
1759336146744054800,4.5030546875,9.708786964416504,0.4381389021873474,0.026336219161748886
1759336146754054700,4.5130546875,9.58907699584961,0.4357447028160095,0.10295066982507706
1759336146764054800,4.5230546875,9.387964248657227,0.5506663918495178,0.07661445438861847
1759336146774054700,4.5330546875,9.17009162902832,0.7733271718025208,0.0933738648891449
1759336146784054800,4.5430546875,8.755894660949707,1.0007762908935547,0.21547815203666687
1759336146794054700,4.5530546875,8.341697692871094,1.0869675874710083,0.31364041566848755
1759336146804054800,4.5630546875,8.111854553222656,1.2401964664459229,0.4118026793003082
1759336146814054700,4.5730546875,8.006509780883789,1.4317326545715332,0.3734954595565796
1759336146824053800,4.5830537109375,8.193257331848145,1.5514427423477173,0.2082955539226532
1759336146834054000,4.593053955078125,8.447042465209961,1.5418659448623657,0.040701430290937424
1759336146844053800,4.6030537109375,8.669703483581543,1.4460978507995605,0.011971008032560349
1759336146854053600,4.6130537109375,8.868422508239746,1.4053963422775269,0.14844051003456116
1759336146864053800,4.6230537109375,9.016862869262695,1.4245500564575195,0.2825157940387726
1759336146874053600,4.6330537109375,8.942642211914062,1.501164436340332,0.42616790533065796
1759336146884054500,4.643054443359375,8.846874237060547,1.414973258972168,0.5746083855628967
1759336146894054700,4.6530546875,8.794201850891113,1.3623007535934448,0.6272808313369751
1759336146904054500,4.663054443359375,8.777442932128906,1.4053963422775269,0.5961562395095825
1759336146914054700,4.6730546875,8.787019729614258,1.400607943534851,0.4405331015586853
1759336146924055600,4.6830556640625,8.861239433288574,1.4077905416488647,0.26096799969673157
1759336146934055400,4.693055419921875,8.925883293151855,1.3766659498214722,0.023942016065120697
1759336146944055600,4.7030556640625,8.940248489379883,1.3670891523361206,-0.07900865375995636
1759336146954055400,4.713055419921875,8.901941299438477,1.3670891523361206,-0.11013327538967133
1759336146964055600,4.7230556640625,8.854057312011719,1.4053963422775269,-0.12449848651885986
1759336146974055400,4.733055419921875,8.801384925842285,1.5442601442337036,-0.20350714027881622
1759336146984055600,4.7430556640625,8.844480514526367,1.678335428237915,-0.23942017555236816
1759336146994055400,4.753055419921875,8.901941299438477,1.7621324062347412,-0.22026655077934265
1759336147004055600,4.7630556640625,8.964190483093262,1.821987509727478,-0.2513911724090576
1759336147014055400,4.773055419921875,9.014469146728516,1.8100165128707886,-0.2585737705230713
1759336147024054500,4.783054443359375,9.081506729125977,1.845929503440857,-0.31124621629714966
1759336147034054700,4.7930546875,9.124602317810059,1.7884687185287476,-0.2825157940387726
1759336147044054800,4.8030546875,9.086295127868652,1.7860745191574097,-0.24660277366638184
1759336147054054700,4.8130546875,8.980949401855469,1.8076223134994507,-0.17717093229293823
1759336147064054800,4.8230546875,8.8971529006958,1.8148049116134644,-0.06464344263076782
1759336147074054700,4.8330546875,8.940248489379883,1.8267759084701538,0.016759412363171577
1759336147084054800,4.8430546875,8.933065414428711,1.8794482946395874,0.0933738648891449
1759336147094054700,4.8530546875,8.906729698181152,1.9297266006469727,0.12210428714752197
1759336147104054800,4.8630546875,8.973767280578613,1.9800047874450684,0.1388636976480484
1759336147114054700,4.8730546875,9.17009162902832,1.9728221893310547,0.06703764945268631
1759336147124055600,4.8830556640625,9.301773071289062,1.9584569931030273,0.023942016065120697
1759336147134055700,4.8930556640625,9.435848236083984,1.920149803161621,0.05985504388809204
1759336147144055600,4.9030556640625,9.541193008422852,1.8914192914962769,0.15322890877723694
1759336147154055700,4.9130556640625,9.598653793334961,1.867477297782898,0.22505496442317963
1759336147164055600,4.9230556640625,9.601048469543457,1.900996208190918,0.26096799969673157
1759336147174055700,4.9330556640625,9.517251014709473,1.9129672050476074,0.3280056416988373
1759336147184056800,4.943056884765625,9.402329444885254,1.9488801956176758,0.4213795065879822
1759336147194056700,4.953056640625,9.25867748260498,2.0039467811584473,0.47405192255973816
1759336147204056800,4.963056884765625,9.093477249145508,2.1068975925445557,0.507570743560791
1759336147214056700,4.973056640625,8.98813247680664,2.1571757793426514,0.524330198764801
1759336147224055800,4.983055908203125,8.928277015686035,2.2170307636260986,0.40940847992897034
1759336147234056000,4.993055908203125,8.947430610656738,2.250549554824829,0.28730419278144836
1759336147244055800,5.003055908203125,8.961795806884766,2.3127987384796143,0.23942017555236816
1759336147254056000,5.013055908203125,9.004891395568848,2.2816741466522217,0.20350714027881622
1759336147264055800,5.023055908203125,9.172486305236816,2.231395959854126,0.21308395266532898
1759336147274056000,5.033055908203125,9.392752647399902,2.1547815799713135,0.17717093229293823
1759336147284056000,5.04305615234375,9.629778861999512,2.0853497982025146,0.13168109953403473
1759336147294056000,5.053055908203125,9.814131736755371,1.987187385559082,0.08379705995321274
1759336147304056000,5.06305615234375,9.969755172729492,1.941697597503662,0.15083470940589905
1759336147314056000,5.073055908203125,10.120590209960938,1.900996208190918,0.23942017555236816
1759336147324056800,5.083056884765625,10.043975830078125,1.922544002532959,0.29209262132644653
1759336147334056700,5.093056640625,9.912294387817383,1.9369091987609863,0.2585737705230713
1759336147344056800,5.103056884765625,9.701604843139648,1.9728221893310547,0.15562310814857483
1759336147354056700,5.113056640625,9.512462615966797,2.008735179901123,0.06703764945268631
1759336147364056800,5.123056884765625,9.308955192565918,2.0231003761291504,-0.016759412363171577
1759336147374056700,5.133056640625,9.141361236572266,2.078166961669922,-0.12449848651885986
1759336147384056800,5.143056884765625,9.069535255432129,2.123656988143921,-0.16759411990642548
1759336147394056700,5.153056640625,9.124602317810059,2.0925323963165283,-0.1843535304069519
1759336147404056800,5.163056884765625,9.289801597595215,2.0231003761291504,-0.14365209639072418
1759336147414056700,5.173056640625,9.44063663482666,2.0159177780151367,-0.06224924325942993
1759336147424055800,5.183055908203125,9.557952880859375,1.9512743949890137,0.021547814831137657
1759336147434056000,5.193055908203125,9.639355659484863,1.920149803161621,0.06464344263076782
1759336147444055800,5.203055908203125,9.632172584533691,1.9608511924743652,0.09576806426048279
1759336147454056000,5.213055908203125,9.517251014709473,1.9991583824157715,0.11971008777618408
1759336147464055800,5.223055908203125,9.392752647399902,1.9752163887023926,0.16759411990642548
1759336147474056000,5.233055908203125,9.29458999633789,2.011129379272461,0.22505496442317963
1759336147484054800,5.2430546875,9.308955192565918,2.006340980529785,0.2968810200691223
1759336147494054700,5.2530546875,9.404723167419434,2.013523578643799,0.3711012601852417
1759336147504054800,5.2630546875,9.543587684631348,1.987187385559082,0.3878606855869293
1759336147514054700,5.2730546875,9.739912033081055,1.9704279899597168,0.47644615173339844
1759336147524055600,5.2830556640625,9.850045204162598,1.9081788063049316,0.524330198764801
1759336147534055700,5.2930556640625,9.9865140914917,1.8770540952682495,0.5219359993934631
1759336147544055600,5.3030556640625,10.101436614990234,1.8746598958969116,0.49320554733276367
1759336147554055700,5.3130556640625,10.07270622253418,1.8914192914962769,0.4668693244457245
1759336147564055600,5.3230556640625,9.967360496520996,1.889025092124939,0.45010992884635925
1759336147574055700,5.3330556640625,9.8691987991333,1.886630892753601,0.3447650372982025
1759336147584055600,5.3430556640625,9.703998565673828,1.944091796875,0.304063618183136
1759336147594055700,5.3530556640625,9.560346603393555,2.011129379272461,0.2561795711517334
1759336147604055600,5.3630556640625,9.419088363647461,2.0638017654418945,0.31124621629714966
1759336147614055700,5.3730556640625,9.313743591308594,2.118868589401245,0.35913026332855225
1759336147624054800,5.3830546875,9.210793495178223,2.1499931812286377,0.40462008118629456
1759336147634054700,5.3930546875,9.215581893920898,2.166752576828003,0.45010992884635925
1759336147644054800,5.4030546875,9.296984672546387,2.188300371170044,0.4118026793003082
1759336147654054700,5.4130546875,9.38556957244873,2.161964178085327,0.33039984107017517
1759336147664054800,5.4230546875,9.488520622253418,2.126051187515259,0.23702596127986908
1759336147674054700,5.4330546875,9.5316162109375,2.1045033931732178,0.17238251864910126
1759336147684054800,5.4430546875,9.584288597106934,2.0901381969451904,0.11252748221158981
1759336147694054700,5.4530546875,9.615413665771484,2.10210919380188,-0.009576806798577309
1759336147704054800,5.4630546875,9.545981407165527,2.121262788772583,-0.09576806426048279
1759336147714054700,5.4730546875,9.478943824768066,2.097320795059204,-0.11252748221158981
1759336147724055600,5.4830556640625,9.399934768676758,2.121262788772583,-0.10295066982507706
1759336147734055400,5.493055419921875,9.366415977478027,2.1068975925445557,-0.07661445438861847
1759336147744055600,5.5030556640625,9.332897186279297,2.123656988143921,-0.040701430290937424
1759336147754055700,5.5130556640625,9.3735990524292,2.1068975925445557,-0.038307227194309235
1759336147764055600,5.5230556640625,9.471760749816895,2.0877439975738525,-0.002394201699644327
1759336147774055700,5.5330556640625,9.605836868286133,2.070984363555908,0.05267243832349777
1759336147784055600,5.5430556640625,9.696816444396973,2.075772762298584,0.1628057211637497
1759336147794055700,5.5530556640625,9.847650527954102,2.013523578643799,0.19393034279346466
1759336147804055600,5.5630556640625,9.847650527954102,2.006340980529785,0.1843535304069519
1759336147814055700,5.5730556640625,9.80455493927002,2.054224967956543,0.20350714027881622
1759336147824054800,5.5830546875,9.766247749328613,2.0470423698425293,0.2777273952960968
1759336147834054700,5.5930546875,9.706393241882324,2.1356279850006104,0.28969839215278625
1759336147844054500,5.603054443359375,9.646537780761719,2.078166961669922,0.3016694188117981
1759336147854054700,5.6130546875,9.601048469543457,2.051830768585205,0.27054479718208313
1759336147864054500,5.623054443359375,9.634567260742188,2.0853497982025146,0.22744916379451752
1759336147874054700,5.6330546875,9.651326179504395,2.164358377456665,0.2849099934101105
1759336147884054500,5.643054443359375,9.65372085571289,2.205059766769409,0.35434186458587646
1759336147894054700,5.6530546875,9.76864242553711,2.209848165512085,0.26336219906806946
1759336147904054500,5.663054443359375,9.876380920410156,2.2218191623687744,0.19393034279346466
1759336147914054700,5.6730546875,9.950601577758789,2.123656988143921,0.181959331035614
1759336147924055600,5.6830556640625,9.964966773986816,2.1547815799713135,0.3256114423274994
1759336147934055400,5.693055419921875,9.852438926696777,2.2457611560821533,0.37828385829925537
1759336147944055600,5.7030556640625,9.687239646911621,2.231395959854126,0.43095630407333374
1759336147954055400,5.713055419921875,9.56274127960205,2.190694570541382,0.4118026793003082
1759336147964055600,5.7230556640625,9.457395553588867,2.1787235736846924,0.3447650372982025
1759336147974055400,5.733055419921875,9.38317584991455,2.1284453868865967,0.2849099934101105
1759336147984055600,5.7430556640625,9.366415977478027,2.0805611610412598,0.3256114423274994
1759336147994055700,5.7530556640625,9.387964248657227,2.073378562927246,0.33039984107017517
1759336148004055600,5.7630556640625,9.481337547302246,2.03507137298584,0.3471592366695404
1759336148014055700,5.7730556640625,9.58668327331543,2.027888774871826,0.31842881441116333
1759336148024054800,5.7830546875,9.62020206451416,1.9800047874450684,0.36152446269989014
1759336148034055000,5.793054931640625,9.636960983276367,1.9249382019042969,0.3663128614425659
1759336148044054800,5.8030546875,9.58668327331543,1.944091796875,0.35434186458587646
1759336148054055000,5.813054931640625,9.512462615966797,1.965639591217041,0.33997663855552673
1759336148064054800,5.8230546875,9.395146369934082,1.9967641830444336,0.3232172429561615
1759336148074055000,5.833054931640625,9.371204376220703,1.98958158493042,0.29209262132644653
1759336148084054800,5.8430546875,9.392752647399902,2.0207061767578125,0.2992752194404602
1759336148094055000,5.853054931640625,9.47654914855957,2.006340980529785,0.3232172429561615
1759336148104054800,5.8630546875,9.5316162109375,2.0015525817871094,0.35434186458587646
1759336148114055000,5.873054931640625,9.593865394592285,1.9560627937316895,0.33997663855552673
1759336148124055800,5.883055908203125,9.692028045654297,1.9297266006469727,0.3280056416988373
1759336148134055700,5.8930556640625,9.78061294555664,1.8986018896102905,0.304063618183136
1759336148144055800,5.903055908203125,9.852438926696777,1.900996208190918,0.36152446269989014
1759336148154055700,5.9130556640625,9.852438926696777,1.9057846069335938,0.33758243918418884
1759336148164055800,5.923055908203125,9.847650527954102,1.9177556037902832,0.33997663855552673
1759336148174055700,5.9330556640625,9.739912033081055,1.944091796875,0.35913026332855225
1759336148184055800,5.943055908203125,9.65611457824707,1.9800047874450684,0.3734954595565796
1759336148194055700,5.9530556640625,9.526827812194824,2.027888774871826,0.3495534360408783
1759336148204055800,5.963055908203125,9.390357971191406,2.0422539710998535,0.3232172429561615
1759336148214055700,5.9730556640625,9.433453559875488,2.0398597717285156,0.2849099934101105
1759336148224054800,5.9830546875,9.47654914855957,2.0829553604125977,0.33279404044151306
1759336148234055000,5.993054931640625,9.536404609680176,2.0470423698425293,0.31603461503982544
1759336148244054800,6.0030546875,9.684844970703125,2.027888774871826,0.31603461503982544
1759336148254055000,6.013054931640625,9.711181640625,2.0159177780151367,0.33279404044151306
1759336148264054800,6.0230546875,9.761459350585938,2.011129379272461,0.4213795065879822
1759336148274055000,6.033054931640625,9.737517356872559,2.013523578643799,0.4620809257030487
1759336148284054800,6.0430546875,9.735123634338379,2.013523578643799,0.44771572947502136
1759336148294055000,6.053054931640625,9.615413665771484,2.0614075660705566,0.4572925269603729
1759336148304054800,6.0630546875,9.574711799621582,2.051830768585205,0.4572925269603729
1759336148314055000,6.073054931640625,9.524434089660645,2.0254945755004883,0.3998316824436188
1759336148324055600,6.0830556640625,9.512462615966797,2.013523578643799,0.38546648621559143
1759336148334055700,6.0930556640625,9.545981407165527,1.9919757843017578,0.33997663855552673
1759336148344055600,6.1030556640625,9.632172584533691,2.006340980529785,0.3734954595565796
1759336148354055700,6.1130556640625,9.646537780761719,1.9967641830444336,0.363918662071228
1759336148364055600,6.1230556640625,9.65372085571289,2.0422539710998535,0.2944868206977844
1759336148374055700,6.1330556640625,9.672874450683594,1.9153614044189453,0.43095630407333374
1759336148384055600,6.1430556640625,9.598653793334961,1.9057846069335938,0.4213795065879822
1759336148394055700,6.1530556640625,9.548376083374023,1.9536685943603516,0.3495534360408783
1759336148404055600,6.1630556640625,9.495702743530273,1.965639591217041,0.304063618183136
1759336148414055700,6.1730556640625,9.519645690917969,1.920149803161621,0.2513911724090576
1759336148424054800,6.1830546875,9.617807388305664,1.922544002532959,0.2059013396501541
1759336148444054800,6.2030546875,9.632172584533691,1.8842366933822632,0.3902548849582672
1759336148454054700,6.2130546875,9.641749382019043,1.9393033981323242,0.5363011956214905
1759336148464054800,6.2230546875,9.52922248840332,1.8938134908676147,0.5339069962501526
1759336148474054700,6.2330546875,9.471760749816895,2.032677173614502,0.5434837937355042
1759336148494054400,6.253054443359375,9.428665161132812,2.0661959648132324,0.5602431893348694
1759336148504054300,6.26305419921875,9.378387451171875,2.056619167327881,0.5506663918495178
1759336148514054100,6.27305419921875,9.438241958618164,2.0231003761291504,0.4668693244457245
1759336148524055000,6.283054931640625,9.598653793334961,1.9823989868164062,0.23702596127986908
1759336148534055200,6.29305517578125,9.627384185791016,1.9943699836730957,0.14365209639072418
1759336148544055300,6.30305517578125,9.624990463256836,1.8962076902389526,0.12928688526153564
1759336148554055200,6.31305517578125,9.56513500213623,1.8339585065841675,0.1604115068912506
1759336148564055300,6.32305517578125,9.517251014709473,1.8531121015548706,0.1867477297782898
1759336148574055200,6.33305517578125,9.435848236083984,1.8986018896102905,0.2825157940387726
1759336148584055000,6.343054931640625,9.31853199005127,1.9512743949890137,0.36152446269989014
1759336148594055200,6.35305517578125,9.287407875061035,1.987187385559082,0.3998316824436188
1759336148604055000,6.363054931640625,9.397541046142578,1.9800047874450684,0.4381389021873474
1759336148614055200,6.37305517578125,9.510068893432617,1.9991583824157715,0.4118026793003082
1759336148624054300,6.38305419921875,9.696816444396973,2.013523578643799,0.38546648621559143
1759336148634054100,6.39305419921875,9.936236381530762,1.9704279899597168,0.35913026332855225
1759336148644054300,6.40305419921875,10.0487642288208,1.9584569931030273,0.38067805767059326
1759336148654054100,6.41305419921875,10.103830337524414,1.9177556037902832,0.3280056416988373
1759336148664054300,6.42305419921875,10.132560729980469,1.8938134908676147,0.23942017555236816
1759336148674054100,6.43305419921875,9.981725692749023,1.8411411046981812,0.15322890877723694
1759336148684054300,6.44305419921875,9.763854026794434,1.802833914756775,0.014365210197865963
1759336148694054100,6.45305419921875,9.572318077087402,1.625662922859192,-0.4118026793003082
1759336148704054300,6.46305419921875,9.74470043182373,1.6927006244659424,-0.26336219906806946
1759336148714054100,6.47305419921875,9.524434089660645,1.556231141090393,-0.23942017555236816
1759336148724055000,6.483054931640625,9.545981407165527,1.5131354331970215,-0.12449848651885986
1759336148734055200,6.49305517578125,9.455001831054688,1.5873557329177856,-0.12689268589019775
1759336148744055000,6.503054931640625,9.395146369934082,1.6543933153152466,-0.0694318488240242
1759336148754055200,6.51305517578125,9.40711784362793,1.721431016921997,0.09816227108240128
1759336148764055000,6.523054931640625,9.471760749816895,1.824381709098816,0.3758896589279175
1759336148774055200,6.53305517578125,9.483732223510742,1.900996208190918,0.6536170840263367
1759336148784055600,6.5430556640625,9.541193008422852,1.9752163887023926,0.7948749661445618
1759336148794055400,6.553055419921875,9.610625267028809,2.0039467811584473,0.8738836050033569
1759336148804055600,6.5630556640625,9.761459350585938,1.9847931861877441,0.9696516990661621
1759336148814055700,6.5730556640625,9.754277229309082,2.0661959648132324,1.036689281463623
1759336148824054800,6.5830546875,9.696816444396973,2.1763293743133545,1.192312479019165
1759336148834054700,6.5930546875,9.507674217224121,2.231395959854126,1.4413094520568848
1759336148844054500,6.603054443359375,9.375992774963379,2.276885747909546,1.6615760326385498
1759336148854054700,6.6130546875,9.340080261230469,2.3942017555236816,1.8171991109848022
1759336148864054500,6.623054443359375,9.354445457458496,2.451662540435791,1.922544002532959
1759336148874054700,6.6330546875,9.445425033569336,2.473210334777832,1.9800047874450684
1759336148884054500,6.643054443359375,9.507674217224121,2.454056739807129,1.9273324012756348
1759336148894054700,6.6530546875,9.519645690917969,2.360682964324951,1.7142484188079834
1759336148904054500,6.663054443359375,9.488520622253418,2.2864625453948975,1.525106430053711
1759336148914054700,6.6730546875,9.603442192077637,2.1595699787139893,1.3479355573654175
1759336148924055600,6.6830556640625,9.701604843139648,2.0374655723571777,1.256955862045288
1759336148934055400,6.693055419921875,9.711181640625,1.9512743949890137,1.278503656387329
1759336148944055600,6.7030556640625,9.775824546813965,1.8962076902389526,1.37906014919281
1759336148954055400,6.713055419921875,9.739912033081055,1.9153614044189453,1.5298948287963867
1759336148964055600,6.7230556640625,9.65611457824707,1.9991583824157715,1.6136919260025024
1759336148974055400,6.733055419921875,9.574711799621582,2.0661959648132324,1.5514427423477173
1759336148984055600,6.7430556640625,9.488520622253418,2.070984363555908,1.3862427473068237
1759336148994055400,6.753055419921875,9.507674217224121,2.0638017654418945,1.1994950771331787
1759336149004055600,6.7630556640625,9.495702743530273,1.9584569931030273,0.9911994934082031
1759336149014055400,6.773055419921875,9.452607154846191,1.9153614044189453,0.871489405632019
1759336149024054800,6.7830546875,9.510068893432617,1.9823989868164062,0.8882488012313843
1759336149034054700,6.7930546875,9.5316162109375,2.0422539710998535,1.0654197931289673
1759336149044054800,6.8030546875,9.49809741973877,2.073378562927246,1.292868971824646
1759336149054054700,6.8130546875,9.502885818481445,2.1308395862579346,1.4484920501708984
1759336149064054500,6.823054443359375,9.462183952331543,2.1739351749420166,1.6950948238372803
1759336149074054700,6.8330546875,9.332897186279297,2.207453966140747,1.8555063009262085
1759336149084054500,6.843054443359375,9.1940336227417,2.2864625453948975,1.965639591217041
1759336149094054700,6.8530546875,9.062353134155273,2.3535003662109375,2.0183119773864746
1759336149104054500,6.863054443359375,9.057564735412598,2.3032219409942627,1.9129672050476074
1759336149114054700,6.8730546875,9.050381660461426,2.252943754196167,1.8626888990402222
1759336149124055600,6.8830556640625,9.057564735412598,2.248155355453491,1.8914192914962769
1759336149134055400,6.893055419921875,9.04559326171875,2.2361843585968018,2.027888774871826
1759336149144055600,6.9030556640625,9.143755912780762,2.22660756111145,2.1284453868865967
1759336149154055700,6.9130556640625,9.387964248657227,2.3056161403656006,2.051830768585205
1759336149164055600,6.9230556640625,9.613018989562988,2.22660756111145,1.965639591217041
1759336149174055700,6.9330556640625,9.981725692749023,2.1930887699127197,1.9560627937316895
1759336149184055600,6.9430556640625,10.020033836364746,2.0661959648132324,1.8842366933822632
1759336149194055400,6.953055419921875,9.993697166442871,1.987187385559082,1.577778935432434
