time,seconds_elapsed,z,y,x
1759486419080673500,0.043673583984375,8.583661864471434,-3.657591948699951,-2.051681185150146
1759486419090730500,0.05373046875,8.729857803344727,-3.5826235092163086,-2.0588637901306153
1759486419100788500,0.06378857421875,8.805574430847168,-3.5776854682922363,-2.0075380920410155
1759486419110845400,0.073845458984375,8.806621894073485,-3.65804086151123,-1.9584569580078124
1759486419120902700,0.083902587890625,8.804676605224609,-3.74767378616333,-1.9768623832702636
1759486419130959600,0.093959716796875,8.79719472503662,-3.745878134918213,-2.0317793838500977
1759486419141016600,0.1040166015625,8.832808474731445,-3.736151690673828,-2.093430076599121
1759486419151073500,0.114073486328125,8.853308826446533,-3.7496190750122067,-2.1721394561767577
1759486419161130500,0.124130615234375,8.856002303314208,-3.73480495223999,-2.222417691040039
1759486419171187500,0.1341875,8.858097229766845,-3.7306150993347167,-2.1938369087219236
1759486419181244700,0.14424462890625,8.802282403564453,-3.749469437408447,-2.1158757171630858
1759486419191301600,0.154301513671875,8.764873002624512,-3.7793969581604,-2.006640266418457
1759486419201358600,0.164358642578125,8.748113591003417,-3.8323686698913573,-1.8990508293151855
1759486419211415600,0.17441552734375,8.738536784362793,-3.819799111175537,-1.8587983139038085
1759486419221472500,0.184472412109375,8.744522288513183,-3.7659295738220213,-1.9072808975219726
1759486419231529500,0.194529541015625,8.75305163192749,-3.76039298248291,-1.9629460861206054
1759486419241586400,0.20458642578125,8.739284972381592,-3.771316527557373,-1.9716250671386717
1759486419251643400,0.214643310546875,8.770409593963622,-3.758447693634033,-1.988085203552246
1759486419261700400,0.224700439453125,8.786420817565917,-3.676745561981201,-1.9571102195739745
1759486419271757600,0.234757568359375,8.800486752319335,-3.6445734771728513,-1.93451494140625
1759486419281814500,0.244814453125,8.809315370941162,-3.6653731040954587,-1.9330185653686522
1759486419291871500,0.25487158203125,8.83610050201416,-3.73495458984375,-1.9327192901611328
1759486419301928400,0.264928466796875,8.883385984802246,-3.808875566101074,-1.9675848518371581
1759486419311985400,0.2749853515625,8.852859913635253,-3.809623754119873,-1.9856910018920897
1759486419322042400,0.28504248046875,8.813954136657715,-3.8244378768920897,-1.9813515113830564
1759486419332099300,0.295099365234375,8.760533512115478,-3.7927147048950194,-2.0331261222839356
1759486419342156300,0.30515625,8.75903713607788,-3.726574884033203,-2.0473416946411134
1759486419352213500,0.315213623046875,8.779986400604248,-3.690961134338379,-2.038662713623047
1759486419362270700,0.325270751953125,8.787767555999755,-3.6548984718322752,-2.0760721145629883
1759486419372327700,0.33532763671875,8.819490727996826,-3.6004303840637206,-2.1052514472961423
1759486419382384600,0.345384521484375,8.867075485992432,-3.6329017440795894,-2.0841525451660154
1759486419392441600,0.355441650390625,8.85480520248413,-3.709965110015869,-2.034772135925293
1759486419402498600,0.36549853515625,8.811410297393799,-3.681833240509033,-2.01741417388916
1759486419412555500,0.375555419921875,8.782230964660645,-3.6385879730224606,-2.1071967361450192
1759486419422612500,0.385612548828125,8.79210704650879,-3.6342484825134274,-2.198924587249756
1759486419432669400,0.39566943359375,8.788515744018554,-3.656993398284912,-2.253093399810791
1759486419442726700,0.4057265625,8.806172981262206,-3.684377079772949,-2.213439434814453
1759486419452783600,0.41578369140625,8.803180229187012,-3.745878134918213,-2.13248549118042
1759486419462840600,0.425840576171875,8.786869730377196,-3.816955996704101,-2.0479402450561524
1759486419472897500,0.4358974609375,8.696937530517578,-3.8462849670410155,-1.9716250671386717
1759486419482954500,0.44595458984375,8.667458922576904,-3.8168063591003416,-1.893514237976074
1759486419493011500,0.456011474609375,8.671798413085938,-3.7523125518798826,-1.8754080879211426
1759486419503068400,0.466068359375,8.690802388763426,-3.718344815826416,-1.900547205352783
1759486419513125400,0.47612548828125,8.750507792663575,-3.681234690093994,-1.969530140686035
1759486419523182300,0.486182373046875,8.801384577941894,-3.6694133193969725,-2.0437503921508786
1759486419533239600,0.496239501953125,8.83041427307129,-3.698443014526367,-2.0603601661682127
1759486419543296500,0.506296630859375,8.783876978302002,-3.7116111236572262,-2.0600608909606932
1759486419553353500,0.516353515625,8.75888749847412,-3.7192426414489743,-2.0464438690185545
1759486419563410400,0.526410400390625,8.762179525756835,-3.760991532897949,-2.0498855339050293
1759486419573467400,0.53646728515625,8.77923821258545,-3.783437173461914,-2.0521300979614256
1759486419583524400,0.5465244140625,8.82338130569458,-3.793013980102539,-2.0877438476562498
1759486419593581300,0.556581298828125,8.831012823486327,-3.7569513175964353,-2.110039850616455
1759486419603638500,0.566638427734375,8.846575134277343,-3.7289690856933593,-2.1589713470458984
1759486419613696500,0.576696533203125,8.826822970581054,-3.7202901046752928,-2.1646575759887696
1759486419623752700,0.586752685546875,8.808866458129883,-3.690961134338379,-2.190544881439209
1759486419633810400,0.596810546875,8.77834038696289,-3.678092300415039,-2.1443068618774412
1759486419643867400,0.606867431640625,8.751106343078613,-3.7701194267272946,-2.046743144226074
1759486419653924400,0.61692431640625,8.737040408325194,-3.7982512962341306,-1.953070004272461
1759486419663981300,0.626981201171875,8.694393691253662,-3.765031748199463,-1.9137153144836425
1759486419674038500,0.63703857421875,8.68212340774536,-3.72178648071289,-1.8981530036926269
1759486419684095500,0.647095458984375,8.690952026367187,-3.661332888793945,-1.951723265838623
1759486419694152700,0.657152587890625,8.719832083892822,-3.611054653930664,-2.0361188743591305
1759486419704209700,0.667209716796875,8.788515744018554,-3.6424785507202144,-2.1164742675781247
1759486419714266600,0.6772666015625,8.820687828826903,-3.656993398284912,-2.17707749710083
1759486419724323000,0.687322998046875,8.815899425506592,-3.6638767280578612,-2.17079271774292
1759486419734380000,0.697380126953125,8.786570455169677,-3.679289401245117,-2.0971710166931152
1759486419744437000,0.70743701171875,8.693944778442383,-3.7696705139160156,-2.005143890380859
1759486419754494200,0.717494140625,8.66431653289795,-3.8126165061950683,-2.038064163208008
1759486419764551200,0.72755126953125,8.698134631347656,-3.7790976829528806,-2.0753239265441894
1759486419774608100,0.737608154296875,8.738536784362793,-3.7056256195068356,-2.063352918243408
1759486419784665000,0.7476650390625,8.7210291847229,-3.661482526397705,-2.033425397491455
1759486419794722000,0.75772216796875,8.680776669311523,-3.677942662811279,-2.044049667358398
1759486419804779000,0.767779052734375,8.65069951095581,-3.686172731018066,-2.142810485839844
1759486419814836000,0.7778359375,8.681375219726561,-3.698592652130127,-2.168847428894043
1759486419824893000,0.787892822265625,8.706663974761963,-3.743783208465576,-2.217330012512207
1759486419834950000,0.797949951171875,8.668057472991944,-3.818302735137939,-2.185457202911377
1759486419845007000,0.808007080078125,8.717587519836425,-3.873818286132812,-2.2041619033813475
1759486419855064000,0.81806396484375,8.812008847808837,-3.966443962860107,-2.260724917602539
1759486419865121000,0.82812109375,8.908076189422607,-3.980060984802246,-2.2738930267333983
1759486419875178000,0.838177978515625,8.863633821105957,-3.9299323875427246,-2.195034009552002
1759486419885235000,0.84823486328125,8.756493296813964,-3.8462849670410155,-2.2278046447753903
1759486419895292200,0.858292236328125,8.765321915435791,-3.7823897102355954,-2.2206220397949217
1759486419905349000,0.86834912109375,8.73374838104248,-3.8181530975341795,-2.169296341705322
1759486419915406000,0.878406005859375,8.706963249969482,-3.7945103561401363,-2.1480478019714355
1759486419925463000,0.888463134765625,8.716988969421386,-3.769969789123535,-2.1568764205932616
1759486419935520300,0.898520263671875,8.776694373321533,-3.742586107635498,-2.1390695457458495
1759486419945577200,0.9085771484375,8.743774100494385,-3.8091748413085935,-2.0958242782592773
1759486419955634200,0.91863427734375,8.781033863830565,-3.8750153869628905,-2.1155764419555663
1759486419965691100,0.928691162109375,8.817695076751708,-3.93906028137207,-2.175730758666992
1759486419975748000,0.938748046875,8.798541463470459,-4.048146094512939,-2.250399922943115
1759486419985805000,0.94880517578125,8.834903401184082,-4.0800189041137696,-2.2987328689575195
1759486419995862000,0.958862060546875,8.91885009689331,-4.131344602203369,-2.361431024932861
1759486420005919000,0.9689189453125,8.787767555999755,-4.037521824645996,-2.2656629585266113
1759486420015976200,0.97897607421875,8.646509658050537,-3.7722143531799315,-2.1434090362548828
1759486420026033200,0.989033203125,8.555829270172119,-3.6852749053955076,-2.177825685119629
1759486420036090000,0.999090087890625,8.601468739318847,-3.6833296165466307,-2.2815245445251464
1759486420046147000,1.00914697265625,8.645162919616698,-3.554192364501953,-2.2834698333740233
1759486420056204000,1.0192041015625,8.589198455810546,-3.449296404266357,-2.249202822113037
1759486420066261000,1.029260986328125,8.56824919128418,-3.3871967987060545,-2.366817978668213
1759486420076318000,1.03931787109375,8.66985312423706,-3.355473626708984,-2.4197896903991696
1759486420086375000,1.049375,8.697236805725097,-3.375375428009033,-2.384026303100586
1759486420096431900,1.059431884765625,8.664615808105468,-3.3915362892150878,-2.388964344024658
1759486420106489000,1.069489013671875,8.650849148559569,-3.4528877067565915,-2.380584638214111
1759486420116546000,1.079546142578125,8.641870892333984,-3.578583293914795,-2.407369769287109
1759486420126603000,1.08960302734375,8.673294789123535,-3.6674680305480956,-2.4542063392639157
1759486420136660200,1.09966015625,8.671648775482177,-3.7762545684814453,-2.473659227752685
1759486420146717200,1.10971728515625,8.697386443328856,-3.8476317054748534,-2.386420504760742
1759486420156774100,1.119774169921875,8.727014688873291,-3.9565678810119627,-2.2188263885498047
1759486420166831000,1.1298310546875,8.737190045928955,-4.019116399383544,-2.2171803749084473
1759486420176888000,1.13988818359375,8.66282015686035,-3.9344215156555173,-2.193687271118164
1759486420186945000,1.149945068359375,8.649053497314453,-3.781342247009277,-2.1820155380249022
1759486420197002200,1.160002197265625,8.688557824707031,-3.72178648071289,-2.2539912254333494
1759486420207059200,1.17005908203125,8.72761323928833,-3.7229835815429686,-2.328959664916992
1759486420217116200,1.1801162109375,8.780734588623046,-3.7542578407287595,-2.4461259086608886
1759486420227173000,1.190173095703125,8.845826946258544,-3.7755063804626463,-2.471414663696289
1759486420237230000,1.20022998046875,8.826822970581054,-3.806331726837158,-2.49011936416626
1759486420247287000,1.210287109375,8.68317087097168,-3.777601306915283,-2.3677158042907713
1759486420257344000,1.220343994140625,8.510788351440429,-3.6994904777526854,-2.3246201744079587
1759486420267401000,1.23040087890625,8.501810095214843,-3.750067987823486,-2.267757884979248
1759486420277458200,1.240458251953125,8.405293840789794,-3.7460277725219724,-2.216132911682129
1759486420287515100,1.25051513671875,8.46544815750122,-3.734056764221191,-2.3377882835388184
1759486420297572000,1.260572021484375,8.472930037689208,-3.7077205459594724,-2.3527520439147946
1759486420307629000,1.270629150390625,8.489689449310303,-3.6764462867736816,-2.3033716346740722
1759486420317686000,1.28068603515625,8.532036891174316,-3.6379894226074216,-2.248304996490478
1759486420327743000,1.290742919921875,8.619574889373778,-3.5805285827636717,-2.194285821533203
1759486420337800000,1.300800048828125,8.651298061370849,-3.6897640335083004,-2.363376313781738
1759486420347857000,1.31085693359375,8.72117882232666,-3.5678093864440914,-2.485330960845947
1759486420357913900,1.320913818359375,8.74601866455078,-3.5850177108764645,-1.9445406608581541
1759486420367971000,1.33097119140625,8.616282862091063,-3.8428433021545407,-2.124704335784912
1759486420378028000,1.341028076171875,8.756642934417725,-4.077175789642334,-2.3280618392944334
1759486420388085200,1.351085205078125,8.882338521575928,-4.067150070190429,-2.1715409057617188
1759486420398142200,1.36114208984375,8.901043222045898,-4.024054440307617,-2.2361843505859373
1759486420408199200,1.37119921875,9.04753843612671,-3.9516298400878904,-2.1416133850097654
1759486420418256100,1.381256103515625,8.891316777801514,-4.001608799743652,-2.102408332824707
1759486420428313000,1.39131298828125,8.820388553619384,-3.9845501129150387,-2.382679564666748
1759486420438370000,1.4013701171875,8.754697645568847,-3.857358149719238,-2.1217115837097165
1759486420448427000,1.411427001953125,8.457517364501953,-4.013579808044433,-2.0331261222839356
1759486420458484200,1.421484130859375,8.456469901275634,-3.9897874290466304,-2.2858640350341797
1759486420468541200,1.431541259765625,8.594585409545898,-3.744381758880615,-2.403030278778076
1759486420478598100,1.44159814453125,8.940397911834717,-3.6447231147766113,-2.69422505569458
1759486420488655000,1.451655029296875,9.444377361297606,-3.4555811836242674,-2.9180829109191895
1759486420498712000,1.461712158203125,9.979182157135009,-3.539677516937256,-3.041384296417236
1759486420508769000,1.47176904296875,10.298808078765868,-3.938461730957031,-3.0749031196594236
1759486420518826000,1.481825927734375,10.070311457824706,-4.6079403701782224,-3.338265302276611
1759486420528883000,1.491883056640625,9.647884502410887,-4.796932663726806,-3.5799300323486327
1759486420538940200,1.501940185546875,9.118167385101318,-4.648641798400878,-3.629310441589355
1759486420548997000,1.5119970703125,8.933065669250487,-4.32198290939331,-3.832518307495117
1759486420559054000,1.52205419921875,9.006388095092772,-3.9489363632202146,-3.969287077331543
1759486420569111000,1.532111083984375,8.646659295654297,-3.9879917778015135,-3.018340105438232
1759486420579168000,1.54216796875,7.614010192108154,-5.17132594833374,-2.346317626953125
1759486420589225000,1.552224853515625,8.380154723358153,-5.2450972869873045,-3.2882863426208493
1759486420599282000,1.562281982421875,8.986037380981445,-4.9075148529052735,-2.9370868865966795
1759486420609338000,1.572338134765625,9.015964901733398,-4.8389808303833,-2.952050646972656
1759486420619395000,1.58239501953125,8.785223716735839,-4.880729721832275,-2.2026655273437497
1759486420629452000,1.5924521484375,8.112752325439452,-5.039644857025146,-1.5014637161254882
1759486420639509000,1.602509033203125,8.429086219787598,-4.939836575317383,-2.0542250244140625
1759486420649566200,1.612566162109375,8.361150747680664,-4.8521489395141595,-1.476623873901367
1759486420659623200,1.622623046875,8.329277938079834,-4.8989855094909665,-1.6885107208251953
1759486420669680000,1.63268017578125,8.371625379943847,-5.0109144371032714,-1.6452654533386228
1759486420679737000,1.642737060546875,8.015637520599364,-5.115361484527588,-1.4344260696411133
1759486420689794000,1.6527939453125,7.779659019470214,-5.390096125030517,-1.7580922065734863
1759486420699851000,1.66285107421875,8.123975145721435,-5.457732321929932,-1.9943699829101562
1759486420709908000,1.672907958984375,8.310573237609862,-5.537489164733886,-1.8803461288452148
1759486420719965000,1.68296484375,8.086715382385254,-5.942408520507812,-1.8758570007324218
1759486420730022400,1.6930224609375,7.509712782287597,-6.348973889923095,-1.6813281158447264
1759486420740079400,1.703079345703125,7.002590943145751,-6.663212857818603,-1.269824705505371
1759486420750136300,1.71313623046875,6.9336080078124995,-6.800430540466309,-1.3007996894836424
1759486420760193300,1.723193359375,7.200262217712402,-6.940341699981689,-1.1890203994750976
1759486420770250500,1.73325048828125,7.404218271636963,-7.223007133483886,-1.0940005210876464
1759486420780307500,1.743307373046875,7.243657122802734,-7.545625807189941,-1.0631751747131346
1759486420790364400,1.753364501953125,7.153126372528075,-7.747337297058105,-1.2407950103759764
1759486420800421400,1.76342138671875,7.202506781768799,-7.8441528266906735,-1.2810475257873535
1759486420810478300,1.773478271484375,7.107935816192627,-7.86585027923584,-1.1953051788330078
1759486420820535300,1.783535400390625,6.8599863067626945,-7.688380081176757,-1.2834417274475096
1759486420830592500,1.793592529296875,6.69733023147583,-7.500135975646972,-1.4221557861328125
1759486420840649500,1.8036494140625,6.674734953308105,-7.401225519561767,-1.2439374000549315
1759486420850706400,1.81370654296875,6.720374422454833,-7.22719698638916,-1.0235212097167967
1759486420860763600,1.823763671875,6.76765990524292,-6.95261198348999,-0.9132382957458496
1759486420870820600,1.833820556640625,6.751050131225585,-6.735038907623291,-0.730979694366455
1759486420880877600,1.843877685546875,6.4369608009338375,-6.741174049377441,-0.9311948081970214
1759486420890934500,1.8539345703125,6.280140592193603,-6.865373260498046,-0.8369231178283691
1759486420900991500,1.863991455078125,6.30123949432373,-7.0935706062316894,-0.5315127685546874
1759486420911048400,1.87404833984375,6.36513475112915,-7.3280527313232415,-0.5681739814758301
1759486420921105400,1.88410546875,6.462249555969238,-7.408408124542236,-0.6370072792053222
1759486420931162400,1.894162353515625,6.329371363830566,-7.308749480438232,-0.5220855995178222
1759486420941219600,1.904219482421875,6.391022056579589,-7.27163935470581,-0.35149873123168945
1759486420951276500,1.914276611328125,6.364536200714111,-7.25862088317871,-0.2428618309020996
1759486420961333500,1.92433349609375,6.1647699996948235,-7.299023036193847,-0.10594342346191406
1759486420971390500,1.934390380859375,5.969492926788329,-7.479037073516845,-0.055365913391113276
1759486420981447400,1.944447509765625,5.712116248321533,-7.395988203430175,0.0383072265625
1759486420991504400,1.95450439453125,5.616048906707763,-7.396586753845215,0.009726444244384765
1759486421001561300,1.964561279296875,5.532401486206054,-7.2164230789184565,0.16295535049438475
1759486421011618300,1.974618408203125,5.738302828979492,-7.212831776428223,0.22131401596069333
1759486421021675300,1.98467529296875,5.878962176513672,-7.3928458137512205,0.13856442108154296
1759486421031732500,1.994732421875,5.734861164093017,-7.288099491119384,0.32007483444213863
1759486421041789400,2.00478955078125,5.721094504547119,-7.715165212249755,0.2467524085998535
1759486421051846400,2.014846435546875,5.4786815864562985,-7.7501804115295405,0.33758243408203126
1759486421061903400,2.0249033203125,5.614402893066406,-8.112453050231933,0.4101566719055176
1759486421071960600,2.034960693359375,5.612607241821289,-8.229918569183349,0.6316203254699707
1759486421082017500,2.045017578125,5.45818123474121,-8.28064571685791,0.6597521949768066
1759486421092073500,2.055073486328125,5.3484968711853025,-8.43447317352295,0.668431175994873
1759486421102130400,2.06513037109375,4.98562568206787,-8.545055362701415,0.9151835845947265
1759486421112187400,2.0751875,4.773589197540283,-8.856301578521729,0.8735843307495117
1759486421122244400,2.085244384765625,5.119102424621582,-9.138368461608886,0.6917746421813964
1759486421132301600,2.095301513671875,4.840477206420898,-8.882039246368407,0.9865607215881347
1759486421142358500,2.105358642578125,5.030068050384521,-9.085696025085449,1.0567407577514647
1759486421152415500,2.11541552734375,5.350891072845458,-9.063549659729004,0.9124901077270507
1759486421162472400,2.125472412109375,4.940584763336181,-8.199093222808838,0.8846575134277344
1759486421172529400,2.135529296875,4.020313500213623,-7.159411151885986,0.9907505744934082
1759486421182586400,2.14558642578125,4.0614638412475585,-7.543231605529785,0.8961796089172362
1759486421192643300,2.155643310546875,4.219481150817871,-8.045714678955077,1.0443208366394043
1759486421202700300,2.1657001953125,4.422090466308593,-8.359205458831786,1.103876602935791
1759486421212757200,2.17575732421875,4.398148449707031,-8.22946965637207,1.4459481651306152
1759486421222814500,2.185814453125,4.698620758056641,-8.795997624206542,1.7559972801208494
1759486421232871400,2.195871337890625,4.775983399200439,-8.909422927856445,1.7764976318359373
1759486421242928400,2.205928466796875,4.405331054687499,-8.41502028503418,1.7693150268554687
1759486421252985600,2.215985595703125,3.997867859649658,-8.091653423309326,1.8025345748901367
1759486421263042600,2.22604248046875,3.5788825691223143,-7.931690824890136,1.898601916503906
1759486421273099500,2.236099609375,3.0725089179992673,-7.632265979766845,2.176478946685791
1759486421283156500,2.246156494140625,2.8755858314514158,-7.508515681457519,2.1321862159729004
1759486421293213400,2.25621337890625,2.9492075325012204,-7.337030987548828,1.927332336425781
1759486421303270400,2.2662705078125,3.0301614761352536,-7.151031446075439,1.9138649520874023
1759486421313327600,2.27632763671875,3.251475492095947,-7.236624155426025,2.0287866317749024
1759486421323384600,2.286384521484375,3.6596868751525875,-7.536198638153076,2.3364415451049805
1759486421333441500,2.296441650390625,3.8398505500793454,-7.827692690277099,2.4899697265625
1759486421343498500,2.30649853515625,3.9960722084045406,-8.105120807647705,2.4247277313232423
1759486421353555500,2.316555419921875,4.152293866729736,-8.31835439300537,2.2945430160522458
1759486421363612400,2.3266123046875,4.157082270050049,-8.45916337814331,2.0519804603576657
1759486421373669400,2.33666943359375,3.9728783798217773,-8.428487669372558,1.7175404159545897
1759486421383726300,2.346726318359375,3.7994483970642086,-8.285883032989501,1.5025111793518064
1759486421393783600,2.356783447265625,3.969137439727783,-8.544307174682617,1.4637550399780273
1759486421403840500,2.366840576171875,3.7515643638610836,-8.632892636108398,1.7477672119140624
1759486421413897500,2.3768974609375,3.527407233428955,-8.833257387542725,1.8439841911315917
1759486421423953400,2.386953369140625,3.2843957649230955,-8.756792572021483,1.804180588531494
1759486421434010600,2.3970107421875,2.915090158843994,-8.70187557144165,1.9813515113830564
1759486421444067600,2.407067626953125,2.8817209732055664,-9.065195673370361,2.151040554046631
1759486421454124500,2.41712451171875,2.7699416831970214,-9.251793765258789,2.0944775398254394
1759486421464181500,2.427181396484375,2.5246856506347655,-9.088988052368164,2.0706851608276367
1759486421474238500,2.437238525390625,2.3151930053710936,-8.850615349578858,2.2598270919799806
1759486421484295400,2.44729541015625,2.335394081878662,-8.677185366821288,2.583343591308594
1759486421494352400,2.457352294921875,2.346766539764404,-8.589497731018065,2.9863176582336424
1759486421504409600,2.46740966796875,2.229899571228027,-8.582165488433837,3.350385948181152
1759486421514466600,2.477466552734375,2.207753205871582,-8.808267907714843,3.7400422683715817
1759486421524523500,2.4875234375,2.2948422912597657,-9.485826977539062,4.142268147277832
1759486421534580500,2.49758056640625,2.66220260848999,-10.491541312408447,4.149899665069579
1759486421544637400,2.507637451171875,2.995744827270508,-10.843638594055175,3.1296704826354977
1759486421554694400,2.5176943359375,3.169773360443115,-10.41298157043457,1.750610326385498
1759486421564751400,2.52775146484375,3.382408395385742,-10.065971967315674,1.1709142494201659
1759486421574808300,2.537808349609375,3.9468414367675777,-10.07435167312622,1.5662567985534668
1759486421584865500,2.547865478515625,4.298489805603027,-10.07495022354126,2.261922018432617
1759486421594922500,2.557922607421875,4.302380383300781,-9.873837284088134,2.5444378143310544
1759486421604979500,2.5679794921875,4.074931225585937,-9.752630825042724,2.3992893386840817
1759486421615036400,2.578036376953125,3.0551509559631347,-9.35908392715454,2.1375731697082516
1759486421625093400,2.58809326171875,1.700182453918457,-9.101557611083983,1.8733131614685057
1759486421635150300,2.598150390625,1.3627496574401854,-9.30252091293335,1.9306243637084959
1759486421645207300,2.608207275390625,1.5319897872924804,-9.53760158843994,2.2756886779785157
1759486421655264300,2.61826416015625,1.792059942626953,-9.638008420562743,2.477699443054199
1759486421665321500,2.628321533203125,2.0780174034118652,-9.523086740875243,2.426673020172119
1759486421675378700,2.638378662109375,2.075473564147949,-9.00878229675293,2.658461668395996
1759486421685434400,2.648434326171875,1.914014589691162,-8.590395556640624,2.9550433990478515
1759486421695491600,2.65849169921875,1.9021932189941406,-8.392724282073974,3.078494422149658
1759486421705548500,2.668548583984375,1.8812439544677733,-8.251017471313476,3.0538042175292968
1759486421715605500,2.67860546875,1.8359037605285644,-8.1724577293396,3.1631893058776854
1759486421725662500,2.688662353515625,1.8195932617187498,-8.181136710357665,3.4458547393798824
1759486421735719400,2.698719482421875,1.933168202972412,-8.184877650451659,3.884143280792236
1759486421745776400,2.7087763671875,2.175581121063232,-8.397063772583007,4.167706539916992
1759486421755833300,2.718833251953125,2.13248549118042,-8.80392841720581,3.689464758300781
1759486421765890300,2.728890380859375,2.0497358963012693,-9.054571403503417,3.1102175941467283
1759486421775947500,2.738947509765625,2.0522797355651856,-9.019556204223631,2.6223990058898923
1759486421786004500,2.74900439453125,2.1824644508361817,-8.88009395751953,2.19623111038208
1759486421796061400,2.7590615234375,2.2656629585266113,-8.716091143798828,2.131737303161621
1759486421806118400,2.769118408203125,2.6542718154907226,-8.749909242248535,2.2231658790588376
1759486421816175400,2.77917529296875,2.81543151473999,-8.87410845336914,2.3898621696472166
1759486421826232300,2.789232421875,2.972401361083984,-8.9631428276062,2.609230896759033
1759486421836289300,2.799289306640625,2.9550433990478515,-8.957905511474609,2.867804676055908
1759486421846346500,2.809346435546875,3.0144495277404784,-9.084199649047852,2.992901712799072
1759486421856403500,2.819403564453125,3.031807489776611,-9.143605777740477,3.1126117958068846
1759486421866460700,2.829460693359375,2.9900585983276367,-9.056516692352295,3.155857063293457
1759486421876517600,2.839517578125,2.9153894340515136,-8.822483480072021,3.1006407875061033
1759486421886574600,2.84957470703125,3.035099517059326,-8.651298061370849,3.131466133880615
1759486421896631600,2.859631591796875,3.2058360229492187,-8.711452378082274,3.1624411178588865
1759486421906688500,2.8696884765625,3.3500866729736325,-8.80332986679077,3.2405519470214843
1759486421916745500,2.879745361328125,3.4962826118469237,-8.793004872131347,3.2721254814147946
1759486421926801400,2.889801513671875,3.493439497375488,-8.67643717880249,3.2646436012268065
1759486421936858400,2.8998583984375,3.4082957008361814,-8.516923493194579,3.1745617637634274
1759486421946915300,2.909915283203125,3.4186206954956053,-8.434772448730468,3.0080151107788082
1759486421956972300,2.91997216796875,3.442413074493408,-8.480262280273436,2.8075007217407224
1759486421967029200,2.930029296875,3.4466029273986813,-8.578274910736084,2.66205297088623
1759486421977086500,2.94008642578125,3.4858079795837402,-8.716240781402588,2.656666017150879
1759486421987143400,2.950143310546875,3.3831565834045407,-8.651746974182128,2.7168203338623047
1759486421997200400,2.960200439453125,3.4515409683227536,-8.667159647369385,2.715922508239746
1759486422007257300,2.97025732421875,3.5320459991455078,-8.7087589012146,2.6988638214111327
1759486422017314600,2.980314453125,3.3473931961059566,-8.742277724456786,2.7670985687255856
1759486422027371500,2.99037158203125,3.26898309173584,-8.877101205444335,2.7151743202209473
1759486422037428500,3.000428466796875,3.224690361022949,-8.960150075531006,2.591573659515381
1759486422047485400,3.0104853515625,3.1573534393310547,-8.955361672210692,2.5451860023498534
1759486422057542700,3.020542724609375,3.0617350105285643,-8.76651901626587,2.5348610076904294
1759486422067599600,3.030599609375,3.002029606628418,-8.505401397705077,2.4480711975097655
1759486422077656600,3.040656494140625,2.9165865348815916,-8.326285186004638,2.4019828155517575
1759486422087713500,3.050713623046875,2.891447417449951,-8.422053252410889,2.4404396797180175
1759486422097770500,3.0607705078125,3.0111575004577635,-8.767566479492187,2.5616461387634275
1759486422107827500,3.070827392578125,3.1554081504821774,-9.243414059448241,2.7385177864074706
1759486422117884400,3.080884521484375,3.2763153343200684,-9.624092123413085,2.8857611885070797
1759486422127941400,3.09094140625,3.280654824829101,-9.69696563644409,3.0557495063781737
1759486422137997300,3.100997314453125,3.2338182548522947,-9.475950895690918,3.2167595680236816
1759486422148054300,3.11105419921875,3.238157745361328,-9.114127169799804,3.367594272613525
1759486422158111200,3.121111328125,3.302053002166748,-8.664466170501708,3.3732805015563962
1759486422168168400,3.13116845703125,3.347093920898437,-8.418461949920653,3.0240263343811034
1759486422178225400,3.141225341796875,3.3803134689331054,-8.350975390624999,2.768894219970703
1759486422188282400,3.151282470703125,3.3809120193481443,-8.450783672332763,2.749890244293213
1759486422198339600,3.161339599609375,3.4401685104370117,-8.684218334197997,2.738218511199951
1759486422208396500,3.171396484375,3.471143494415283,-8.940397911834717,2.7066449768066403
1759486422218453500,3.18145361328125,3.451989881134033,-8.994566724395751,2.733280470275879
1759486422228510500,3.191510498046875,3.40919352645874,-8.93097074279785,2.797026089477539
1759486422238567400,3.2015673828125,3.3672949974060056,-8.91211640472412,2.8296470870971677
1759486422248624600,3.211624755859375,3.381211294555664,-8.962843552398681,2.8285996238708493
1759486422258681600,3.221681640625,3.3993174446105954,-9.039158730316162,2.761861252593994
1759486422268738600,3.231738525390625,3.3831565834045407,-9.055020316314696,2.601000828552246
1759486422278795500,3.24179541015625,3.302501914978027,-8.973018909454344,2.49011936416626
1759486422288852500,3.2518525390625,3.2122704399108883,-8.848520423126221,2.477699443054199
1759486422298909400,3.261909423828125,3.1850363960266113,-8.796446537017822,2.47725053024292
1759486422308966400,3.27196630859375,3.1944635650634763,-8.842983831787109,2.5719711334228514
1759486422319022300,3.282022216796875,3.234865718078613,-8.88039323272705,2.659060218811035
1759486422329079300,3.292079345703125,3.2415994102478027,-8.84313346939087,2.6849475242614744
1759486422339136300,3.30213623046875,3.270030554962158,-8.797045087432862,2.701856573486328
1759486422349193200,3.312193115234375,3.297563874053955,-8.789712844848632,2.6837504234313965
1759486422359250400,3.32225048828125,3.3304841468811035,-8.714145854949951,2.6372131286621094
1759486422369307400,3.332307373046875,3.3174656753540037,-8.63768103942871,2.6152164009094236
1759486422379364600,3.342364501953125,3.3150714736938474,-8.635885388183594,2.679859845733642
1759486422389421600,3.352421630859375,3.308936331939697,-8.693944778442383,2.7250504020690918
1759486422399478500,3.362478515625,3.318962051391601,-8.800486752319335,2.7653029174804686
1759486422409535500,3.372535400390625,3.320308789825439,-8.908525102233886,2.786850732421875
1759486422419592400,3.382592529296875,3.2858921409606934,-8.926930527496337,2.752434083557129
1759486422429649400,3.3926494140625,3.1956606658935547,-8.888922576141358,2.712031930541992
1759486422439706600,3.40270654296875,3.1419407661437986,-8.800935665130615,2.7289409797668456
1759486422449763600,3.412763671875,3.132812872314453,-8.7593364112854,2.807949634552002
1759486422459820500,3.422820556640625,3.1384991012573242,-8.726266500854491,2.8488007003784177
1759486422469877500,3.43287744140625,3.1543606872558594,-8.724321212005615,2.8953379951477047
1759486422479934500,3.4429345703125,3.2058360229492187,-8.804526967620848,2.8923452430725094
1759486422489990400,3.452990478515625,3.2447417999267576,-8.837746515655517,2.868253588867187
1759486422500047400,3.46304736328125,3.2760160591125485,-8.838045790863037,2.8411691825866696
1759486422510104300,3.473104248046875,3.262847949981689,-8.791957408905029,2.808398547363281
1759486422520161300,3.483161376953125,3.231124777984619,-8.712350203704833,2.7712884216308593
1759486422530218200,3.49321826171875,3.2122704399108883,-8.681973770141601,2.7308862686157225
1759486422540275500,3.503275390625,3.2480338272094724,-8.724770124816894,2.715473595428467
1759486422550332700,3.513332763671875,3.3188124137878416,-8.850016799163818,2.7295395301818846
1759486422560389600,3.5233896484375,3.375225790405273,-8.953117108154297,2.738218511199951
1759486422570446600,3.533446533203125,3.39018955078125,-8.939200811004637,2.724900764465332
1759486422580503600,3.543503662109375,3.3687913734436035,-8.845378033447265,2.7500398818969725
1759486422590560500,3.553560546875,3.327940307617187,-8.770110318756103,2.8158804275512694
1759486422600617500,3.563617431640625,3.3098341575622556,-8.74018279800415,2.8600235206604
1759486422610674400,3.57367431640625,3.319111688995361,-8.730905266571044,2.9034184257507323
1759486422620731400,3.5837314453125,3.5913024902343746,-8.788216468811035,2.946514055633545
1759486422630788600,3.59378857421875,3.788524851989746,-8.84268455657959,2.9225720390319823
1759486422640845600,3.603845458984375,3.777601306915283,-8.790161757659911,2.895936545562744
1759486422650901500,3.613901611328125,3.8269817161560056,-8.677335004425048,2.8553847549438474
1759486422660958500,3.62395849609375,3.733607851409912,-8.656984290313721,2.8528409156799315
1759486422671015400,3.634015380859375,3.4145804801940915,-8.698284268951415,2.8565818557739258
1759486422681072400,3.644072265625,3.1013889755249022,-8.768613942718506,2.839523168945312
1759486422691129300,3.65412939453125,2.625242120361328,-8.834304850769042,2.7825112419128417
1759486422701186300,3.664186279296875,2.314893730163574,-8.858246867370605,2.850446714019775
1759486422711243300,3.6742431640625,2.3873183303833008,-8.87410845336914,2.9135937828063962
