time,seconds_elapsed,z,y,x
1759157627659409400,0.019409423828125,-0.0066022006794810295,-0.019754378125071526,-0.007711962331086397
1759157627669467400,0.02946728515625,-0.0013408595696091652,-0.015513826161623001,-0.0046991282142698765
1759157627679524400,0.0395244140625,-0.0017382609657943249,-0.011500531807541847,-0.006387104745954275
1759157627689581800,0.049581787109375,0.0003235582262277603,-0.006243717856705189,-0.004776425193995237
1759157627699639800,0.059639892578125,0.0021232720464468002,-0.000518261338584125,-0.009916143491864204
1759157627709697800,0.06969775390625,0.0010737203992903233,-0.00013263564324006438,-0.004506198223680258
1759157627719755800,0.079755859375,0.0027808835729956627,0.005787820089608431,-0.002865707501769066
1759157627729813800,0.089813720703125,0.0041212523356080055,0.0036194741260260344,0.0011785691604018211
1759157627739871700,0.099871826171875,0.00009679561480879784,0.002451713662594557,0.004212209023535252
1759157627749930000,0.109929931640625,-0.005644713528454304,-0.0031148255802690983,0.00009416276589035988
1759157627759987700,0.11998779296875,-0.006316834595054388,-0.009155454114079475,-0.004398622550070286
1759157627770045700,0.130045654296875,-0.007905676029622555,-0.013212780468165874,-0.008647429756820202
1759157627780103700,0.140103759765625,-0.007247736677527428,-0.01864662766456604,-0.013838930986821651
1759157627790162000,0.150161865234375,-0.0070264278911054134,-0.01899603381752968,-0.009956841357052326
1759157627800219000,0.160218994140625,-0.002191459061577916,-0.010853152722120285,-0.002071754075586796
1759157627810276900,0.17027685546875,0.005395936779677868,-0.0013792733661830425,0.005189838819205761
1759157627820334600,0.18033447265625,0.009523770771920681,0.012739107944071293,0.012702248990535736
1759157627830392800,0.190392822265625,0.008551716804504395,0.014032605104148388,0.013649269938468933
1759157627840450800,0.200450927734375,0.012974945828318596,0.022196095436811447,0.01815596967935562
1759157627850508800,0.2105087890625,0.014336088672280312,0.030661752447485924,0.02872392348945141
1759157627860566800,0.22056689453125,0.012503162026405334,0.03797231614589691,0.0371418260037899
1759157627870624800,0.230624755859375,0.014208650216460228,0.04745929315686226,0.03900337591767311
1759157627880682800,0.240682861328125,0.012164292857050896,0.05363029986619949,0.03499015420675278
1759157627890741000,0.250740966796875,0.015706297010183334,0.05350113660097122,0.025061091408133507
1759157627900798700,0.260798828125,0.009705022908747196,0.037625089287757874,0.01554015837609768
1759157627910856700,0.270856689453125,0.013049153611063957,0.054973453283309937,0.0051698097959160805
1759157627920915000,0.2809150390625,0.02389487810432911,0.06489265710115433,0.009961369447410107
1759157627930973000,0.290972900390625,0.0687481015920639,0.09583219885826111,0.019113056361675262
1759157627941030000,0.30102978515625,0.012662629596889019,0.08337094634771347,0.013120037503540516
1759157627951087600,0.311087646484375,-0.025419242680072784,-0.062389712780714035,0.006664268672466278
1759157627961145900,0.321145751953125,-0.006672191899269819,0.03668534755706787,-0.012192872352898121
1759157627971203800,0.331203857421875,0.007208736147731543,0.007514412514865398,0.022129680961370468
1759157627981261800,0.34126171875,0.0029246765188872814,0.008079364895820618,0.02320512756705284
1759157627991319800,0.35131982421875,-0.00046872301027178764,-0.0073539200238883495,0.00782750267535448
1759157628001377800,0.361377685546875,-0.006545611657202244,-0.020907390862703323,0.0076825483702123165
1759157628011435800,0.371435791015625,-0.004844916984438896,-0.022254150360822678,0.011539071798324585
1759157628021493800,0.38149365234375,-0.005421807058155537,-0.03048526868224144,0.011078243143856525
1759157628031551700,0.3915517578125,-0.002998863346874714,-0.029898308217525482,0.007125312928110361
1759157628041609700,0.401609619140625,-0.00019939616322517395,-0.030803067609667778,0.006902037654072046
1759157628051667700,0.411667724609375,-0.00027556251734495163,-0.030191872268915176,0.009108200669288635
1759157628061726000,0.421725830078125,-0.0012499000877141953,-0.027988117188215256,0.007600225042551756
1759157628071783700,0.43178369140625,-0.005204427987337112,-0.023531584069132805,0.007211403455585241
1759157628081841700,0.441841552734375,-0.008859370835125446,-0.015542406588792801,0.009730435907840729
1759157628091900000,0.45189990234375,-0.007959755137562752,-0.007006973959505558,0.014574992470443249
1759157628101958000,0.4619580078125,-0.005110330414026976,-0.0004722448065876961,0.01655646041035652
1759157628112015600,0.472015625,-0.004815784748643637,0.00006012112135067582,0.018628932535648346
1759157628122073900,0.482073974609375,-0.006234267260879278,-0.001176638761535287,0.018488600850105286
1759157628132131800,0.4921318359375,-0.002721025375649333,-0.005903749726712704,0.016977524384856224
1759157628142189800,0.50218994140625,0.0006800796836614609,-0.009275880642235279,0.011817065067589283
1759157628152247800,0.512247802734375,-0.0004991679452359676,-0.010218906216323376,0.0074550737626850605
1759157628162304800,0.5223046875,-0.004122918006032705,-0.009046651422977448,0.0023191766813397408
1759157628172362800,0.53236279296875,0.0005559897981584072,0.001696274266578257,0.00017559807747602463
1759157628182420700,0.542420654296875,0.002316124737262726,0.015612377785146236,-0.0027907085604965687
1759157628192479000,0.55247900390625,0.009466978721320629,0.028629908338189125,0.000736115500330925
1759157628202536700,0.56253662109375,0.01648472435772419,0.03610691800713539,0.0021296264603734016
1759157628212594700,0.5725947265625,0.02214980125427246,0.03819936513900757,0.003579983953386545
1759157628222652700,0.582652587890625,0.0290166474878788,0.03968508541584015,0.0024421950802206993
1759157628232711000,0.5927109375,0.032767441123723984,0.033710282295942307,0.0026597753167152405
1759157628242768600,0.6027685546875,0.03626956790685654,0.03923923149704933,-0.0004884172230958939
1759157628252826600,0.61282666015625,0.0400770902633667,0.03915347531437874,-0.0030506448820233345
1759157628262884900,0.622884765625,0.04002036899328232,0.048686593770980835,-0.0011287056840956211
1759157628272942800,0.63294287109375,0.04284944385290146,0.05636288970708847,0.003136612707749009
1759157628283000800,0.643000732421875,0.038963522762060165,0.04989531636238098,0.00666932575404644
1759157628293058800,0.653058837890625,0.0441601499915123,0.06943545490503311,0.004206434357911348
1759157628303116800,0.66311669921875,0.04528709873557091,0.05000905320048332,0.014884758740663528
1759157628313174800,0.6731748046875,0.04943124204874039,0.07624411582946777,0.014080749824643135
1759157628323232800,0.683232666015625,0.04677079990506172,0.05294695869088173,0.01782551221549511
1759157628333290800,0.693290771484375,0.05510915815830231,0.0364697128534317,0.020091328769922256
1759157628343348700,0.7033486328125,0.08526411652565002,0.042920660227537155,0.03732432425022125
1759157628353407000,0.713406982421875,0.0833013653755188,0.05439915135502815,0.03346433863043785
1759157628363465000,0.72346484375,0.051122404634952545,0.037150684744119644,0.01848810724914074
1759157628373522700,0.733522705078125,0.02864745631814003,0.012403259985148907,0.015088049694895744
1759157628383580700,0.74358056640625,0.009250374510884285,0.048106271773576736,0.009772109799087048
1759157628393639000,0.753638916015625,0.003077699802815914,0.07478315383195877,0.010336966253817081
1759157628403697000,0.76369677734375,0.00526044936850667,0.08990973234176636,0.012641599401831627
1759157628413754600,0.773754638671875,0.01782630756497383,0.1268690824508667,0.006833777762949467
1759157628423812900,0.783812744140625,0.02468729205429554,0.09775131195783615,0.010600358247756958
1759157628433870800,0.793870849609375,0.02656082808971405,0.099807009100914,0.006943571846932173
1759157628443928800,0.8039287109375,0.032642532140016556,0.09093928337097168,0.003356701461598277
1759157628453986800,0.81398681640625,0.03602474555373192,0.08802764862775803,-0.0038639274425804615
1759157628464044800,0.824044921875,0.038816820830106735,0.08648253977298737,-0.004110697191208601
1759157628474102800,0.834102783203125,0.02831411175429821,0.059877026826143265,0.007434372790157795
1759157628484161000,0.8441611328125,0.027529297396540642,0.0915502980351448,0.0016287202015519142
1759157628494218800,0.85421875,0.029062213376164436,0.0698322206735611,0.006130794063210487
1759157628504276700,0.86427685546875,0.020205073058605194,0.05403647944331169,0.00837477296590805
1759157628514334700,0.874334716796875,0.01596185937523842,0.0686740130186081,-0.0010924981907010078
1759157628524393000,0.88439306640625,0.01355016976594925,0.039430007338523865,0.002829308155924082
1759157628534450700,0.89445068359375,0.012415928766131401,0.04657154157757759,0.0008239480666816235
1759157628544508700,0.9045087890625,0.007335158530622721,0.016842719167470932,0.01028946228325367
1759157628554567000,0.91456689453125,0.009934935718774796,0.03482251614332199,0.011607460677623749
1759157628564625000,0.924625,0.011472557671368122,0.016333263367414474,0.02218928188085556
1759157628574682600,0.9346826171875,0.005949161946773529,0.002680834848433733,0.0286269411444664
1759157628584740900,0.944740966796875,0.00344399968162179,-0.00042104150634258986,0.02643466368317604
1759157628594798800,0.954798828125,0.0036128447391092777,-0.012895021587610245,0.02696489915251732
1759157628604856800,0.96485693359375,0.0034296256490051746,-0.020495109260082245,0.02530079521238804
1759157628614914800,0.974914794921875,0.0025896639563143253,-0.030980771407485008,0.026542892679572105
1759157628624972800,0.984972900390625,0.0028589917346835136,-0.03898521885275841,0.027075400575995445
1759157628635030800,0.99503076171875,0.00026267580687999725,-0.046442337334156036,0.025392815470695496
1759157628645088800,1.0050888671875,0.0011637937277555466,-0.05690252408385277,0.02318667061626911
1759157628655146800,1.015146728515625,-0.00040667224675416946,-0.06724810600280762,0.020964793860912323
1759157628665204700,1.025204833984375,0.0009037796407938004,-0.07863820344209671,0.018110862001776695
1759157628675262700,1.0352626953125,0.0023301690816879272,-0.08367451280355453,0.021539680659770966
1759157628685321700,1.04532177734375,0.003637427929788828,-0.0875483900308609,0.025160105898976326
1759157628695379700,1.055379638671875,0.005991129670292139,-0.08981766551733017,0.02879851683974266
1759157628705439000,1.06543896484375,0.009256431832909584,-0.08845414966344833,0.033310920000076294
1759157628715496700,1.07549658203125,0.009320881217718124,-0.08576010167598724,0.03647049516439438
1759157628725554700,1.0855546875,0.011840863153338432,-0.0813121497631073,0.03802794590592384
1759157628735612700,1.09561279296875,0.012723967432975769,-0.07506091147661209,0.035863593220710754
1759157628745671000,1.1056708984375,0.013972185552120209,-0.0675041601061821,0.03363650292158127
1759157628755728600,1.115728759765625,0.01608167588710785,-0.0648372694849968,0.030837250873446465
1759157628765786600,1.12578662109375,0.015583392232656479,-0.06317329406738281,0.025749124586582184
1759157628775844900,1.135844970703125,0.017018569633364677,-0.07232151925563812,0.02409716509282589
1759157628785902800,1.14590283203125,0.016939779743552208,-0.06841880083084106,0.020609747618436813
1759157628795960600,1.155960693359375,0.020732920616865158,-0.06557215005159378,0.01642671972513199
1759157628806018800,1.166018798828125,0.02473626844584942,-0.06948352605104446,0.014135371893644333
1759157628816076800,1.176076904296875,0.030866865068674088,-0.07744690775871277,0.012222956866025925
1759157628826134800,1.186134765625,0.04348188266158104,-0.0915307104587555,0.010167498141527176
1759157628836192800,1.19619287109375,0.05365888774394989,-0.11804940551519394,0.004107740707695484
1759157628846250800,1.206250732421875,0.06648587435483932,-0.16090615093708038,0.0014593075029551983
1759157628856308700,1.216308837890625,0.08347950130701065,-0.1976497918367386,-0.002723453566431999
1759157628866367000,1.226366943359375,0.10292235016822815,-0.21195708215236664,-0.0029719085432589054
1759157628876424700,1.2364248046875,0.11741181463003159,-0.20695699751377106,-0.002709053922444582
1759157628886482700,1.246482666015625,0.12482079118490219,-0.17418384552001953,0.0020312508568167686
1759157628896540700,1.256540771484375,0.11769258230924606,-0.13497358560562134,0.011016489937901497
1759157628906599000,1.266598876953125,0.10272262990474701,-0.09413140267133713,0.017347902059555054
1759157628916656600,1.27665673828125,0.08250337839126587,-0.061204083263874054,0.02016286365687847
1759157628926716000,1.2867158203125,0.07043488323688507,-0.037374891340732574,0.016900084912776947
1759157628936774000,1.29677392578125,0.06014656648039818,-0.023914476856589317,0.014058226719498634
1759157628946831600,1.30683154296875,0.0440724715590477,-0.0214561577886343,0.008653352037072182
1759157628956889600,1.3168896484375,0.027935581281781197,-0.01717592589557171,-0.0038544503040611744
1759157628966947800,1.32694775390625,0.018275922164320946,-0.005700876470655203,-0.013433979824185371
1759157628977005800,1.337005859375,0.010459810495376587,0.007138223387300968,-0.020623715594410896
1759157628987063600,1.3470634765625,0.002678528893738985,0.023265495896339417,-0.020566124469041824
1759157628997121800,1.357121826171875,0.0023184693418443203,0.04380352422595024,-0.019371962174773216
1759157629007179800,1.3671796875,0.0007531037554144859,0.0654347613453865,-0.01692899875342846
1759157629017237800,1.37723779296875,-0.00384031655266881,0.0827048271894455,-0.014669306576251984
1759157629027295700,1.387295654296875,-0.005979286506772041,0.09573514014482498,-0.013847684487700462
1759157629037353700,1.397353759765625,-0.007678116671741009,0.10974789410829544,-0.01624665968120098
1759157629047411700,1.40741162109375,-0.009482535533607006,0.1101558655500412,-0.018724169582128525
1759157629057470000,1.417469970703125,-0.018889620900154114,0.10932549834251404,-0.020252825692296028
1759157629067528700,1.42752880859375,-0.025157101452350616,0.11319240182638168,-0.020485052838921547
1759157629077586700,1.437586669921875,-0.03131672739982605,0.10696113854646683,-0.017842929810285568
1759157629087645000,1.44764501953125,-0.04697531461715698,0.0904628336429596,-0.01449090987443924
1759157629097702700,1.45770263671875,-0.04974446818232536,0.10876114666461945,-0.019758377224206924
1759157629107760600,1.4677607421875,-0.054077260196208954,0.0887988954782486,-0.006883838679641485
1759157629117819000,1.47781884765625,-0.06370379030704498,0.06696975976228714,-0.0034678024239838123
1759157629127876900,1.487876953125,-0.061334673315286636,0.080637626349926,-0.010038290172815323
1759157629137934600,1.4979345703125,-0.0562584213912487,0.05605638027191162,-0.0060328952968120575
1759157629147992800,1.507992919921875,-0.05862550064921379,0.046534523367881775,-0.001282926183193922
1759157629158050800,1.51805078125,-0.059860941022634506,0.04974842816591263,-0.004855024162679911
1759157629168108800,1.52810888671875,-0.0630970150232315,0.03799242898821831,-0.0003045732155442238
1759157629178166500,1.53816650390625,-0.06768830120563507,0.01954924315214157,0.005798859056085348
1759157629188225800,1.548225830078125,-0.07310368120670319,0.016864504665136337,0.0016510128043591976
1759157629198283800,1.55828369140625,-0.07929899543523788,0.025675039738416672,-0.0038460176438093185
1759157629208341800,1.568341796875,-0.09007840603590012,0.019971350207924843,-0.0018776683136820793
1759157629218399700,1.578399658203125,-0.0946103110909462,0.0365641750395298,0.0019956333562731743
1759157629228457700,1.588457763671875,-0.10007639229297638,0.028758713975548744,0.00728263333439827
1759157629238516000,1.598515869140625,-0.11313440650701523,0.014700952917337418,0.005862369202077389
1759157629248573700,1.60857373046875,-0.12536580860614777,0.0032288571819663048,0.001240571029484272
1759157629258631700,1.618631591796875,-0.1390930861234665,0.004791866056621075,-0.0006012711673974991
1759157629268689700,1.628689697265625,-0.15334083139896393,0.050210755318403244,-0.006201551295816898
1759157629278748000,1.638747802734375,-0.17414039373397827,0.020421432331204414,0.008912686258554459
1759157629288805600,1.6488056640625,-0.1919500082731247,0.02018440142273903,0.015605995431542397
1759157629298865000,1.658864990234375,-0.19510744512081146,0.02361694909632206,0.018544793128967285
1759157629308923000,1.6689228515625,-0.19320960342884064,0.012665241956710815,0.023135602474212646
1759157629318980600,1.678980712890625,-0.17994599044322968,0.00766728725284338,0.018063077703118324
1759157629329038800,1.689038818359375,-0.15953241288661957,-0.003944369498640299,0.013393448665738106
1759157629339096800,1.699096923828125,-0.13839863240718842,-0.010916790924966335,0.004380778409540653
1759157629349154800,1.70915478515625,-0.11477946490049362,-0.005183237139135599,-0.003312889486551285
1759157629359212500,1.719212646484375,-0.095782071352005,0.03134867548942566,-0.0091774370521307
1759157629369270800,1.729270751953125,-0.10305473953485489,0.016483420506119728,0.0014400677755475044
1759157629379328800,1.739328857421875,-0.11433269083499908,0.059198394417762756,-0.0034332512877881527
1759157629389387800,1.7493876953125,-0.1170639768242836,0.08684173226356506,-0.007630832958966494
1759157629399445800,1.75944580078125,-0.1303347647190094,0.10645858198404312,-0.004493096377700567
1759157629409503700,1.769503662109375,-0.14176496863365173,0.13598185777664185,-0.005958857014775276
1759157629419562000,1.77956201171875,-0.1387915462255478,0.1707315891981125,-0.005939416587352753
1759157629429619700,1.78961962890625,-0.12972277402877808,0.19080327451229095,-0.003940490540117025
1759157629439677700,1.799677734375,-0.1300026774406433,0.19284085929393768,-0.010692935436964035
1759157629449735700,1.809735595703125,-0.11494429409503937,0.22134636342525482,-0.03334076330065727
1759157629459794000,1.8197939453125,-0.10014697164297104,0.19632090628147125,-0.03940558061003685
1759157629469852700,1.829852783203125,-0.10088077187538147,0.18491216003894806,-0.04163069278001785
1759157629479911000,1.839910888671875,-0.09377758204936981,0.17862869799137115,-0.042787306010723114
1759157629489969000,1.849968994140625,-0.10040280967950821,0.16257303953170776,-0.04520709067583084
1759157629500026600,1.860026611328125,-0.11014918237924576,0.151872456073761,-0.049502503126859665
1759157629510084600,1.870084716796875,-0.11441246420145035,0.14463770389556885,-0.04739219695329666
1759157629520142800,1.880142822265625,-0.12554767727851868,0.15197472274303436,-0.04473515599966049
1759157629530200800,1.890200927734375,-0.13918185234069824,0.1335030496120453,-0.03276598080992699
1759157629540258600,1.900258544921875,-0.14238083362579346,0.13208678364753723,-0.04161779582500458
1759157629550317800,1.91031787109375,-0.14397753775119781,0.10097784548997879,-0.049982115626335144
1759157629560375800,1.920375732421875,-0.15396279096603394,0.10690231621265411,-0.07517614960670471
1759157629570433800,1.930433837890625,-0.15744014084339142,0.10691434144973755,-0.09534351527690887
1759157629580491800,1.94049169921875,-0.1603054255247116,0.06808944791555405,-0.09414136409759521
1759157629590549800,1.9505498046875,-0.15139472484588623,0.0756155252456665,-0.11229602992534637
1759157629600607700,1.960607666015625,-0.15065941214561462,0.0051336390897631645,-0.12595005333423615
1759157629610665700,1.970665771484375,-0.16726845502853394,-0.018913064152002335,-0.15118537843227386
1759157629620724700,1.980724853515625,-0.17485100030899048,-0.020766358822584152,-0.16573555767536163
1759157629630782700,1.99078271484375,-0.17853882908821106,-0.04578617960214615,-0.16419674456119537
1759157629640840700,2.0008408203125,-0.16365362703800201,-0.034697044640779495,-0.1715606451034546
1759157629650898700,2.010898681640625,-0.13842959702014923,-0.062141187489032745,-0.17242561280727386
1759157629660957000,2.02095703125,-0.13662584125995636,-0.18935774266719818,-0.12816041707992554
1759157629671015000,2.031014892578125,-0.12731178104877472,-0.2628191411495209,-0.08134394884109497
1759157629681072000,2.041072021484375,-0.1365915685892105,-0.3186778724193573,-0.023402884602546692
1759157629691131400,2.05113134765625,-0.12856805324554443,-0.2211579829454422,0.014457639306783676
1759157629701189400,2.061189453125,-0.1715725213289261,0.012300302274525166,0.03921598196029663
1759157629711247000,2.0712470703125,-0.23699206113815308,0.2341139018535614,0.06067850813269615
1759157629721305000,2.08130517578125,-0.33434736728668213,0.4172174036502838,0.07672964781522751
1759157629731363300,2.09136328125,-0.4337173402309418,0.6039185523986816,0.04869982227683067
1759157629741421300,2.10142138671875,-0.5172498226165771,0.8886235356330872,-0.033302102237939835
1759157629751479000,2.11147900390625,-0.5570794939994812,1.0393140316009521,-0.08915051072835922
1759157629761538300,2.121538330078125,-0.5595940351486206,1.2446630001068115,-0.15294067561626434
1759157629771596300,2.13159619140625,-0.574877917766571,1.4387067556381226,-0.17876453697681427
1759157629781654300,2.141654296875,-0.5930020809173584,1.6028072834014893,-0.18261493742465973
1759157629791712300,2.151712158203125,-0.5805620551109314,1.7096340656280518,-0.16247816383838654
1759157629801770200,2.161770263671875,-0.5694750547409058,1.8274896144866943,-0.12796039879322052
1759157629811828200,2.171828125,-0.5704373717308044,1.907963514328003,-0.09136751294136047
1759157629821887200,2.18188720703125,-0.5514796376228333,1.8675413131713867,-0.07309769839048386
1759157629831945200,2.1919453125,-0.5679793953895569,1.7703770399093628,-0.11839229613542557
1759157629842003500,2.20200341796875,-0.7197449803352356,1.7359788417816162,-0.2167724072933197
1759157629852061200,2.212061279296875,-0.8810615539550781,1.5845047235488892,-0.2573821544647217
1759157629862119200,2.222119140625,-0.9613073468208313,1.2811133861541748,-0.21021412312984467
1759157629872177400,2.232177490234375,-1.026784062385559,0.9464332461357117,-0.15225067734718323
1759157629882236200,2.242236083984375,-1.079924464225769,0.619001567363739,-0.10148631036281586
1759157629892294100,2.252294189453125,-1.0809236764907837,0.2932950556278229,-0.05736846104264259
1759157629902352400,2.262352294921875,-1.0579662322998047,0.015282862819731236,-0.000659638550132513
1759157629912410400,2.272410400390625,-1.0397011041641235,-0.17253704369068146,0.06435006856918335
1759157629922468000,2.282468017578125,-1.0293846130371094,-0.2469915747642517,0.14089757204055786
1759157629932526300,2.2925263671875,-1.035083532333374,-0.24264787137508392,0.1807383894920349
1759157629942585300,2.30258544921875,-1.0529714822769165,-0.14474794268608093,0.18173015117645264
1759157629952643000,2.31264306640625,-1.0604445934295654,-0.03166666999459267,0.15403170883655548
1759157629962701300,2.322701416015625,-1.034787893295288,0.02734525315463543,0.1365637630224228
1759157629972759300,2.33275927734375,-1.0091928243637085,0.06296532601118088,0.12495575845241547
1759157629982817300,2.3428173828125,-1.0044851303100586,0.1006956622004509,0.11499366909265518
1759157629992875300,2.352875244140625,-1.029197335243225,0.13227862119674683,0.10960451513528824
1759157630002934300,2.362934326171875,-1.0436862707138062,0.15223528444766998,0.11242053657770157
1759157630012992300,2.3729921875,-1.0471144914627075,0.1505868285894394,0.11319776624441147
1759157630023050200,2.38305029296875,-1.043845534324646,0.11101704835891724,0.11036256700754166
1759157630033108200,2.393108154296875,-1.0387041568756104,0.06462284922599792,0.0967593714594841
1759157630043166200,2.403166259765625,-1.0353914499282837,0.0033299317583441734,0.06552528589963913
1759157630053224400,2.413224365234375,-1.0306211709976196,-0.049709584563970566,0.025057749822735786
1759157630063283200,2.423283203125,-1.008556842803955,-0.08110053092241287,-0.014590326696634293
1759157630073341200,2.433341064453125,-0.9798046946525574,-0.08470345288515091,-0.05256723240017891
1759157630083399200,2.443399169921875,-0.9497983455657959,-0.11723875999450684,-0.06561832129955292
1759157630093457200,2.45345703125,-0.9349980354309082,-0.116602323949337,-0.07363717257976532
1759157630103515100,2.46351513671875,-0.9167287349700928,-0.09022477269172668,-0.08102665096521378
1759157630113574100,2.47357421875,-0.8899204134941101,-0.01836860366165638,-0.08491035550832748
1759157630123632000,2.483632080078125,-0.9063848853111267,0.09333927929401398,-0.08770960569381714
1759157630133690400,2.4936904296875,-0.9192290902137756,0.14383922517299652,-0.07698242366313934
1759157630143748400,2.503748291015625,-0.9323818683624268,0.20199626684188843,-0.06826776266098022
1759157630153806300,2.513806396484375,-0.949580192565918,0.29502683877944946,-0.06743411719799042
1759157630163865300,2.523865234375,-0.9754229784011841,0.4297247529029846,-0.08575427532196045
1759157630173923300,2.53392333984375,-1.054861068725586,0.5496406555175781,-0.1080021783709526
1759157630183981000,2.54398095703125,-1.1026803255081177,0.5242087841033936,-0.11282410472631454
1759157630194039300,2.554039306640625,-1.0900495052337646,0.46035218238830566,-0.1149899959564209
1759157630204097300,2.56409716796875,-1.0659295320510864,0.4287567138671875,-0.11320807784795761
1759157630214156000,2.574156005859375,-1.0665348768234253,0.41795188188552856,-0.10886139422655106
1759157630224214300,2.58421435546875,-1.0771536827087402,0.4179697334766388,-0.09767451882362366
1759157630234272300,2.594272216796875,-1.182876706123352,0.4912518262863159,-0.08815695345401764
1759157630244330200,2.604330322265625,-1.2710927724838257,0.3807375729084015,-0.03538428992033005
1759157630254388200,2.61438818359375,-1.3508425951004028,0.25729188323020935,0.004256047308444977
1759157630264447200,2.624447265625,-1.3790925741195679,0.16809892654418945,0.033312998712062836
1759157630274505200,2.634505126953125,-1.4289907217025757,0.09733212739229202,0.04389813169836998
1759157630284563200,2.644563232421875,-1.4662981033325195,0.05590026080608368,0.0694383829832077
1759157630294621200,2.65462109375,-1.5008695125579834,0.07837679982185364,0.08095310628414154
1759157630304679200,2.66467919921875,-1.5471901893615723,0.04979975149035454,0.09325425326824188
1759157630314738200,2.67473828125,-1.541153073310852,-0.08439622074365616,0.1254536658525467
1759157630324796200,2.684796142578125,-1.5525699853897095,-0.18819530308246613,0.14391496777534485
1759157630334854400,2.6948544921875,-1.5469849109649658,-0.2760460674762726,0.14565125107765198
1759157630344912400,2.704912353515625,-1.5329079627990723,-0.40027931332588196,0.158782497048378
1759157630354970000,2.71497021484375,-1.4800812005996704,-0.569516122341156,0.16117951273918152
1759157630365029400,2.725029296875,-1.3972113132476807,-0.7261906862258911,0.11050995439291
1759157630375087400,2.73508740234375,-1.1912881135940552,-0.8961374163627625,0.04524464160203934
1759157630385145000,2.74514501953125,-0.9543048739433289,-1.062271237373352,0.00015519699081778526
1759157630395203300,2.755203369140625,-0.6728370189666748,-1.146242618560791,-0.04483059421181679
1759157630405261300,2.76526123046875,-0.3626900315284729,-1.1991153955459595,-0.07996807992458344
1759157630415320000,2.775320068359375,-0.13034187257289886,-1.209829330444336,-0.10472346842288971
1759157630425378300,2.78537841796875,-0.031664829701185226,-1.1778252124786377,-0.11150334775447845
1759157630435436300,2.795436279296875,-0.006582569796591997,-1.1566442251205444,-0.10704957693815231
1759157630445494300,2.805494384765625,-0.0038666781038045883,-1.1922671794891357,-0.11464091390371323
1759157630455553300,2.81555322265625,-0.02465229481458664,-1.1887834072113037,-0.12511394917964935
1759157630465611300,2.825611328125,-0.03258531913161278,-1.0934581756591797,-0.1461164355278015
1759157630475669200,2.835669189453125,-0.010482010431587696,-0.9432739019393921,-0.1890927255153656
1759157630485727200,2.845727294921875,0.04591335356235504,-0.7609794735908508,-0.24572937190532684
1759157630495785200,2.85578515625,0.11771275848150253,-0.5963149070739746,-0.31000563502311707
1759157630505844500,2.865844482421875,0.208564892411232,-0.46962305903434753,-0.36310455203056335
1759157630515902200,2.875902099609375,0.3036850392818451,-0.370190292596817,-0.3917810618877411
1759157630525960200,2.885960205078125,0.3943624794483185,-0.288410484790802,-0.4012424647808075
1759157630536018200,2.89601806640625,0.4722069203853607,-0.19005762040615082,-0.3861035704612732
1759157630546077200,2.9060771484375,0.5263026356697083,-0.06596310436725616,-0.3435973823070526
1759157630556135200,2.91613525390625,0.5600969791412354,0.059625789523124695,-0.267936646938324
1759157630566193400,2.926193359375,0.5700209736824036,0.15661732852458954,-0.1672544926404953
1759157630576251400,2.93625146484375,0.5502039194107056,0.18596799671649933,-0.045511774718761444
1759157630586309000,2.94630908203125,0.5081163644790649,0.15018948912620544,0.06807497143745422
1759157630596368400,2.956368408203125,0.4561941921710968,0.08231795579195023,0.15170052647590637
1759157630606426000,2.966426025390625,0.4110991358757019,0.010419001802802086,0.21415245532989502
1759157630616484000,2.976484130859375,0.3757719397544861,-0.06782383471727371,0.26116836071014404
1759157630626542300,2.986542236328125,0.3167477548122406,-0.14502568542957306,0.2815644443035126
1759157630636601000,2.99660107421875,0.2609693109989166,-0.15475161373615265,0.2781897783279419
1759157630646659000,3.0066591796875,0.1987413614988327,-0.07659263163805008,0.2623876631259918
1759157630656717300,3.01671728515625,0.12342052906751633,0.06188024580478668,0.2110081911087036
1759157630666775300,3.026775390625,0.10862959176301956,0.17823028564453125,0.11600977182388306
1759157630676834300,3.036834228515625,0.0915127620100975,0.2908481955528259,0.014141716063022614
1759157630686892500,3.046892578125,0.04847794026136398,0.3709736764431,-0.0827329009771347
1759157630696950800,3.05695068359375,-0.00315595674328506,0.3798238933086395,-0.1674768179655075
1759157630707008500,3.067008544921875,-0.0505964457988739,0.316354364156723,-0.224321186542511
1759157630717066500,3.07706640625,-0.10293636471033096,0.21915194392204285,-0.24245262145996094
1759157630727125800,3.087125732421875,-0.15463390946388245,0.10950320959091187,-0.23367032408714294
1759157630737183500,3.09718359375,-0.2004166543483734,0.014622674323618412,-0.20931975543498993
1759157630747241700,3.10724169921875,-0.22906853258609772,-0.03634197264909744,-0.19141079485416412
1759157630757299700,3.1172998046875,-0.2245909571647644,-0.0704842284321785,-0.17478281259536743
1759157630767358500,3.1273583984375,-0.20109201967716217,-0.09529317170381546,-0.14257614314556122
1759157630777416700,3.137416748046875,-0.16119438409805298,-0.15395109355449677,-0.1050395742058754
1759157630787474700,3.147474609375,-0.12686890363693237,-0.2281518280506134,-0.05404430255293846
1759157630797532700,3.15753271484375,-0.09266424179077148,-0.3134922385215759,-0.007473185192793608
1759157630807591700,3.167591796875,-0.07316271215677261,-0.38055142760276794,0.03009895794093609
1759157630817649700,3.177649658203125,-0.023968517780303955,-0.43626853823661804,0.057868365198373795
1759157630827707600,3.187707763671875,0.021701497957110405,-0.41885146498680115,0.07989004254341125
1759157630837765600,3.197765625,0.09381496906280518,-0.40279021859169006,0.07935822755098343
1759157630847824600,3.20782470703125,0.16251307725906372,-0.35596969723701477,0.07763303071260452
1759157630857882600,3.217882568359375,0.18547983467578888,-0.24785612523555756,0.06720403581857681
1759157630867940600,3.227940673828125,0.1852894127368927,-0.09549693763256073,0.04939068481326103
1759157630877998600,3.23799853515625,0.21414625644683838,0.07862132042646408,0.02318067103624344
1759157630888057600,3.2480576171875,0.28161853551864624,0.2224426567554474,-0.01647059991955757
1759157630898115600,3.258115478515625,0.33606821298599243,0.3405006527900696,-0.05904718115925789
1759157630908173600,3.268173583984375,0.3344165086746216,0.5005611777305603,-0.08188751339912415
1759157630918231800,3.278231689453125,0.3089168667793274,0.6410291194915771,-0.09134715050458908
1759157630928290600,3.28829052734375,0.3006570637226105,0.6685606241226196,-0.10121415555477142
1759157630938348500,3.2983486328125,0.2507146894931793,0.6305210590362549,-0.06685759127140045
1759157630948406800,3.30840673828125,0.18785449862480164,0.5040073394775391,-0.001174185425043106
1759157630958464500,3.318464599609375,0.1362062692642212,0.3300960958003998,0.08528013527393341
1759157630968523500,3.3285234375,0.09403031319379807,0.15738824009895325,0.17358815670013428
1759157630978581800,3.338581787109375,0.04906822741031647,0.051006022840738297,0.23204556107521057
1759157630988639500,3.348639404296875,0.0071434141136705875,0.028858913108706474,0.25739434361457825
1759157630998697500,3.358697509765625,-0.02103174477815628,0.048923298716545105,0.2520001232624054
1759157631008756700,3.3687568359375,-0.017306514084339142,0.05959112569689751,0.23038695752620697
1759157631018814500,3.378814453125,0.005852061789482832,0.040900345891714096,0.20446383953094482
1759157631028872700,3.388872802734375,0.0245748832821846,0.0018927593482658267,0.1810850203037262
1759157631038930700,3.3989306640625,0.030937543138861656,-0.041939664632081985,0.14784793555736542
1759157631048989400,3.408989501953125,0.023431958630681038,-0.06055409461259842,0.10369779169559479
1759157631059047700,3.419047607421875,0.006594640668481588,-0.04991072416305542,0.052946098148822784
1759157631069105700,3.429105712890625,0.021200479939579964,-0.016118407249450684,0.006386852823197842
1759157631079163600,3.43916357421875,0.055711377412080765,0.0009087607613764703,-0.03411925584077835
1759157631089222700,3.44922265625,0.07443313300609589,-0.017863327637314796,-0.061446480453014374
1759157631099280600,3.45928076171875,0.07481741160154343,-0.0646454319357872,-0.0750018060207367
1759157631109338600,3.469338623046875,0.06467476487159729,-0.11629371345043182,-0.07054660469293594
1759157631119396600,3.479396728515625,0.04695028066635132,-0.16247732937335968,-0.057348206639289856
1759157631129455600,3.48945556640625,0.02205292135477066,-0.19895118474960327,-0.04322439804673195
1759157631139513900,3.499513916015625,0.00289961788803339,-0.21637967228889465,-0.023714955896139145
1759157631149571600,3.509571533203125,-0.00484725134447217,-0.19989895820617676,-0.007306954357773066
1759157631159630600,3.519630615234375,-0.006390991620719433,-0.14492057263851166,0.005686669144779444
1759157631169688600,3.5296884765625,-0.002374944742769003,-0.06995232403278351,0.013907315209507942
1759157631179746600,3.53974658203125,0.009589431807398796,-0.0022935066372156143,0.02236071787774563
1759157631189804500,3.549804443359375,0.024486089125275612,0.03491191938519478,0.01966133713722229
1759157631199863600,3.559863525390625,0.03293852508068085,0.033711161464452744,0.017523769289255142
1759157631209921500,3.569921630859375,0.03546906262636185,0.014525484293699265,0.020426616072654724
1759157631219979500,3.5799794921875,0.026812998577952385,-0.01927913725376129,0.01961577869951725
1759157631230037800,3.590037841796875,0.016053561121225357,-0.0627262145280838,0.020437363535165787
1759157631240096500,3.600096435546875,0.007658430375158787,-0.11679237335920334,0.014306285418570042
1759157631250154800,3.61015478515625,0.009615054354071617,-0.12716378271579742,0.00830884650349617
1759157631260212700,3.620212646484375,0.012064020149409771,-0.08847489207983017,0.009104108437895775
1759157631270270500,3.6302705078125,0.011897572316229343,-0.0509946271777153,0.014298338443040848
1759157631280329700,3.640329833984375,0.016835805028676987,-0.05181080847978592,0.018509194254875183
1759157631290387700,3.6503876953125,0.026160065084695816,-0.07159436494112015,0.025074154138565063
1759157631300445400,3.660445556640625,0.02879682369530201,-0.09203874319791794,0.03212102875113487
1759157631310504700,3.670504638671875,0.02639864571392536,-0.11303643882274628,0.03763031214475632
1759157631320562700,3.680562744140625,0.03606822341680527,-0.1006687805056572,0.04413093626499176
1759157631330620400,3.690620361328125,0.03798569738864899,-0.08643711358308792,0.043127190321683884
1759157631340678700,3.7006787109375,0.03649185597896576,-0.07068757712841034,0.031310781836509705
1759157631350737700,3.710737548828125,0.02078453078866005,-0.05506681278347969,0.02509309910237789
1759157631360795600,3.720795654296875,0.0015378394164144993,-0.007114872802048922,0.03540164604783058
1759157631370853600,3.730853515625,-0.015391343273222446,0.06302347034215927,0.04815392941236496
1759157631380911600,3.74091162109375,-0.015562623739242554,0.1327180713415146,0.06920183449983597
1759157631390970600,3.750970703125,-0.005874576047062874,0.1542566567659378,0.08012080192565918
1759157631401028600,3.761028564453125,0.0066568804904818535,0.15071329474449158,0.08945256471633911
1759157631411086600,3.771086669921875,0.01670711673796177,0.09804768860340118,0.09442495554685593
1759157631421145600,3.7811455078125,0.016815459355711937,0.0360838808119297,0.08965396136045456
1759157631431203600,3.79120361328125,0.026436928659677505,0.009644551202654839,0.08275770395994186
1759157631441261600,3.801261474609375,0.05403044447302818,0.04480303078889847,0.07595161348581314
1759157631451319800,3.81131982421875,0.034592561423778534,0.09764387458562851,0.0838814377784729
1759157631461378600,3.821378662109375,-0.012397036887705326,0.13803832232952118,0.09779771417379379
1759157631471436800,3.831436767578125,-0.036798253655433655,0.11732132732868195,0.10567747801542282
1759157631481494800,3.841494873046875,0.0036297887563705444,0.06322968006134033,0.09964706003665924
1759157631491553500,3.851553466796875,0.014086424373090267,0.07853007316589355,0.10346496850252151
1759157631501611800,3.86161181640625,0.02018696628510952,0.10998795181512833,0.10328052192926407
1759157631511669800,3.871669677734375,0.042842473834753036,0.23463746905326843,0.0530967116355896
1759157631521727500,3.8817275390625,0.06067803502082825,0.27303361892700195,0.02110946550965309
1759157631531786800,3.891786865234375,0.03440754860639572,0.27109482884407043,0.0431753545999527
1759157631541844500,3.901844482421875,0.017045646905899048,0.2346423715353012,0.07612595707178116
1759157631551902500,3.91190234375,0.015548416413366795,0.17417795956134796,0.10376451164484024
1759157631561960700,3.921960693359375,0.004902997519820929,0.17180310189723969,0.10734567791223526
1759157631572019500,3.93201953125,0.019774354994297028,0.1638256013393402,0.10018789768218994
1759157631582077400,3.942077392578125,0.0386807806789875,0.1426566243171692,0.08949431777000427
1759157631592135700,3.9521357421875,0.04433600232005119,0.14461804926395416,0.07737267017364502
1759157631602194400,3.9621943359375,0.043662168085575104,0.1890781968832016,0.061868779361248016
1759157631612252700,3.972252685546875,0.024732686579227448,0.24067960679531097,0.06651733070611954
1759157631622310700,3.982310546875,0.006546076852828264,0.251181423664093,0.09300769865512848
1759157631632368600,3.99236865234375,0.00008524768054485321,0.2521444261074066,0.11041757464408875
1759157631642427600,4.002427734375,-0.010482832789421082,0.2518255412578583,0.11266927421092987
1759157631652485600,4.012485595703125,-0.031438183039426804,0.2423606514930725,0.10290026664733887
1759157631662543600,4.022543701171875,-0.05943908169865608,0.22497282922267914,0.0987737849354744
1759157631672602600,4.0326025390625,-0.08363070338964462,0.20874886214733124,0.09322508424520493
1759157631682660000,4.04266015625,-0.09737540036439896,0.17886924743652344,0.08860576152801514
1759157631692718000,4.052718017578125,-0.09868913888931274,0.13668638467788696,0.070868581533432
1759157631702776300,4.0627763671875,-0.10139382630586624,0.08604428917169571,0.04858270660042763
1759157631712835000,4.0728349609375,-0.11385875195264816,0.0351526141166687,0.0297648087143898
1759157631722893300,4.082893310546875,-0.11635110527276993,0.004891985561698675,0.01828700304031372
1759157631732951000,4.092950927734375,-0.11228632181882858,0.0007728743366897106,0.011172367259860039
1759157631743010000,4.103010009765625,-0.09016534686088562,-0.022013816982507706,-0.00020973291248083115
1759157631753068300,4.113068359375,-0.06505253911018372,-0.060574792325496674,-0.014514369890093803
1759157631763126000,4.1231259765625,-0.04631613567471504,-0.11008002609014511,-0.024046089500188828
1759157631773185000,4.13318505859375,-0.0387711338698864,-0.16478534042835236,-0.03519488126039505
1759157631783243300,4.1432431640625,-0.03444575145840645,-0.20136529207229614,-0.04959806054830551
1759157631793301000,4.153301025390625,-0.018220441415905952,-0.21620336174964905,-0.06972064077854156
1759157631803359000,4.16335888671875,0.0010091704316437244,-0.18210333585739136,-0.08935578912496567
1759157631813418200,4.173418212890625,0.016399845480918884,-0.13426390290260315,-0.10304976254701614
1759157631823476000,4.18347607421875,0.036871250718832016,-0.1052885428071022,-0.11394992470741272
1759157631833534000,4.193533935546875,0.052982576191425323,-0.09219484776258469,-0.11319118738174438
1759157631843593200,4.20359326171875,0.06412050873041153,-0.08861303329467773,-0.09120149910449982
1759157631853651000,4.21365087890625,0.07035204023122787,-0.08405263721942902,-0.06636513024568558
1759157631863709200,4.223709228515625,0.06890475749969482,-0.07753672450780869,-0.05212237685918808
1759157631873767200,4.23376708984375,0.056527718901634216,-0.08578719943761826,-0.05809424817562103
1759157631883826000,4.243825927734375,0.03112713061273098,-0.0826425850391388,-0.06508363783359528
1759157631893884200,4.25388427734375,0.010142220184206963,-0.06354212015867233,-0.07039904594421387
1759157631903942100,4.263942138671875,-0.008608573116362095,-0.05780528858304024,-0.07315454632043839
1759157631914001200,4.274001220703125,-0.03158073499798775,-0.07099033147096634,-0.07655646651983261
1759157631924059100,4.28405908203125,-0.055646251887083054,-0.09646008908748627,-0.0809466615319252
1759157631934117000,4.2941171875,-0.06982146203517914,-0.11152559518814087,-0.07785419374704361
1759157631944176000,4.304176025390625,-0.07681377232074738,-0.11048836261034012,-0.0701499804854393
1759157631954234000,4.314234130859375,-0.08119813352823257,-0.11316830664873123,-0.05543920770287514
1759157631964292000,4.3242919921875,-0.07196947932243347,-0.10724010318517685,-0.04545554891228676
1759157631974350300,4.334350341796875,-0.06741946935653687,-0.07626674324274063,-0.029624123126268387
1759157631984409000,4.3444091796875,-0.06161230057477951,-0.05536708980798721,-0.01719844713807106
1759157631994467000,4.354467041015625,-0.04276963695883751,-0.03693322092294693,-0.0049031637609004974
1759157632004525300,4.364525390625,-0.025975683704018593,-0.02770359255373478,0.0055413562804460526
1759157632014584000,4.374583984375,-0.01302499882876873,-0.033628057688474655,0.005888366140425205
1759157632024642300,4.384642333984375,-0.009144328534603119,-0.037393223494291306,0.015507576987147331
1759157632034700000,4.394699951171875,-0.002160720992833376,-0.04752335697412491,0.026561293751001358
1759157632044759000,4.404759033203125,0.0035185315646231174,-0.04152946174144745,0.025751294568181038
1759157632054817300,4.4148173828125,0.007121522445231676,-0.005114994943141937,0.01481289230287075
1759157632064875000,4.424875,0.004848701413720846,0.014297908172011375,0.00106113962829113
1759157632074933000,4.43493310546875,-0.025457805022597313,0.013765276409685612,-0.005959751550108194
1759157632084992300,4.4449921875,-0.01742640510201454,0.00936361588537693,0.014579325914382935
1759157632095050000,4.455050048828125,-0.011292878538370132,0.01633896678686142,0.03211943805217743
1759157632105108000,4.46510791015625,-0.00666461419314146,0.01555477362126112,0.03472106531262398
1759157632115167200,4.475167236328125,0.001991990953683853,0.03419796749949455,0.03002883866429329
1759157632125225000,4.485224853515625,-0.0013532647863030434,0.03408646583557129,0.014221779070794582
1759157632135283200,4.495283203125,-0.009393347427248955,0.014699984341859818,0.001531550195068121
1759157632145342200,4.50534228515625,-0.027941789478063583,-0.018213139846920967,-0.003528590314090252
1759157632155400000,4.51539990234375,-0.047210030257701874,-0.07890524715185165,-0.028678417205810547
1759157632165458200,4.525458251953125,-0.07766029238700867,-0.1146472916007042,-0.051614321768283844
1759157632175516200,4.53551611328125,-0.06427417695522308,-0.07048115879297256,-0.057880472391843796
1759157632185575000,4.545574951171875,-0.07518770545721054,-0.021939054131507874,-0.05959150195121765
1759157632195633200,4.555633056640625,-0.06338883936405182,-0.015794076025485992,-0.06387865543365479
1759157632205691100,4.565691162109375,-0.0540466234087944,-0.042392101138830185,-0.06232886388897896
1759157632215750100,4.575750244140625,-0.06570514291524887,-0.08427083492279053,-0.06437763571739197
1759157632225808100,4.58580810546875,-0.08983226865530014,-0.11431359499692917,-0.042654648423194885
1759157632235866000,4.5958662109375,-0.03296152874827385,-0.14688725769519806,-0.03175220265984535
1759157632245925000,4.605925048828125,-0.013545431196689606,-0.1110784187912941,-0.013195255771279335
1759157632255983000,4.615983154296875,-0.008448141627013683,-0.05591955408453941,-0.004619876388460398
1759157632266041000,4.626041015625,-0.013039221987128258,-0.015933968126773834,-0.014783167280256748
1759157632276100000,4.63610009765625,-0.035294994711875916,-0.025858504697680473,-0.04137270152568817
1759157632286158000,4.646157958984375,-0.0716484785079956,-0.08717606216669083,-0.08072855323553085
1759157632296216000,4.656216064453125,-0.09053295105695724,-0.13563068211078644,-0.09884630143642426
1759157632306274000,4.666274169921875,-0.06140664964914322,-0.08626431226730347,-0.0775536298751831
1759157632316333000,4.6763330078125,-0.023549549281597137,-0.003654652740806341,-0.04186993092298508
1759157632326391300,4.686391357421875,0.0011398154310882092,0.038565099239349365,-0.021212782710790634
1759157632336449000,4.696448974609375,0.008920772932469845,0.02987414039671421,-0.018692366778850555
1759157632346508000,4.706508056640625,0.005493766628205776,-0.0002820006338879466,-0.013474280945956707
1759157632356566300,4.716566162109375,-0.00586940860375762,-0.030357612296938896,-0.013648717664182186
1759157632366624000,4.7266240234375,-0.027385462075471878,-0.047959860414266586,-0.007639033254235983
1759157632376683300,4.736683349609375,-0.038442641496658325,-0.06135742738842964,-0.008940253406763077
1759157632386741200,4.7467412109375,-0.036622583866119385,-0.06543108820915222,-0.011611001566052437
1759157632396799000,4.756799072265625,-0.02570575289428234,-0.04886782169342041,-0.008611485362052917
1759157632406858200,4.766858154296875,-0.008624075911939144,-0.03162180259823799,-0.0027079395949840546
1759157632416916200,4.776916259765625,0.010072646662592888,-0.009355111047625542,0.008427269756793976
1759157632426974000,4.786973876953125,0.019540082663297653,0.004446051549166441,0.01873684488236904
1759157632437032200,4.7970322265625,0.01971052587032318,0.003878531977534294,0.020700925961136818
1759157632447091200,4.80709130859375,0.02055756002664566,0.010235130786895752,0.02468808740377426
1759157632457149000,4.81714892578125,0.012361148372292519,0.01648370549082756,0.027731548994779587
1759157632467207200,4.827207275390625,0.00818595476448536,0.0236353799700737,0.034408457577228546
1759157632477266200,4.83726611328125,0.009472793899476528,0.04413878917694092,0.0474289208650589
1759157632487324200,4.84732421875,0.010663073509931564,0.06232933700084686,0.057996880263090134
1759157632497382100,4.857382080078125,0.024876631796360016,0.07810962945222855,0.062399882823228836
1759157632507441200,4.867441162109375,0.03107161447405815,0.0800587460398674,0.050255805253982544
1759157632517499100,4.8774990234375,0.028501663357019424,0.06819729506969452,0.03892538696527481
1759157632527557000,4.88755712890625,0.019177302718162537,0.0512557215988636,0.0313827283680439
1759157632537616100,4.8976162109375,0.0033890195190906525,0.03763099014759064,0.026059605181217194
1759157632547674000,4.907674072265625,-0.005174955818802118,0.026541754603385925,0.01360335387289524
1759157632557732000,4.917732177734375,-0.01666836068034172,0.000016403268091380596,-0.008998626843094826
1759157632567791000,4.927791015625,-0.024801665917038918,-0.02820233814418316,-0.03218575194478035
1759157632577849000,4.93784912109375,-0.033385567367076874,-0.05909687280654907,-0.06172633543610573
1759157632587907000,4.947906982421875,-0.04057178646326065,-0.05890142172574997,-0.07052963972091675
1759157632597966000,4.957966064453125,-0.04466639831662178,-0.043295033276081085,-0.05658666044473648
1759157632608024000,4.968024169921875,-0.05088812857866287,-0.027386676520109177,-0.030731569975614548
1759157632618082000,4.97808203125,-0.04292074963450432,-0.009902757592499256,0.001413583755493164
1759157632628140300,4.988140380859375,-0.02191660925745964,-0.006979367230087519,0.005581905134022236
1759157632638199000,4.998198974609375,-0.011257839389145374,-0.03196514770388603,-0.013652775436639786
1759157632648257000,5.008257080078125,-0.028621487319469452,-0.0975736528635025,-0.045624516904354095
1759157632658315300,5.018315185546875,-0.061907537281513214,-0.1811140775680542,-0.06580594927072525
1759157632668374000,5.0283740234375,-0.07203751057386398,-0.1998501718044281,-0.0643593966960907
1759157632678432300,5.038432373046875,-0.06298676133155823,-0.15516872704029083,-0.051108039915561676
1759157632688490800,5.04849072265625,-0.0479026660323143,-0.08412042260169983,-0.04102232679724693
1759157632698550000,5.058550048828125,-0.039868175983428955,-0.030399130657315254,-0.04154164344072342
1759157632708608000,5.06860791015625,-0.03821711987257004,-0.023776128888130188,-0.0350957065820694
1759157632718665700,5.078665771484375,-0.03198026493191719,-0.0451946035027504,-0.025475570932030678
1759157632728725000,5.08872509765625,-0.023999467492103577,-0.04987670108675957,-0.00600267481058836
1759157632738783000,5.098782958984375,-0.013222986832261086,-0.022380094975233078,0.015715137124061584
1759157632748840700,5.1088408203125,0.004387860652059317,0.009467641822993755,0.0249456949532032
1759157632758900000,5.11889990234375,0.014279372990131378,0.02853907085955143,0.025755297392606735
1759157632768958000,5.1289580078125,0.028201906010508537,0.05327915400266647,0.020180732011795044
1759157632779015700,5.139015625,0.027654359117150307,0.038370512425899506,-0.0030766520649194717
1759157632789075000,5.149074951171875,0.013926398009061813,0.014053059741854668,-0.022478792816400528
1759157632799133000,5.1591328125,0.00044015049934387207,0.002239010762423277,-0.03122061863541603
1759157632809191000,5.16919091796875,-0.015868356451392174,-0.021455615758895874,-0.03687751665711403
1759157632819250000,5.17925,-0.03238554671406746,-0.044558536261320114,-0.04044641926884651
1759157632829308000,5.189307861328125,-0.04663356393575668,-0.0576997809112072,-0.040898676961660385
1759157632839366000,5.199365966796875,-0.049518562853336334,-0.05934827774763107,-0.03631804138422012
1759157632849424000,5.209423828125,-0.03801850602030754,-0.03735310211777687,-0.020542465150356293
1759157632859483000,5.21948291015625,-0.020034179091453552,0.007558979094028473,0.008183988742530346
1759157632869540900,5.229540771484375,-0.0001973048783838749,0.0462009534239769,0.03608506917953491
1759157632879598800,5.239598876953125,0.02711634337902069,0.07841455191373825,0.06294651329517365
1759157632889657900,5.249657958984375,0.04833145812153816,0.1117013469338417,0.08530409634113312
1759157632899715800,5.2597158203125,0.07336277514696121,0.13104335963726044,0.08977261185646057
1759157632909773800,5.26977392578125,0.0843997597694397,0.14262548089027405,0.07969941198825836
1759157632919832800,5.279832763671875,0.07933922111988068,0.14271123707294464,0.06611063331365585
1759157632929890800,5.289890869140625,0.06525206565856934,0.12739038467407227,0.054732732474803925
1759157632939948800,5.29994873046875,0.05450141057372093,0.12715496122837067,0.05649254843592644
1759157632950007800,5.3100078125,0.05316845700144768,0.15151461958885193,0.06675867736339569
1759157632960065800,5.320065673828125,0.06260430067777634,0.1890057921409607,0.07949604839086533
1759157632970123800,5.330123779296875,0.06659552454948425,0.19221718609333038,0.0797078013420105
1759157632980182800,5.340182861328125,0.05152549594640732,0.12961052358150482,0.07133908569812775
1759157632990240800,5.35024072265625,0.0100760068744421,0.013611054047942162,0.0452645942568779
1759157633000299000,5.360299072265625,-0.01808052882552147,-0.0788981094956398,0.008793666958808899
1759157633010357800,5.370357666015625,-0.03487027436494827,-0.1034432202577591,-0.01691063493490219
1759157633020415700,5.380415771484375,-0.04748833179473877,-0.09357700496912003,-0.041129421442747116
1759157633030474000,5.390473876953125,-0.05479865521192551,-0.08667272329330444,-0.06980293244123459
1759157633040532700,5.40053271484375,-0.05120418593287468,-0.09311012178659439,-0.0943697988986969
1759157633050590700,5.4105908203125,-0.05230923742055893,-0.1472487896680832,-0.1264202892780304
1759157633060649000,5.42064892578125,-0.06767567992210388,-0.2510308623313904,-0.15333420038223267
