time,seconds_elapsed,z,y,x
1759160389382061800,0.049061767578125,6.220884101104736,-5.836465097045898,-4.702960248565674
1759160389392119000,0.059119140625,6.2766989273071285,-5.840206037139892,-4.758176524353027
1759160389402176800,0.0691767578125,6.299294205474853,-5.851728132629394,-4.764012390899658
1759160389412233700,0.079233642578125,6.266822845458984,-5.856666173553466,-4.74994645614624
1759160389422290700,0.089290771484375,6.227917068481445,-5.837961473083496,-4.750694644165039
1759160389432347600,0.09934765625,6.235099673461914,-5.817311483764648,-4.717774371337891
1759160389442404900,0.10940478515625,6.235997499084473,-5.803993737030029,-4.715978720092773
1759160389452462800,0.119462890625,6.235548586273193,-5.799504608917236,-4.694730180358887
1759160389462519800,0.129519775390625,6.239738439178466,-5.815366194915772,-4.653130926513672
1759160389472576800,0.13957666015625,6.204723239898681,-5.8454433532714845,-4.649389986419678
1759160389482633700,0.1496337890625,6.208763455200195,-5.852027407836914,-4.661360994720459
1759160389492690700,0.159690673828125,6.222380477142334,-5.870582470703124,-4.721964224243163
1759160389502748700,0.169748779296875,6.251410172271728,-5.8654947921752925,-4.750694644165039
1759160389512806000,0.179805908203125,6.253505098724365,-5.839158573913574,-4.773738835144043
1759160389522862800,0.18986279296875,6.2493152458190915,-5.842749876403809,-4.790797521972656
1759160389532919800,0.199919921875,6.26338118057251,-5.8636991409301755,-4.791844985198974
1759160389542976800,0.209976806640625,6.251559809875488,-5.857563999176025,-4.755034134674072
1759160389553034800,0.22003466796875,6.233304022216797,-5.858761100006103,-4.735431608581543
1759160389563091700,0.230091796875,6.204423964691162,-5.865644429779052,-4.7110406791687005
1759160389573148700,0.240148681640625,6.171802967071533,-5.847388642120361,-4.694879817962646
1759160389583206000,0.250205810546875,6.196493171691894,-5.8451440780639645,-4.673481640625
1759160389593262800,0.260262939453125,6.169109490203857,-5.858162549591064,-4.67931750717163
1759160389603320800,0.27032080078125,6.16686492614746,-5.870432833099365,-4.729146829223633
1759160389613377800,0.280377685546875,6.191106217956543,-5.86055675125122,-4.761618189239502
1759160389623434800,0.290434814453125,6.19903701095581,-5.855917985534668,-4.783016366577148
1759160389633491700,0.30049169921875,6.194547882843017,-5.890783547210693,-4.768052606201172
1759160389643548700,0.310548583984375,6.185120713806152,-5.904550206756592,-4.765209491729736
1759160389653606000,0.32060595703125,6.188412741088867,-5.897068326568603,-4.756829785919189
1759160389663663900,0.330663818359375,6.188113465881347,-5.880608190155029,-4.74964718093872
1759160389673720800,0.340720947265625,6.195445708465575,-5.858461824798583,-4.725705164337158
1759160389683777800,0.35077783203125,6.216843885803223,-5.8740241355895995,-4.709245027923584
1759160389693834800,0.360834716796875,6.231807646179199,-5.8743234107971185,-4.701314234924316
1759160389703891700,0.3708916015625,6.25021307144165,-5.844395890045166,-4.708047927093506
1759160389713950000,0.380949951171875,6.248417420196533,-5.851728132629394,-4.717175820922852
1759160389724007000,0.3910068359375,6.232256558990478,-5.865943704986572,-4.74366167678833
1759160389734063900,0.40106396484375,6.2201359130859375,-5.856516535949707,-4.769399344635009
1759160389744120800,0.411120849609375,6.235997499084473,-5.852177045440674,-4.772841009521484
1759160389754177800,0.421177734375,6.215048234558105,-5.839158573913574,-4.740220011901855
1759160389764235800,0.43123583984375,6.2018801254272455,-5.856067623138427,-4.709245027923584
1759160389774292700,0.441292724609375,6.182876149749755,-5.858012911987305,-4.680514608001709
1759160389784350000,0.451349853515625,6.179135209655762,-5.890484272003174,-4.659415705871582
1759160389794407000,0.461406982421875,6.180631585693359,-5.87986000213623,-4.679018231964111
1759160389804463900,0.4714638671875,6.19290186920166,-5.855618710327148,-4.6998178588867185
1759160389814521900,0.48152197265625,6.224924316406249,-5.837362922668457,-4.7183729217529295
1759160389824578800,0.491578857421875,6.255300749969482,-5.84155277557373,-4.723460600280761
1759160389834635800,0.5016357421875,6.259789878082275,-5.848735380554199,-4.734084870147705
1759160389844692700,0.511692626953125,6.2587424148559565,-5.859808563232422,-4.736628709411621
1759160389854750000,0.52175,6.258592777252197,-5.84828646774292,-4.750694644165039
1759160389864807000,0.531806884765625,6.244526842498779,-5.869086094665527,-4.7301942924499505
1759160389874865000,0.541864990234375,6.227019242858886,-5.86669189300537,-4.723011687469482
1759160389884921900,0.551921875,6.208164904785156,-5.843797339630127,-4.707000463867187
1759160389894978800,0.561978759765625,6.215197872161865,-5.819705685424804,-4.679167869567871
1759160389905035800,0.572035888671875,6.215497147369384,-5.819855323028564,-4.682908809661865
1759160389915092700,0.5820927734375,6.240935540008545,-5.851129582214355,-4.703259523773193
1759160389925150200,0.592150146484375,6.258592777252197,-5.864447328948974,-4.744709140014648
1759160389935207200,0.602207275390625,6.281936243438721,-5.849633206176757,-4.71822328414917
1759160389945264000,0.61226416015625,6.28178660583496,-5.865943704986572,-4.682609534454345
1759160389955321000,0.622321044921875,6.275202551269531,-5.870432833099365,-4.678419681549072
1759160389965378000,0.6323779296875,6.280439867401123,-5.838560023498535,-4.703858074188232
1759160389975436300,0.642436279296875,6.271012698364258,-5.825092639160156,-4.657171141815185
1759160389985493200,0.6524931640625,6.25036270904541,-5.8349687210083,-4.639663542175293
1759160389995550200,0.66255029296875,6.2395888015747065,-5.851129582214355,-4.6173675392150875
1759160390005607200,0.672607177734375,6.2407859024047845,-5.865644429779052,-4.603600879669189
1759160390015664000,0.6826640625,6.230011994934082,-5.850531031799316,-4.613476961517334
1759160390025722000,0.69272216796875,6.249165608215332,-5.8363154594421385,-4.613327323913574
1759160390035779000,0.702779052734375,6.256198575592041,-5.831227780914307,-4.638466441345215
1759160390045836300,0.712836181640625,6.255450387573242,-5.794716205596924,-4.709394665527343
1759160390055893200,0.722893310546875,6.246921044158936,-5.778555344390869,-4.748001167297363
1759160390065950200,0.7329501953125,6.223128665161132,-5.765387235260009,-4.778377600860596
1759160390076007200,0.743007080078125,6.1842228881835934,-5.783343747711181,-4.837035541534424
1759160390086065200,0.753065185546875,6.154893917846679,-5.814917282104492,-4.875342768096924
1759160390096122000,0.7631220703125,6.158934133148193,-5.850231756591796,-4.8965913078308105
1759160390106179000,0.773178955078125,6.171802967071533,-5.913678100585937,-4.831349312591552
1759160390116236300,0.783236328125,6.182726512145996,-5.891082822418213,-4.808604396820068
1759160390126293200,0.793293212890625,6.183474700164795,-5.840355674743652,-4.757577973937988
1759160390136351200,0.803351318359375,6.185868901824951,-5.793668742370605,-4.742165300750732
1759160390146408200,0.813408203125,6.181379773712158,-5.805939025878906,-4.8117467864990235
1759160390156465200,0.823465087890625,6.201730487823486,-5.794117655181885,-4.841674307250976
1759160390166522000,0.833522216796875,6.196044258880615,-5.792172366333007,-4.868459438323974
1759160390176579000,0.8435791015625,6.178387021636962,-5.805041200256348,-4.862174658966064
1759160390186636300,0.85363623046875,6.167912389373779,-5.812971993255615,-4.863521397399902
1759160390196694000,0.863694091796875,6.166565650939941,-5.8265890151977535,-4.83928010559082
1759160390206751200,0.873751220703125,6.187664553070068,-5.831676693725585,-4.792593173217774
1759160390216808200,0.88380810546875,6.2030772262573235,-5.856965448760986,-4.720916761016845
1759160390226865200,0.893865234375,6.219836637878418,-5.847089366912842,-4.712387417602539
1759160390236922000,0.903922119140625,6.2110080192565915,-5.822099887084961,-4.725854801940918
1759160390246980000,0.91397998046875,6.216095697784423,-5.820304235839844,-4.732887769317626
1759160390257037000,0.924037109375,6.202329038238525,-5.8363154594421385,-4.754585221862793
1759160390267094000,0.934093994140625,6.191405493164062,-5.823895538330078,-4.783016366577148
1759160390277151200,0.944151123046875,6.195296070861816,-5.833173069763183,-4.790797521972656
1759160390287208200,0.954208251953125,6.183175424957275,-5.858461824798583,-4.7664065925598145
1759160390297265200,0.96426513671875,6.1930515068054195,-5.906944408416748,-4.734234507751465
1759160390307323100,0.9743232421875,6.191704768371582,-5.922207444000244,-4.728548278808593
1759160390317380000,0.984380126953125,6.196193896484375,-5.9026049179077145,-4.732738131713867
1759160390327437000,0.99443701171875,6.207267079162597,-5.86744008102417,-4.720467848205566
1759160390337494000,1.004493896484375,6.214898596954345,-5.9032034683227534,-4.718522559356689
1759160390347551200,1.01455126953125,6.22462504119873,-5.910984623718261,-4.755632685089111
1759160390357609000,1.02460888671875,6.240037714385986,-5.882703116607666,-4.802469255065918
1759160390367666000,1.034666015625,6.236296774291992,-5.878513263702392,-4.779425064086913
1759160390377723100,1.04472314453125,6.226121417236328,-5.891831010437011,-4.786906944274902
1759160390387780000,1.054780029296875,6.211307294464111,-5.87357522277832,-4.790647884368896
1759160390397837000,1.064837158203125,6.215946060180664,-5.871779571533203,-4.760271450805663
1759160390407894000,1.07489404296875,6.181529411315918,-5.875221236419677,-4.721814586639404
1759160390417952000,1.084951904296875,6.191704768371582,-5.894973400115966,-4.687397937774658
1759160390428009000,1.095009033203125,6.206668528747558,-5.896469776153564,-4.676923305511474
1759160390438066000,1.10506591796875,6.182127961730957,-5.902904193115234,-4.669591062927246
1759160390448123100,1.115123046875,6.19260259399414,-5.901258179473877,-4.660014256286621
1759160390458180000,1.12518017578125,6.215347509765625,-5.903652381134033,-4.66061280670166
1759160390468237000,1.135237060546875,6.231508370971679,-5.906794770812988,-4.651335275268554
1759160390478295000,1.145294921875,6.263231542968749,-5.915174476623535,-4.624999057006836
1759160390488352000,1.15535205078125,6.282385156249999,-5.925948384094238,-4.638466441345215
1759160390498409000,1.165408935546875,6.291213774871826,-5.92445200805664,-4.6987703956604
1759160390508466000,1.1754658203125,6.280290229797363,-5.922805994415283,-4.685153373718261
1759160390518523100,1.185523193359375,6.263680455780029,-5.913528462982177,-4.665550847625732
1759160390528581000,1.1955810546875,6.232256558990478,-5.898415065002441,-4.685452648925781
1759160390538638000,1.20563818359375,6.202927588653564,-5.8919806480407715,-4.677821131134033
1759160390548695000,1.215695068359375,6.200084474182129,-5.9026049179077145,-4.644302307891845
1759160390558752000,1.225751953125,6.201730487823486,-5.896619413757324,-4.613476961517334
1759160390568809000,1.23580908203125,6.2036757766723625,-5.925349833679199,-4.621407754516602
1759160390578866000,1.245865966796875,6.21175620727539,-5.935674828338622,-4.648342523193359
1759160390588924200,1.255924072265625,6.2216322891235345,-5.9394157684326165,-4.688146125793457
1759160390598981000,1.265981201171875,6.229862357330322,-5.941660332489013,-4.733935232543945
1759160390609038000,1.2760380859375,6.244377204895019,-5.907393321228027,-4.767454055786133
1759160390619095000,1.286094970703125,6.2499137962341305,-5.887790795135498,-4.761468551635742
1759160390629152000,1.296152099609375,6.26308190536499,-5.882403841400146,-4.779125788879394
1759160390639209000,1.306208984375,6.271760886383056,-5.868188269042968,-4.74396095199585
1759160390649267200,1.31626708984375,6.260837341308593,-5.862053127288818,-4.721664949035644
1759160390659324200,1.32632421875,6.2310594581604,-5.843946977233887,-4.7022120605468745
1759160390669381000,1.336381103515625,6.190058754730225,-5.85412233428955,-4.67991605758667
1759160390679438000,1.34643798828125,6.178835934448242,-5.84753827972412,-4.705803363037109
1759160390689495000,1.3564951171875,6.175992819976806,-5.822099887084961,-4.722113861846924
1759160390699552000,1.366552001953125,6.1750949943542475,-5.811924530029296,-4.689193589019775
1759160390709610200,1.3766103515625,6.160580146789551,-5.819855323028564,-4.716427632904052
1759160390719667200,1.386667236328125,6.198588098144531,-5.8268882904052735,-4.762216739654541
1759160390729724200,1.39672412109375,6.24347937927246,-5.867739356231689,-4.767753330993652
1759160390739781000,1.406781005859375,6.27595073928833,-5.9187657791137696,-4.753238483428955
1759160390749838000,1.416838134765625,6.2852282707214355,-5.939565406036377,-4.721365673828124
1759160390759895000,1.42689501953125,6.347926426696777,-5.958120468902588,-4.6538791145324705
1759160390769953000,1.436953125,6.405686541748047,-5.9385179428100585,-4.585345092010498
1759160390780010200,1.44701025390625,6.3323641159057615,-5.894374849700927,-4.52638787612915
1759160390790067200,1.457067138671875,6.30168840713501,-5.759551368713378,-4.509927739715576
1759160390800124200,1.467124267578125,6.240935540008545,-5.693112272644043,-4.477755654907226
1759160390810181000,1.47718115234375,6.123021108245849,-5.643133312988281,-4.581454514312744
1759160390820238000,1.487238037109375,6.139630882263183,-5.646874253082275,-4.789450783538818
1759160390830296000,1.497296142578125,6.1839236129760735,-5.689969882965087,-4.893748193359374
1759160390840353000,1.50735302734375,6.21848989944458,-5.722890155792236,-4.994753575897216
1759160390850410200,1.51741015625,6.223427940368652,-5.766883611297607,-5.035155728912353
1759160390860467200,1.52746728515625,6.185270351409912,-5.810727429199218,-4.904671738433837
1759160390870524200,1.537524169921875,6.0799254783630365,-5.922057806396484,-4.868758713531494
1759160390880581000,1.5475810546875,6.027701954650879,-5.968146188354492,-4.812046061706543
1759160390890638000,1.55763818359375,6.070199034118652,-5.901258179473877,-4.770596445465087
1759160390900696000,1.567696044921875,6.109254448699951,-5.862950952911377,-4.690839602661133
1759160390910753000,1.5777529296875,6.0890533721923825,-5.8265890151977535,-4.656123678588867
1759160390920810200,1.587810302734375,6.129904438018799,-5.7843912109375,-4.636970065307617
1759160390930867700,1.59786767578125,6.1462149368286125,-5.799504608917236,-4.659116430664063
1759160390940924700,1.607924560546875,6.153996092224121,-5.8262897399902345,-4.6830584472656245
1759160390950982000,1.61798193359375,6.148609138488769,-5.877166525268555,-4.754734859466552
1759160390961040000,1.628039794921875,6.142773271942138,-5.905148757171631,-4.7399207366943354
1759160390971096800,1.638096923828125,6.0808233039855955,-5.894973400115966,-4.781370352935791
1759160390981153800,1.64815380859375,6.104765320587158,-5.877914713287353,-4.8136920753479
1759160390991210800,1.658210693359375,6.202329038238525,-5.9391164932250975,-4.772242459106445
1759160391001267700,1.668267822265625,6.186617089843749,-6.00151537399292,-4.73737689743042
1759160391011324700,1.67832470703125,6.191555130767822,-6.030245793914794,-4.6736312782287595
1759160391021382000,1.6883818359375,6.194398245239258,-5.987748714447021,-4.66016389389038
1759160391031440000,1.69843994140625,6.180481948089599,-5.982511398315429,-4.612279860687256
1759160391041496800,1.708496826171875,6.180781223297119,-5.870732108306885,-4.478503842926025
1759160391051553800,1.7185537109375,6.204872877502441,-5.78409193572998,-4.549432067108154
1759160391061610800,1.72861083984375,6.298097104644775,-5.760598831939697,-4.541501274108886
1759160391071667700,1.738667724609375,6.401646326446532,-5.755960066223144,-4.497956731414795
1759160391081724700,1.748724609375,6.49277562713623,-5.7523687637329095,-4.509478826904297
1759160391091783000,1.758782958984375,6.495618741607665,-5.7611973823547356,-4.578312124633789
1759160391101840000,1.76883984375,6.511629965209961,-5.737704278564453,-4.56439582748413
1759160391111896800,1.778896728515625,6.456862602233886,-5.71421117477417,-4.544793301391601
1759160391121953800,1.788953857421875,6.4363622505187985,-5.689969882965087,-4.464737183380127
1759160391132010800,1.7990107421875,6.375310108184814,-5.569511611938476,-4.408323806762695
1759160391142067700,1.809067626953125,6.329969914245605,-5.569661249542236,-4.4385506027221675
1759160391152124700,1.819124755859375,6.3235354972839355,-5.571456900787354,-4.4093712699890135
1759160391162183000,1.829182861328125,6.380248149108886,-5.614851805877685,-4.3239281982421875
1759160391172240000,1.839239990234375,6.3527148300170895,-5.673360108947754,-4.401739752197265
1759160391182296800,1.849296875,6.317699630737304,-5.732466962432861,-4.51366867980957
1759160391192353800,1.859353759765625,6.3058782600402825,-5.750722750091552,-4.500051657867432
1759160391202410800,1.86941064453125,6.267421395874023,-5.705382556152343,-4.4565071151733395
1759160391212467700,1.8794677734375,6.132597914886475,-5.672163008117676,-4.446182120513916
1759160391222524700,1.889524658203125,6.094141050720214,-5.6592941741943354,-4.461145880889893
1759160391232583000,1.8995830078125,6.1179334297180175,-5.728576384735107,-4.546439315032958
1759160391242640000,1.909639892578125,6.153247904205322,-5.833173069763183,-4.509329189300537
1759160391252696800,1.91969677734375,6.334010129547119,-6.037578036499023,-4.366574915313721
1759160391262753800,1.92975390625,6.536619445037841,-6.1845221633911125,-4.243722442626953
1759160391272810800,1.939810791015625,6.559813273620605,-6.434267324066162,-4.322880735015869
1759160391282867700,1.94986767578125,6.349572440338134,-6.616226650238037,-4.28412459564209
1759160391292924700,1.959924560546875,6.069001933288574,-6.584653115844726,-4.140622133636475
1759160391302983000,1.96998291015625,5.913827738189697,-6.336404331207275,-4.023006977081298
1759160391313040000,1.980039794921875,5.941061782073974,-6.031742169952392,-3.9975685844421385
1759160391323096800,1.990096923828125,5.978620820617675,-5.621735135650635,-3.994426194763183
1759160391333153800,2.00015380859375,6.130652626037597,-5.631611217498779,-4.1952398590087885
1759160391343210800,2.010210693359375,6.28852029800415,-5.699397052001952,-4.28412459564209
1759160391353267700,2.020267822265625,6.2116065696716305,-5.830329955291748,-4.543745838165283
1759160391363324700,2.03032470703125,5.997175883483886,-6.101922206115722,-4.82027612991333
1759160391373383000,2.0403828125,5.833322707366943,-6.283731894683838,-4.801721067047119
1759160391383440000,2.05043994140625,5.952883152770996,-6.285377908325195,-4.588936394500732
1759160391393496800,2.060496826171875,6.1833250625610345,-6.193500419616699,-4.499602745056152
1759160391403553800,2.0705537109375,6.272209799194336,-6.194547882843017,-4.43720386428833
1759160391413610800,2.08061083984375,6.1565399314880365,-6.203825414276123,-4.28367568283081
1759160391423667700,2.090667724609375,6.026205578613281,-6.497414392852783,-4.140472496032714
1759160391433724700,2.100724609375,6.187963828277588,-6.728155577850341,-4.34113652267456
1759160391443783000,2.110782958984375,6.275052913665771,-6.628646571350097,-4.352808255767822
1759160391453840000,2.12083984375,6.301838044738769,-6.570587181091308,-4.343231449127197
1759160391463896800,2.130896728515625,6.36528438873291,-6.4861915725708,-4.557213222503662
1759160391473953800,2.140953857421875,6.537068357849121,-6.708104138946533,-4.853346040344238
1759160391484010800,2.1510107421875,6.417358274841308,-6.873752966308594,-4.969315183258057
1759160391494067700,2.161067626953125,5.959916120147705,-7.056011567687988,-5.185541520690918
1759160391504124700,2.171124755859375,5.679644888305663,-7.302913613891601,-5.205592959594727
1759160391514182000,2.181181884765625,5.335628037261962,-7.645134813690185,-5.36929649810791
1759160391524240000,2.191239990234375,5.504419254302978,-7.525574368286132,-5.551255824279785
1759160391534296800,2.201296875,5.663783302307128,-7.415590729522704,-4.998195240783691
1759160391544353800,2.211353759765625,5.336076950073242,-7.643339162445068,-5.071517666625977
1759160391554410800,2.22141064453125,5.3196168136596675,-7.629722140502929,-5.0960582336425775
1759160391564467700,2.2314677734375,5.284900889587402,-7.715165212249755,-4.47521181564331
1759160391574524700,2.241524658203125,5.3205146392822265,-7.877073099517822,-4.515913243865967
1759160391584582000,2.251581787109375,5.5081601943969725,-7.886649906158447,-4.541501274108886
1759160391594640000,2.261639892578125,5.216965417480468,-7.936778503417968,-4.425532131195068
1759160391604696800,2.27169677734375,4.657919329833984,-8.235455160522461,-4.276343440246582
1759160391614753800,2.28175390625,4.604199430084228,-8.262838842010497,-3.9234979705810544
1759160391624810800,2.291810791015625,4.6167689888000485,-8.188917865753174,-3.5576340293884274
1759160391634867700,2.30186767578125,4.644003032684326,-8.264484855651855,-3.3725323135375973
1759160391644924700,2.311924560546875,4.368520204162597,-8.41412245941162,-3.0071172851562498
1759160391654982000,2.32198193359375,4.377498460388184,-8.647407483673096,-3.1681273468017577
1759160391665038800,2.332038818359375,4.684255548095702,-8.785672629547118,-3.2951696723937984
1759160391675096800,2.342096923828125,4.710891041564941,-8.86094034423828,-3.1844378456115723
1759160391685153800,2.35215380859375,4.449174872589111,-8.999654402923584,-3.5571851165771484
1759160391695210800,2.362210693359375,4.180575373840332,-8.966135579681396,-3.5501521492004393
1759160391705267700,2.372267822265625,4.117428305053711,-8.883236347198485,-3.2926258331298826
1759160391715324700,2.38232470703125,4.085405857849121,-8.763526264190673,-3.257460996246338
1759160391725382000,2.3923818359375,4.120421057128906,-8.582614401245117,-3.086874127960205
1759160391735438800,2.40243896484375,4.3065702362060545,-8.300248242950438,-2.705747151184082
1759160391745495800,2.412495849609375,4.18147319946289,-8.175001568603514,-2.7268460533142087
1759160391755553800,2.4225537109375,4.242674979400634,-8.06920778274536,-2.5444378143310544
1759160391765610800,2.43261083984375,4.201674275970459,-8.104522257232665,-2.3235727111816407
1759160391775667700,2.442667724609375,4.084358394622803,-8.263587030029296,-2.255038688659668
1759160391785724700,2.452724609375,3.9529765785217283,-8.36908154067993,-2.2711995498657225
1759160391795782000,2.462781982421875,3.71550170135498,-8.417564124298096,-2.3000796073913574
1759160391805838800,2.4728388671875,3.5625720703124997,-8.531288703155518,-2.5043349365234375
1759160391815895800,2.482895751953125,3.7262756088256834,-8.481459381103516,-2.320879234313965
1759160391825952800,2.492952880859375,3.771316527557373,-8.47786807861328,-2.376394785308838
1759160391836010800,2.5030107421875,3.8379052612304685,-8.4666452583313,-2.404377017211914
1759160391846067700,2.513067626953125,3.918709567260742,-8.384494213867187,-2.346916177368164
1759160391856124700,2.523124755859375,3.908384572601318,-8.22243668899536,-2.1218612213134764
1759160391866182000,2.533181884765625,3.6930560607910152,-8.271817098236083,-2.108543474578857
1759160391876238800,2.54323876953125,3.535487664031982,-8.340800033569336,-2.1121347770690915
1759160391886295800,2.5532958984375,3.4421137992858886,-8.488791623687744,-2.039261264038086
1759160391896352800,2.563352783203125,3.3357214630126952,-8.527098850250244,-1.8005892860412596
1759160391906410800,2.57341064453125,3.2561142578125,-8.546402101135254,-1.7444751846313475
1759160391916467700,2.5834677734375,3.1584009025573727,-8.616133224487305,-1.885284169769287
1759160391926524700,2.593524658203125,3.231124777984619,-8.726865051269531,-1.9798551353454588
1759160391936582100,2.60358203125,3.3521815994262694,-8.634688287353516,-1.5747861419677733
1759160391946639000,2.61363916015625,3.290381269073486,-8.739135334777831,-1.5176245773315429
1759160391956696000,2.623696044921875,3.163338943481445,-8.917503358459472,-1.5056535690307615
1759160391966753000,2.6337529296875,3.1982045051574706,-9.009680122375487,-1.355417414855957
1759160391976810000,2.64381005859375,3.1476269950866698,-9.119065210723877,-1.31516489944458
1759160391986867000,2.653866943359375,3.0404864707946775,-9.265410787200928,-1.3476362594604492
1759160391996925000,2.663925048828125,3.058592620849609,-9.394099126434325,-1.279401512145996
1759160392006982100,2.673982177734375,3.126378455352783,-9.488221179199218,-1.1387421646118163
1759160392017039000,2.6840390625,3.178003428649902,-9.570521861267089,-1.1263222434997557
1759160392027096000,2.694095947265625,3.235464268493652,-9.5507696975708,-0.9983820922851562
1759160392037153000,2.704153076171875,3.1663316955566403,-9.48029038619995,-0.8550292678833007
1759160392047210000,2.7142099609375,3.0986954986572264,-9.498097261047363,-0.7242460021972655
1759160392057267000,2.724266845703125,3.0672716018676756,-9.53191535949707,-0.5047276374816895
1759160392067324000,2.734323974609375,3.0850784767150876,-9.553912087249754,-0.31214404144287106
1759160392077382100,2.744382080078125,3.0973487602233885,-9.55121861038208,-0.1249473991394043
1759160392087439000,2.754439208984375,3.158700177764892,-9.54523310623169,0.03920505218505859
1759160392097496000,2.76449609375,3.2206501457214354,-9.565883095550536,0.1427542739868164
1759160392107553000,2.774552978515625,3.272574394226074,-9.564237081909178,0.22834698333740233
1759160392117610000,2.78460986328125,3.164835319519043,-9.67841057357788,0.08858546142578125
1759160392127667000,2.7946669921875,3.144334967803955,-9.699509475708007,0.08813654861450194
1759160392137724000,2.804723876953125,3.0844799263000486,-9.679906949615479,0.23074118499755858
1759160392147780900,2.81478076171875,3.0151977157592773,-9.66000514831543,0.4655225852966308
1759160392157838000,2.824838134765625,2.9891607727050777,-9.661351886749268,0.6046855567932129
1759160392167896000,2.83489599609375,2.946962968444824,-9.590872575378418,0.6835445739746093
1759160392177953000,2.844953125,2.952050646972656,-9.526678043365479,0.7633014167785644
1759160392188010000,2.855010009765625,2.905513352203369,-9.421333170318603,0.8267477607727051
1759160392198067000,2.86506689453125,2.785952906799316,-9.298480697631835,0.8201637062072753
1759160392208124000,2.8751240234375,2.7067946144104003,-9.213935451507568,0.7535749725341796
1759160392218180900,2.885180908203125,2.8803742347717285,-9.239074568939209,0.8322843521118164
1759160392228238000,2.895238037109375,3.034650604248047,-9.240421307373046,1.0281599754333495
1759160392238295000,2.905294921875,3.0801404357910154,-9.18101517868042,1.2392986343383787
1759160392248353000,2.91535302734375,3.1102175941467283,-9.143905052947998,1.3667898727416992
1759160392258410000,2.925409912109375,3.1010897003173827,-9.074922117614745,1.41093296585083
1759160392268467000,2.935467041015625,3.001879969024658,-8.945036677551268,1.4053963745117186
1759160392278524000,2.94552392578125,3.1006407875061033,-8.896404456329345,1.4963760375976562
1759160392288580900,2.955580810546875,3.0832828254699707,-8.770858506774902,1.6461632789611815
1759160392298638000,2.96563818359375,2.933345946502685,-8.68227304534912,1.656039360809326
1759160392308695000,2.975695068359375,2.755875748443603,-8.853608101654052,1.6699556579589843
1759160392318752000,2.985751953125,2.632724000549316,-9.083152185821532,1.729511424255371
1759160392328809000,2.99580908203125,2.662950796508789,-9.175777862548827,1.7955016075134276
1759160392338867000,3.005866943359375,2.7741315361022947,-9.183110105133055,1.7953519699096678
1759160392348924000,3.015923828125,2.7735329856872557,-9.232789789581298,1.7289128738403319
1759160392358980900,3.02598095703125,2.8281507110595703,-9.24371333465576,1.7480664871215819
1759160392369038000,3.0360380859375,2.889651766204834,-9.228151023864745,1.7717092285156248
1759160392379095000,3.046094970703125,2.952050646972656,-9.176376412963867,1.7534534408569336
1759160392389152000,3.056152099609375,2.9575872383117674,-9.044096771240234,1.80029001083374
1759160392399209000,3.066208984375,2.935590510559082,-8.815300875091552,1.845779842376709
1759160392409266000,3.076265869140625,2.952050646972656,-8.583661864471434,1.8812439544677733
1759160392419323000,3.086322998046875,2.883815899658203,-8.467094171142577,1.939004069519043
1759160392429380900,3.096380859375,2.7659014678955076,-8.355015605926512,1.9840449882507323
1759160392439438000,3.10643798828125,2.6206033546447753,-8.237550086975098,2.054524299621582
1759160392449495000,3.1164951171875,2.5176526832580564,-8.12726717300415,2.179172423553467
1759160392459552000,3.126552001953125,2.408117957305908,-8.036586785125731,2.3177368446350095
1759160392469609000,3.13660888671875,2.40048643951416,-8.116193990325927,2.513612467956543
1759160392479666000,3.146666015625,2.35589443359375,-8.243685228729248,2.774430811309814
1759160392489723000,3.156722900390625,2.300827795410156,-8.463053955841064,2.9507039085388183
1759160392499779800,3.16677978515625,2.174384020233154,-8.56181477432251,3.07714768371582
1759160392509836800,3.1768369140625,2.0765210273742674,-8.613739022827147,3.221547971343994
1759160392519893800,3.186893798828125,2.053027923583984,-8.67598826599121,3.3729812263488768
1759160392529952000,3.196951904296875,2.03656778717041,-8.710853827667236,3.472490232849121
1759160392540009000,3.207009033203125,2.0473416946411134,-8.795847986602782,3.5125931106567383
1759160392550066000,3.21706591796875,2.0310311958312988,-8.834604125976561,3.4783260993957517
1759160392560123000,3.227122802734375,1.9696797782897948,-8.782230964660645,3.349787397766113
1759160392570179800,3.237179931640625,1.9671359390258787,-8.77265415802002,3.1540614120483395
1759160392580236800,3.24723681640625,2.0121768577575683,-8.899097933197021,3.0433295852661133
1759160392590293800,3.257293701171875,2.0388123512268064,-9.088239864349365,2.953397385406494
1759160392600351000,3.26735107421875,2.092681888580322,-9.293093743896485,2.9604303527832028
1759160392610409000,3.277408935546875,2.235136887359619,-9.452457791900635,3.012204963684082
1759160392620466000,3.2874658203125,2.286163310241699,-9.527575868988036,2.9785365028381348
1759160392630523000,3.29752294921875,2.2667104217529297,-9.511863920593262,2.822464482116699
1759160392640579800,3.307579833984375,2.2691046234130856,-9.440037870788574,2.6521768890380857
1759160392650636800,3.31763671875,2.266860059356689,-9.4105592628479,2.5219921737670896
1759160392660693800,3.32769384765625,2.2622212936401365,-9.386766883850097,2.471414663696289
1759160392670751000,3.3377509765625,2.264016944885254,-9.319729237365722,2.436848377227783
1759160392680808200,3.34780810546875,2.255786876678467,-9.248052825164795,2.4766519798278805
1759160392690865200,3.357865234375,2.255188326263428,-9.265410787200928,2.516754857635498
1759160392700922000,3.367922119140625,2.196979298400879,-9.211241974639892,2.5610475883483885
1759160392710979800,3.377979736328125,2.124704335784912,-9.191040898132323,2.5987562644958495
1759160392721036800,3.388036865234375,2.1402666465759275,-9.184905756378173,2.6440964584350586
1759160392731093800,3.39809375,2.189198143005371,-9.157372437286377,2.6906337532043456
1759160392741151000,3.40815087890625,2.2281039199829102,-9.117868109893799,2.7066449768066403
1759160392751208200,3.418208251953125,2.3005285202026364,-9.150189832305907,2.6671406494140624
1759160392761265200,3.42826513671875,2.306514024353027,-9.249998114013671,2.6824036849975585
1759160392771322000,3.438322021484375,2.20236625213623,-9.304765476989745,2.750937707519531
1759160392781379000,3.448379150390625,2.0033482391357422,-9.293542656707762,2.846256861114502
1759160392791436000,3.45843603515625,1.7622820594787596,-9.181613729095458,2.939331450653076
1759160392801493000,3.468492919921875,1.544409708404541,-9.10395181274414,3.0737060188293457
1759160392811551000,3.478551025390625,1.4350246200561523,-9.043647858428955,3.225288911437988
1759160392821608200,3.488608154296875,1.4101847778320311,-8.998457302093506,3.2876877922058103
1759160392831665200,3.4986650390625,1.4163199195861815,-8.939051173400879,3.3062428550720213
1759160392841722000,3.50872216796875,1.3902829765319824,-8.755296195983886,3.2857425033569334
1759160392851779000,3.518779052734375,1.3025953407287596,-8.589348093414307,3.285293590545654
1759160392861836000,3.5288359375,1.2605471740722656,-8.51662421798706,3.3821091201782223
1759160392871893000,3.53889306640625,1.2247837867736815,-8.49103618774414,3.44091669845581
1759160392881950000,3.548949951171875,1.2167033561706542,-8.555829270172119,3.46021994934082
1759160392892007000,3.5590068359375,1.2235866859436035,-8.73285055541992,3.447051840209961
1759160392902065200,3.569065185546875,1.3024457031249999,-8.9378540725708,3.3565210899353026
1759160392912122000,3.5791220703125,1.419761584472656,-9.146897805023192,3.172466837310791
1759160392922179000,3.589178955078125,1.507299582672119,-9.24371333465576,2.966864769744873
1759160392932236000,3.599236083984375,1.5942390304565428,-9.229797037506103,2.7720366096496583
1759160392942293000,3.60929296875,1.6463129165649413,-9.201665167999266,2.680757671356201
1759160392952350000,3.619349853515625,1.6677110939025879,-9.239673119354247,2.663399709320068
1759160392962407000,3.629406982421875,1.652298420715332,-9.39155528717041,2.6396073303222654
1759160392972463900,3.6394638671875,1.6329951698303222,-9.482235675048827,2.5986066268920895
1759160392982521000,3.64952099609375,1.6020201858520506,-9.481487487030028,2.5480291168212887
1759160392992578000,3.659578125,1.6060604011535644,-9.413103102111815,2.5062802253723144
1759160393002636000,3.669635986328125,1.68551796875,-9.381230292510987,2.4679729988098145
1759160393012693000,3.67969287109375,1.7802385719299316,-9.324368003082276,2.4405893173217774
1759160393022750000,3.68975,1.8800468536376953,-9.279027809143066,2.4411878677368164
1759160393032807000,3.699806884765625,1.960551884460449,-9.308955329895019,2.4938603042602536
1759160393042863900,3.70986376953125,1.9617489852905272,-9.426121573638916,2.647687760925293
1759160393052921000,3.719921142578125,1.9002479301452635,-9.541941078948975,2.789244934082031
1759160393062978000,3.72997802734375,1.763329522705078,-9.607332711791992,2.868403226470947
1759160393073035000,3.740034912109375,1.6014216354370117,-9.653720368957519,2.8796260467529295
1759160393083092000,3.750092041015625,1.5101426971435545,-9.618256256866454,2.864213373565674
1759160393093149000,3.76014892578125,1.4942811111450194,-9.51201355819702,2.8067525337219235
1759160393103206000,3.770205810546875,1.534084713745117,-9.416694404602051,2.7090391784667966
1759160393113263900,3.780263916015625,1.6400281372070311,-9.428366137695312,2.626588858795166
1759160393123321000,3.790321044921875,1.7471686614990234,-9.454403080749511,2.6225486434936522
1759160393133378000,3.8003779296875,1.8427870903015136,-9.46143604812622,2.599205177307129
1759160393143435000,3.81043505859375,1.8836381561279296,-9.46098713531494,2.593967861175537
1759160393153492000,3.820491943359375,1.9205986442565917,-9.39709187850952,2.5959131500244137
1759160393163549000,3.830548828125,1.8544588233947752,-9.23802710571289,2.551171506500244
1759160393173606000,3.84060595703125,1.7669208251953124,-9.095871382141112,2.4980501571655274
1759160393183662800,3.850662841796875,1.6910545600891111,-9.019406566619873,2.4814403831481933
1759160393193719800,3.8607197265625,1.665017617034912,-9.005639907073974,2.4766519798278805
1759160393203776800,3.87077685546875,1.6364368347167968,-9.02045402984619,2.5082255142211913
1759160393213834000,3.880833984375,1.6371850227355955,-9.081057259368896,2.5387515853881832
1759160393223892000,3.89089208984375,1.6307506057739256,-9.100210872650146,2.5649381660461423
1759160393233949000,3.900948974609375,1.6487071182250976,-9.133580058288574,2.5828946784973144
1759160393244006000,3.911005859375,1.6608277641296385,-9.21303762588501,2.6358663902282715
1759160393254062800,3.921062744140625,1.6597803009033203,-9.307907866668701,2.697965995788574
1759160393264119800,3.931119873046875,1.6593313880920408,-9.38482159500122,2.7416601760864254
1759160393274176800,3.9411767578125,1.6798317398071287,-9.472658868408203,2.7647043670654297
1759160393284234000,3.95123388671875,1.7235259201049804,-9.458293658447266,2.741360900878906
1759160393294291000,3.961291015625,1.7245733833312988,-9.317933586120605,2.727145328521728
1759160393304348000,3.971347900390625,1.7223288192749022,-9.213336901092529,2.738068873596191
1759160393314404900,3.98140478515625,1.735945841217041,-9.175179312133789,2.7492916938781735
1759160393324462800,3.991462890625,1.7360954788208007,-9.202712631225586,2.7813141410827633
1759160393334519800,4.001519775390625,1.726967584991455,-9.221118056488036,2.7961282638549805
1759160393344576800,4.01157666015625,1.7031752059936522,-9.246257173919677,2.797026089477539
1759160393354634000,4.021634033203125,1.6967407890319823,-9.27693288269043,2.7736826232910157
1759160393364691000,4.03169091796875,1.6894085464477537,-9.278429258728027,2.7377695983886716
1759160393374748000,4.041747802734375,1.7135002006530762,-9.253739054107665,2.71966344833374
1759160393384804900,4.051804931640625,1.696890426635742,-9.20615429611206,2.7283424293518066
1759160393394861800,4.06186181640625,1.6325462570190428,-9.149890557098388,2.749590969085693
1759160393404918800,4.071918701171875,1.580023458099365,-9.145850341796875,2.7889456588745114
1759160393414976000,4.08197607421875,1.4950292991638183,-9.177872789001464,2.840420994567871
1759160393425033000,4.092032958984375,1.4534300453186035,-9.209147048187255,2.883217349243164
1759160393435090200,4.102090087890625,1.4573206230163573,-9.21872385482788,2.874987281036377
1759160393445148000,4.11214794921875,1.4616601135253906,-9.208249222564696,2.8163293403625485
1759160393455204900,4.122204833984375,1.5023615417480467,-9.196876764678954,2.810942386627197
1759160393465261800,4.13226171875,1.5382745666503905,-9.183559017944335,2.8393735313415527
1759160393475318800,4.14231884765625,1.5791256324768066,-9.20615429611206,2.856432218170166
1759160393485376000,4.1523759765625,1.6041151123046875,-9.240421307373046,2.8188731796264648
1759160393495433000,4.162432861328125,1.6409259628295898,-9.300725261688232,2.7736826232910157
1759160393505490200,4.172490234375,1.675192974090576,-9.297732509613036,2.7226562004089354
1759160393515547100,4.182547119140625,1.711554911804199,-9.309703517913817,2.685994987487793
1759160393525604000,4.19260400390625,1.7663222747802734,-9.312097719573973,2.666841374206543
1759160393535661000,4.2026611328125,1.7904139289855956,-9.268852452087401,2.669834126281738
1759160393545718000,4.212718017578125,1.8145055831909178,-9.239224206542968,2.684498611450195
1759160393555775000,4.22277490234375,1.8272247795104979,-9.211690887451171,2.7027543991088865
1759160393565833000,4.2328330078125,1.8073229782104492,-9.237278917694091,2.729838805389404
1759160393575890200,4.24289013671875,1.7884686401367187,-9.247903187561034,2.728641704559326
1759160393585947100,4.252947021484375,1.7815853103637693,-9.279027809143066,2.6837504234313965
1759160393596004000,4.263004150390625,1.7552490921020507,-9.330353507232665,2.6779145568847653
1759160393606061000,4.27306103515625,1.7504606887817382,-9.368960009002684,2.6598084068298338
1759160393616118000,4.283117919921875,1.7317559883117675,-9.380631742095947,2.6631004341125486
1759160393626175000,4.293175048828125,1.7170915031433105,-9.351003496551513,2.6976667205810547
1759160393636232000,4.30323193359375,1.65992993850708,-9.273341580200194,2.695571794128418
1759160393646289000,4.313288818359375,1.6002245346069335,-9.230245950317382,2.7192145355224606
1759160393656345900,4.323345947265625,1.5414169563293456,-9.235632904052734,2.7659014678955076
1759160393666403000,4.333403076171875,1.467795255279541,-9.223212982940673,2.779069577026367
1759160393676460000,4.3434599609375,1.441608674621582,-9.224110808563232,2.7584195877075195
1759160393686518000,4.35351806640625,1.4820108276367188,-9.281721286010741,2.733130832672119
1759160393696575000,4.363574951171875,1.5830162101745604,-9.38467195739746,2.703652224731445
1759160393706632000,4.3736318359375,1.7290625114440916,-9.424774835205078,2.620752992248535
1759160393716689000,4.38368896484375,1.8644845428466796,-9.405321946716308,2.582595403289795
1759160393726745900,4.393745849609375,1.9678841270446776,-9.386916521453857,2.4914661026000977
1759160393736803000,4.403802978515625,2.0337246726989746,-9.287706790161133,2.417545126342773
1759160393746860000,4.413860107421875,1.9834464378356933,-9.137769911193848,2.399139701080322
1759160393756917000,4.4239169921875,1.9071312599182129,-9.027786272430419,2.3784897117614743
1759160393766974000,4.433973876953125,1.8038813133239746,-9.005190994262694,2.438195115661621
1759160393777031000,4.444031005859375,1.6874632575988768,-9.101856886291504,2.494907767486572
1759160393787088000,4.454087890625,1.6062100387573242,-9.264812236785888,2.5706243949890135
1759160393797144800,4.464144775390625,1.564760422515869,-9.298331060028076,2.601749016571045
1759160393807201800,4.474201904296875,1.5203180541992187,-9.338733213043213,2.6330232757568357
1759160393817260000,4.484260009765625,1.539920580291748,-9.405471584320068,2.657114929962158
1759160393827317000,4.49431689453125,1.5693991882324219,-9.430610701751709,2.654720728302002
1759160393837374000,4.5043740234375,1.6166846710205076,-9.398288979339599,2.6226982810974118
1759160393847431000,4.514430908203125,1.6557400856018065,-9.34037922668457,2.5761609863281247
1759160393857488000,4.52448779296875,1.694346587371826,-9.27603505706787,2.5432407135009765
1759160393867544800,4.534544921875,1.7076643341064452,-9.267804988861084,2.558803024291992
1759160393877601800,4.544601806640625,1.6992846282958984,-9.255983618164063,2.5890298202514646
1759160393887658800,4.55465869140625,1.6891092712402342,-9.226056097412108,2.652476164245605
1759160393897716000,4.564716064453125,1.6760907997131347,-9.235483266448973,2.712630480957031
1759160393907773000,4.57477294921875,1.651699870300293,-9.236081816864013,2.7787703018188474
1759160393917830000,4.584829833984375,1.6172832214355468,-9.207201759338378,2.8693010520935056
1759160393927886800,4.594886962890625,1.6208745239257811,-9.192836549377441,2.8950387199401852
1759160393937943800,4.60494384765625,1.6494553062438964,-9.208099584960937,2.927809355163574
1759160393948002000,4.615001953125,1.683572679901123,-9.197325677490234,2.9336452217102047
1759160393958059000,4.62505908203125,1.7188871543884277,-9.178770614624023,2.9114988563537594
1759160393968116000,4.635115966796875,1.7360954788208007,-9.189544522094726,2.8776807579040526
1759160393978173000,4.6451728515625,1.7549498168945312,-9.216479290771483,2.833986577606201
1759160393988230000,4.65522998046875,1.7755998062133789,-9.261071296691894,2.7814637786865233
1759160393998286800,4.665286865234375,1.805377689361572,-9.296685046386719,2.7341782958984373
1759160394008343800,4.67534375,1.8332102836608886,-9.317634310913085,2.6645968101501465
1759160394018401000,4.685401123046875,1.8468273056030273,-9.34651436843872,2.5878327194213866
1759160394028458000,4.6954580078125,1.8168997848510742,-9.342773428344726,2.5438392639160154
1759160394038515200,4.70551513671875,1.818845073699951,-9.321674526214599,2.5014918220520017
1759160394048572200,4.715572265625,1.8011878364562988,-9.309553880310059,2.4539070640563962
1759160394058629000,4.725629150390625,1.795950520324707,-9.266757525634764,2.412756723022461
1759160394068686000,4.73568603515625,1.7452233726501465,-9.201515530395508,2.403030278778076
1759160394078743000,4.745742919921875,1.6979378898620605,-9.200916979980468,2.408117957305908
1759160394088800000,4.755800048828125,1.6431705268859862,-9.226205735015869,2.459892568206787
1759160394098858000,4.76585791015625,1.6041151123046875,-9.292794468688964,2.5098715278625487
1759160394108915200,4.775915283203125,1.5936404800415038,-9.33379517211914,2.5499744056701656
1759160394118972200,4.78597216796875,1.5913959159851074,-9.38422304458618,2.6134207496643067
1759160394129029000,4.796029052734375,1.586457875061035,-9.408763611602783,2.6319758125305173
1759160394139086000,4.806086181640625,1.6147393821716307,-9.37808790283203,2.6714801399230956
1759160394149143000,4.81614306640625,1.6500538566589356,-9.32766003036499,2.6626515213012696
1759160394159200000,4.826199951171875,1.681028840637207,-9.266009337615966,2.68120658416748
1759160394169257000,4.836257080078125,1.7161936775207518,-9.202862268829346,2.664896085357666
1759160394179314000,4.84631396484375,1.737292579650879,-9.175478587341308,2.63676421585083
1759160394189371100,4.85637109375,1.7663222747802734,-9.159317726135253,2.6605565948486327
1759160394199428000,4.866427978515625,1.7874211769104003,-9.21917276763916,2.678213832092285
1759160394209485000,4.876485107421875,1.8104653678894043,-9.239373844146728,2.6828525978088376
1759160394219542000,4.8865419921875,1.8282722427368163,-9.23772783050537,2.694973243713379
1759160394229599000,4.896598876953125,1.839943975830078,-9.25074630203247,2.694973243713379
1759160394239656000,4.906656005859375,1.843086365509033,-9.246406811523437,2.699013459014892
1759160394249714000,4.9167138671875,1.8198925369262695,-9.215880740356445,2.7015572982788085
1759160394259771100,4.926771240234375,1.7975965339660644,-9.216928203582762,2.7027543991088865
1759160394269828000,4.936828125,1.77485161819458,-9.274239405822753,2.6994623718261717
1759160394279885000,4.946885009765625,1.765274811553955,-9.33379517211914,2.675669992828369
1759160394289942000,4.95694189453125,1.773504879760742,-9.361178853607177,2.6007015533447264
1759160394299999000,4.9669990234375,1.7702128524780272,-9.316586847686766,2.576011348724365
1759160394310056000,4.977055908203125,1.7745523429870604,-9.290400267028808,2.5439889015197754
1759160394320113000,4.98711279296875,1.7727566917419433,-9.286060776519776,2.5397990486145017
1759160394330169900,4.997169921875,1.7194857048034666,-9.284414762878418,2.5317186180114746
1759160394340226800,5.007226806640625,1.6786346389770508,-9.2182749420166,2.5119664543151856
1759160394350284000,5.017283935546875,1.6306009681701659,-9.235183991241454,2.5403975990295407
1759160394360341000,5.027341064453125,1.5945383056640625,-9.311648806762694,2.60474176864624
1759160394370398000,5.03739794921875,1.59618431930542,-9.356689725494384,2.6396073303222654
1759160394380455000,5.047454833984375,1.654842259979248,-9.385420145416258,2.70050983505249
1759160394390511900,5.057511962890625,1.701978105163574,-9.371204573059082,2.715473595428467
1759160394400569000,5.067569091796875,1.7690157516479492,-9.278578896331787,2.712630480957031
1759160394410626000,5.0776259765625,1.7987936347961424,-9.213785813903808,2.689735927581787
1759160394420683000,5.08768310546875,1.8255787658691405,-9.16859525756836,2.6026468421936033
1759160394430740000,5.097739990234375,1.836203035736084,-9.13582462234497,2.516904495239258
1759160394440798000,5.1077978515625,1.8251298530578612,-9.182511554718017,2.4583961921691895
1759160394450855000,5.11785498046875,1.8552070114135741,-9.284564400482177,2.424278818511963
1759160394460911900,5.127911865234375,1.8538602729797362,-9.332747708892821,2.448520110321045
1759160394470969000,5.137968994140625,1.9342156661987304,-9.40412484588623,2.522441086578369
1759160394481026000,5.148026123046875,2.148197439575195,-9.441085334014891,2.6225486434936522
1759160394491083000,5.1580830078125,2.198326036834717,-9.446472287750243,2.6657939109802244
1759160394501140000,5.168139892578125,2.1122844146728514,-9.313893370819091,2.586186705780029
1759160394511197200,5.178197265625,1.9412486335754393,-9.21812530441284,2.441936055755615
1759160394521254100,5.188254150390625,1.6479589302062987,-9.192088361358643,2.3503578422546387
1759160394531311000,5.19831103515625,1.4200608596801756,-9.232340876770019,2.3234230735778807
1759160394541368000,5.2083681640625,1.1572972274780273,-9.242366596221924,2.2581810783386227
1759160394551425000,5.218425048828125,0.9264064048767089,-9.2182749420166,2.2577321655273437
1759160394561482000,5.22848193359375,1.025915411376953,-9.216628928375243,2.3919570960998535
1759160394571539000,5.2385390625,1.3919289901733398,-9.271994841766357,2.5234885498046875
1759160394581596000,5.248595947265625,1.7785925582885742,-9.345167630004882,2.661454420471191
1759160394591653000,5.258653076171875,2.1568764205932616,-9.366116894531249,2.699163096618652
1759160394601710000,5.2687099609375,2.3395839347839353,-9.28860461578369,2.627187409210205
1759160394611767000,5.27876708984375,2.4220342544555664,-9.271097016143798,2.634818927001953
