seconds_elapsed,acc_z,acc_y,acc_x,grav_z,grav_y,grav_x,gyro_z,gyro_y,gyro_x
0.0700,-0.0512,0.0548,0.0060,7.5930,-5.1064,-3.5273,0.0183,-0.0028,-0.0036
0.0800,-0.0320,0.0732,-0.0002,7.5930,-5.1059,-3.5279,0.0229,-0.0072,-0.0038
0.0900,-0.0171,0.0968,0.0014,7.5931,-5.1054,-3.5286,0.0250,-0.0067,-0.0036
0.1000,-0.0103,0.1100,-0.0035,7.5931,-5.1047,-3.5295,0.0232,-0.0033,-0.0022
0.1100,-0.0169,0.1156,-0.0138,7.5931,-5.1041,-3.5305,0.0189,0.0011,0.0010
0.1200,-0.0428,0.1069,-0.0202,7.5931,-5.1033,-3.5315,0.0128,0.0029,0.0044
0.1300,-0.0590,0.0861,-0.0436,7.5933,-5.1025,-3.5321,0.0072,0.0006,0.0084
0.1400,-0.0789,0.0549,-0.0745,7.5940,-5.1015,-3.5322,0.0049,-0.0061,0.0119
0.1500,-0.0831,0.0193,-0.0953,7.5950,-5.1003,-3.5318,0.0048,-0.0126,0.0139
0.1600,-0.0564,0.0082,-0.1034,7.5962,-5.0989,-3.5311,0.0068,-0.0119,0.0151
0.1700,-0.0350,0.0205,-0.1133,7.5974,-5.0974,-3.5308,0.0092,-0.0077,0.0157
0.1800,-0.0234,0.0344,-0.1201,7.5984,-5.0958,-3.5309,0.0103,-0.0044,0.0160
0.1900,-0.0157,0.0447,-0.1122,7.5993,-5.0942,-3.5312,0.0095,-0.0011,0.0167
0.2000,-0.0156,0.0430,-0.1109,7.6001,-5.0926,-3.5318,0.0084,0.0019,0.0168
0.2100,-0.0275,0.0491,-0.1113,7.6009,-5.0910,-3.5324,0.0084,0.0029,0.0170
0.2200,-0.0506,0.0697,-0.0999,7.6017,-5.0894,-3.5331,0.0089,0.0022,0.0171
0.2300,-0.0713,0.0923,-0.0661,7.6024,-5.0879,-3.5338,0.0086,0.0011,0.0156
0.2400,-0.0970,0.1094,-0.0375,7.6031,-5.0865,-3.5343,0.0075,0.0001,0.0119
0.2500,-0.1148,0.1257,-0.0400,7.6035,-5.0856,-3.5347,0.0070,-0.0016,0.0069
0.2600,-0.1040,0.1407,-0.0326,7.6039,-5.0849,-3.5349,0.0061,-0.0030,0.0040
0.2700,-0.0835,0.1308,-0.0285,7.6042,-5.0844,-3.5350,0.0063,-0.0039,0.0032
0.2800,-0.0555,0.1105,-0.0365,7.6045,-5.0839,-3.5351,0.0081,-0.0051,0.0030
0.2900,-0.0230,0.0881,-0.0401,7.6048,-5.0833,-3.5351,0.0080,-0.0059,0.0033
0.3000,-0.0100,0.0642,-0.0642,7.6052,-5.0828,-3.5350,0.0061,-0.0058,0.0018
0.3100,0.0065,0.0505,-0.0834,7.6053,-5.0826,-3.5351,0.0033,-0.0013,-0.0023
0.3200,0.0116,0.0284,-0.0851,7.6050,-5.0829,-3.5353,0.0000,0.0059,-0.0072
0.3300,-0.0056,0.0015,-0.0823,7.6043,-5.0835,-3.5359,-0.0007,0.0081,-0.0106
0.3400,-0.0097,-0.0104,-0.0749,7.6035,-5.0843,-3.5365,0.0005,0.0063,-0.0106
0.3500,-0.0220,-0.0083,-0.0593,7.6028,-5.0850,-3.5370,0.0021,0.0044,-0.0074
0.3600,-0.0372,0.0136,-0.0401,7.6024,-5.0852,-3.5375,0.0034,0.0044,-0.0029
0.3700,-0.0531,0.0309,-0.0216,7.6022,-5.0851,-3.5381,0.0040,0.0046,0.0008
0.3800,-0.0862,0.0296,-0.0158,7.6022,-5.0848,-3.5386,0.0053,0.0006,0.0036
0.3900,-0.1030,0.0475,-0.0279,7.6026,-5.0842,-3.5387,0.0059,-0.0055,0.0062
0.4000,-0.0923,0.0715,-0.0198,7.6033,-5.0834,-3.5383,0.0042,-0.0104,0.0079
0.4100,-0.0646,0.0799,-0.0166,7.6042,-5.0826,-3.5375,0.0018,-0.0128,0.0095
0.4200,-0.0325,0.0867,-0.0294,7.6052,-5.0817,-3.5366,0.0022,-0.0127,0.0106
0.4300,-0.0180,0.0908,-0.0337,7.6061,-5.0809,-3.5360,0.0032,-0.0093,0.0089
0.4400,-0.0104,0.0853,-0.0434,7.6067,-5.0802,-3.5356,0.0028,-0.0060,0.0060
0.4500,-0.0052,0.0860,-0.0456,7.6072,-5.0796,-3.5353,0.0017,-0.0050,0.0059
0.4600,-0.0145,0.1008,-0.0359,7.6077,-5.0791,-3.5350,-0.0004,-0.0031,0.0084
0.4700,-0.0393,0.0998,-0.0269,7.6082,-5.0784,-3.5349,-0.0028,0.0013,0.0112
0.4800,-0.0655,0.0892,-0.0208,7.6087,-5.0776,-3.5351,-0.0040,0.0048,0.0135
0.4900,-0.0752,0.0925,-0.0204,7.6093,-5.0766,-3.5352,-0.0045,0.0020,0.0146
0.5000,-0.0668,0.0991,-0.0117,7.6102,-5.0755,-3.5348,-0.0050,-0.0063,0.0157
0.5100,-0.0525,0.0994,-0.0138,7.6114,-5.0743,-3.5339,-0.0065,-0.0134,0.0156
0.5200,-0.0268,0.0897,-0.0209,7.6126,-5.0733,-3.5326,-0.0074,-0.0130,0.0131
0.5300,0.0081,0.0601,-0.0282,7.6136,-5.0726,-3.5316,-0.0069,-0.0050,0.0103
0.5400,0.0254,0.0252,-0.0452,7.6140,-5.0721,-3.5313,-0.0053,0.0047,0.0082
0.5500,0.0295,0.0100,-0.0515,7.6141,-5.0717,-3.5318,-0.0028,0.0123,0.0071
0.5600,0.0287,0.0105,-0.0533,7.6139,-5.0712,-3.5331,-0.0001,0.0197,0.0057
0.5700,0.0101,0.0238,-0.0397,7.6133,-5.0708,-3.5349,0.0017,0.0256,0.0033
0.5800,-0.0174,0.0300,-0.0212,7.6124,-5.0706,-3.5372,0.0035,0.0290,-0.0004
0.5900,-0.0478,0.0175,-0.0098,7.6112,-5.0705,-3.5398,0.0064,0.0298,-0.0054
0.6000,-0.0732,0.0177,0.0131,7.6098,-5.0708,-3.5424,0.0099,0.0271,-0.0090
0.6100,-0.0788,0.0248,0.0432,7.6085,-5.0710,-3.5449,0.0145,0.0239,-0.0091
0.6200,-0.0724,0.0220,0.0723,7.6072,-5.0710,-3.5476,0.0213,0.0225,-0.0070
0.6300,-0.0589,0.0233,0.0771,7.6061,-5.0705,-3.5506,0.0284,0.0218,-0.0044
0.6400,-0.0250,0.0220,0.0543,7.6052,-5.0697,-3.5539,0.0368,0.0229,-0.0022
0.6500,0.0161,0.0083,0.0191,7.6042,-5.0683,-3.5579,0.0436,0.0278,-0.0004
0.6600,0.0220,0.0162,-0.0020,7.6032,-5.0666,-3.5625,0.0459,0.0323,0.0011
0.6700,0.0018,0.0347,-0.0310,7.6020,-5.0649,-3.5674,0.0468,0.0340,-0.0013
0.6800,-0.0088,0.0397,-0.0698,7.6006,-5.0635,-3.5725,0.0467,0.0357,-0.0070
0.6900,-0.0053,0.0618,-0.0855,7.5987,-5.0626,-3.5777,0.0464,0.0384,-0.0121
0.7000,-0.0110,0.1087,-0.0914,7.5966,-5.0620,-3.5831,0.0447,0.0418,-0.0166
0.7100,-0.0163,0.1615,-0.0630,7.5941,-5.0619,-3.5886,0.0416,0.0446,-0.0212
0.7200,-0.0251,0.1837,-0.0164,7.5912,-5.0622,-3.5941,0.0383,0.0462,-0.0248
0.7300,-0.0465,0.1726,-0.0024,7.5881,-5.0629,-3.5996,0.0375,0.0485,-0.0279
0.7400,-0.0706,0.1470,-0.0026,7.5849,-5.0636,-3.6055,0.0396,0.0510,-0.0267
0.7500,-0.0916,0.1150,-0.0041,7.5819,-5.0640,-3.6114,0.0408,0.0495,-0.0211
0.7600,-0.1019,0.1024,-0.0237,7.5792,-5.0639,-3.6169,0.0392,0.0426,-0.0152
0.7700,-0.0980,0.1066,-0.0539,7.5773,-5.0635,-3.6217,0.0358,0.0333,-0.0088
0.7800,-0.0805,0.1103,-0.0831,7.5759,-5.0627,-3.6255,0.0293,0.0229,-0.0037
0.7900,-0.0587,0.1077,-0.1133,7.5752,-5.0620,-3.6281,0.0206,0.0141,-0.0030
0.8000,-0.0379,0.0868,-0.1439,7.5744,-5.0618,-3.6300,0.0127,0.0132,-0.0079
0.8100,-0.0231,0.0593,-0.1576,7.5732,-5.0622,-3.6318,0.0078,0.0219,-0.0159
0.8200,-0.0234,0.0384,-0.1693,7.5713,-5.0633,-3.6343,0.0076,0.0344,-0.0219
0.8300,-0.0454,0.0323,-0.1668,7.5686,-5.0648,-3.6378,0.0103,0.0450,-0.0245
0.8400,-0.0780,0.0329,-0.1361,7.5657,-5.0661,-3.6420,0.0143,0.0459,-0.0232
0.8500,-0.1056,0.0250,-0.1078,7.5632,-5.0670,-3.6460,0.0204,0.0356,-0.0167
0.8600,-0.1202,0.0331,-0.0821,7.5616,-5.0670,-3.6495,0.0274,0.0224,-0.0073
0.8700,-0.1271,0.0521,-0.0339,7.5608,-5.0661,-3.6523,0.0320,0.0120,0.0008
0.8800,-0.1363,0.0444,-0.0011,7.5607,-5.0646,-3.6546,0.0339,0.0021,0.0049
0.8900,-0.1475,0.0180,-0.0098,7.5611,-5.0629,-3.6561,0.0344,-0.0089,0.0063
0.9000,-0.1489,-0.0051,-0.0390,7.5618,-5.0613,-3.6568,0.0308,-0.0176,0.0037
0.9100,-0.1398,-0.0134,-0.0873,7.5626,-5.0602,-3.6568,0.0240,-0.0240,-0.0032
0.9200,-0.1179,0.0032,-0.1278,7.5631,-5.0601,-3.6559,0.0179,-0.0278,-0.0120
0.9300,-0.0769,0.0497,-0.1459,7.5634,-5.0607,-3.6545,0.0117,-0.0304,-0.0168
0.9400,-0.0285,0.1038,-0.1297,7.5637,-5.0616,-3.6526,0.0051,-0.0299,-0.0137
0.9500,0.0157,0.1217,-0.0930,7.5642,-5.0622,-3.6507,0.0029,-0.0245,-0.0055
0.9600,0.0469,0.1187,-0.0726,7.5648,-5.0621,-3.6494,0.0041,-0.0137,0.0040
0.9700,0.0602,0.1059,-0.0459,7.5655,-5.0614,-3.6492,0.0071,-0.0011,0.0114
0.9800,0.0493,0.0900,-0.0256,7.5660,-5.0601,-3.6499,0.0110,0.0048,0.0151
0.9900,0.0257,0.0956,-0.0368,7.5664,-5.0588,-3.6507,0.0141,0.0043,0.0132
1.0000,0.0158,0.1035,-0.0452,7.5666,-5.0583,-3.6511,0.0156,0.0033,0.0103
1.0100,-0.0064,0.1256,-0.0304,7.5667,-5.0574,-3.6521,0.0189,0.0026,0.0011
1.0200,-0.0081,0.1620,0.0113,7.5663,-5.0570,-3.6535,0.0233,0.0040,-0.0124
1.0300,0.0095,0.1907,0.0498,7.5650,-5.0576,-3.6554,0.0280,0.0113,-0.0286
1.0400,0.0221,0.1844,0.0870,7.5625,-5.0592,-3.6584,0.0349,0.0246,-0.0424
1.0500,0.0222,0.1710,0.1309,7.5590,-5.0612,-3.6628,0.0451,0.0384,-0.0495
1.0600,-0.0021,0.1639,0.1762,7.5549,-5.0631,-3.6687,0.0555,0.0479,-0.0503
1.0700,-0.0354,0.1677,0.2087,7.5507,-5.0644,-3.6756,0.0648,0.0494,-0.0452
1.0800,-0.0572,0.1766,0.2278,7.5469,-5.0650,-3.6826,0.0709,0.0413,-0.0378
1.0900,-0.0769,0.1629,0.2201,7.5439,-5.0648,-3.6889,0.0728,0.0268,-0.0299
1.1000,-0.1016,0.1288,0.1729,7.5420,-5.0640,-3.6939,0.0691,0.0101,-0.0231
1.1100,-0.1106,0.0901,0.1016,7.5407,-5.0632,-3.6976,0.0645,-0.0013,-0.0230
1.1200,-0.0943,0.0508,0.0336,7.5395,-5.0627,-3.7007,0.0630,-0.0005,-0.0286
1.1300,-0.0762,0.0215,-0.0004,7.5377,-5.0628,-3.7043,0.0617,0.0107,-0.0367
1.1400,-0.0583,0.0147,-0.0381,7.5349,-5.0636,-3.7088,0.0630,0.0233,-0.0457
1.1500,-0.0482,0.0318,-0.0901,7.5315,-5.0648,-3.7141,0.0658,0.0295,-0.0469
1.1600,-0.0578,0.0725,-0.1068,7.5281,-5.0657,-3.7197,0.0652,0.0294,-0.0433
1.1700,-0.0664,0.0994,-0.0857,7.5249,-5.0665,-3.7251,0.0639,0.0291,-0.0425
1.1800,-0.0750,0.1009,-0.0587,7.5217,-5.0674,-3.7305,0.0598,0.0275,-0.0409
1.1900,-0.0843,0.0739,-0.0778,7.5190,-5.0681,-3.7349,0.0470,0.0139,-0.0310
1.2000,-0.0892,0.0052,-0.1207,7.5178,-5.0684,-3.7369,0.0301,-0.0124,-0.0138
1.2100,-0.0997,-0.0900,-0.1729,7.5184,-5.0681,-3.7361,0.0154,-0.0374,-0.0003
1.2200,-0.1134,-0.1576,-0.2088,7.5202,-5.0675,-3.7332,0.0028,-0.0498,0.0049
1.2300,-0.1179,-0.1573,-0.2220,7.5224,-5.0673,-3.7292,-0.0063,-0.0556,0.0035
1.2400,-0.1051,-0.1150,-0.2616,7.5246,-5.0675,-3.7243,-0.0100,-0.0632,-0.0023
1.2500,-0.0638,-0.0440,-0.2884,7.5268,-5.0683,-3.7188,-0.0123,-0.0666,-0.0075
1.2600,-0.0144,0.0480,-0.2681,7.5287,-5.0695,-3.7135,-0.0140,-0.0558,-0.0090
1.2700,0.0122,0.1279,-0.2156,7.5298,-5.0707,-3.7095,-0.0128,-0.0339,-0.0103
1.2800,0.0022,0.1696,-0.1582,7.5302,-5.0720,-3.7069,-0.0112,-0.0196,-0.0133
1.2900,-0.0405,0.1778,-0.1196,7.5301,-5.0735,-3.7050,-0.0082,-0.0177,-0.0170
1.3000,-0.0769,0.1827,-0.0826,7.5298,-5.0751,-3.7035,-0.0030,-0.0145,-0.0203
1.3100,-0.1013,0.1951,-0.0450,7.5291,-5.0767,-3.7028,0.0022,-0.0071,-0.0224
1.3200,-0.1162,0.2328,-0.0082,7.5279,-5.0785,-3.7026,0.0015,-0.0006,-0.0257
1.3300,-0.0977,0.2743,-0.0095,7.5263,-5.0807,-3.7028,-0.0046,0.0061,-0.0319
1.3400,-0.0564,0.2728,-0.0333,7.5241,-5.0836,-3.7034,-0.0107,0.0175,-0.0385
1.3500,-0.0118,0.2447,-0.0224,7.5211,-5.0872,-3.7046,-0.0147,0.0305,-0.0444
1.3600,0.0370,0.2196,-0.0123,7.5173,-5.0912,-3.7068,-0.0140,0.0429,-0.0495
1.3700,0.0746,0.1778,0.0264,7.5130,-5.0954,-3.7098,-0.0092,0.0495,-0.0516
1.3800,0.0715,0.1280,0.0797,7.5084,-5.0995,-3.7133,-0.0004,0.0488,-0.0529
1.3900,0.0367,0.1000,0.0980,7.5038,-5.1034,-3.7173,0.0132,0.0493,-0.0575
1.4000,-0.0032,0.1123,0.1005,7.4987,-5.1072,-3.7223,0.0264,0.0550,-0.0633
1.4100,-0.0530,0.1552,0.1205,7.4932,-5.1110,-3.7283,0.0325,0.0625,-0.0675
1.4200,-0.0950,0.1558,0.1552,7.4872,-5.1150,-3.7349,0.0314,0.0690,-0.0695
1.4300,-0.0425,0.1332,0.1512,7.4808,-5.1192,-3.7419,0.0262,0.0818,-0.0689
1.4400,0.1141,0.1232,0.1253,7.4738,-5.1235,-3.7500,0.0212,0.1034,-0.0671
1.4500,0.2483,0.0975,0.1143,7.4660,-5.1278,-3.7596,0.0168,0.1244,-0.0675
1.4600,0.2691,0.1016,0.0872,7.4575,-5.1326,-3.7700,0.0093,0.1308,-0.0717
1.4700,0.2297,0.1491,0.0523,7.4487,-5.1382,-3.7798,-0.0076,0.1258,-0.0782
1.4800,0.1855,0.1693,-0.0384,7.4399,-5.1447,-3.7882,-0.0258,0.1228,-0.0779
1.4900,0.1717,0.1733,-0.1602,7.4314,-5.1513,-3.7958,-0.0440,0.1304,-0.0628
1.5000,0.2228,0.1789,-0.2177,7.4234,-5.1573,-3.8034,-0.0687,0.1541,-0.0398
1.5100,0.2749,0.1814,-0.2673,7.4154,-5.1625,-3.8120,-0.0905,0.1892,-0.0187
1.5200,0.3003,0.2157,-0.2813,7.4064,-5.1673,-3.8229,-0.1053,0.2472,-0.0087
1.5300,0.3846,0.2790,-0.2114,7.3948,-5.1723,-3.8385,-0.1174,0.3286,-0.0155
1.5400,0.5617,0.3402,-0.0768,7.3794,-5.1789,-3.8592,-0.1328,0.4029,-0.0334
1.5500,0.7516,0.3927,0.0202,7.3603,-5.1879,-3.8835,-0.1545,0.4532,-0.0583
1.5600,0.7941,0.4012,-0.0103,7.3378,-5.2001,-3.9096,-0.1811,0.4878,-0.0921
1.5700,0.5774,0.3574,-0.1010,7.3122,-5.2161,-3.9362,-0.2100,0.5112,-0.1332
1.5800,0.2452,0.3138,-0.2128,7.2836,-5.2365,-3.9622,-0.2394,0.5175,-0.1799
1.5900,0.0648,0.2721,-0.3458,7.2522,-5.2612,-3.9869,-0.2648,0.5186,-0.2231
1.6000,0.1278,0.2650,-0.4550,7.2185,-5.2896,-4.0103,-0.2906,0.5322,-0.2490
1.6100,0.3389,0.2607,-0.4934,7.1832,-5.3201,-4.0333,-0.3139,0.5485,-0.2515
1.6200,0.4792,0.2342,-0.5279,7.1476,-5.3513,-4.0553,-0.3273,0.5369,-0.2527
1.6300,0.3692,0.1733,-0.5242,7.1122,-5.3837,-4.0747,-0.3341,0.5006,-0.2770
1.6400,0.1586,0.0523,-0.4591,7.0761,-5.4187,-4.0910,-0.3397,0.4746,-0.3173
1.6500,0.1031,-0.0945,-0.4245,7.0385,-5.4565,-4.1056,-0.3403,0.4648,-0.3509
1.6600,0.2203,-0.2109,-0.4438,6.9998,-5.4957,-4.1194,-0.3272,0.4448,-0.3686
1.6700,0.1858,-0.2724,-0.4604,6.9616,-5.5353,-4.1311,-0.3063,0.3820,-0.3841
1.6800,-0.1497,-0.2442,-0.4818,6.9254,-5.5754,-4.1380,-0.2945,0.2968,-0.4074
1.6900,-0.3253,-0.0839,-0.4822,6.8908,-5.6168,-4.1399,-0.3001,0.2428,-0.4300
1.7000,-0.1501,0.1302,-0.4861,6.8561,-5.6600,-4.1386,-0.3115,0.2313,-0.4517
1.7100,-0.0264,0.2507,-0.6020,6.8194,-5.7055,-4.1367,-0.3228,0.2399,-0.4897
1.7200,-0.0952,0.2271,-0.7585,6.7796,-5.7544,-4.1344,-0.3387,0.2436,-0.5397
1.7300,-0.1576,0.1672,-0.8596,6.7367,-5.8072,-4.1307,-0.3604,0.2433,-0.5890
1.7400,-0.2014,0.1194,-0.8928,6.6907,-5.8641,-4.1250,-0.3853,0.2350,-0.6391
1.7500,-0.1851,0.1058,-0.8380,6.6418,-5.9251,-4.1168,-0.4120,0.2281,-0.6848
1.7600,-0.0486,0.1276,-0.7064,6.5905,-5.9891,-4.1066,-0.4326,0.2236,-0.7104
1.7700,0.1544,0.1785,-0.6238,6.5389,-6.0541,-4.0938,-0.4456,0.1866,-0.7034
1.7800,0.2959,0.2515,-0.5527,6.4888,-6.1185,-4.0777,-0.4477,0.1517,-0.7055
1.7900,0.2417,0.3145,-0.5029,6.4384,-6.1833,-4.0598,-0.4281,0.1320,-0.7358
1.8000,0.1337,0.3032,-0.5935,6.3869,-6.2484,-4.0415,-0.3859,0.0883,-0.7648
1.8100,0.0557,0.2065,-0.6674,6.3356,-6.3128,-4.0221,-0.3446,0.0237,-0.7865
1.8200,0.0882,0.0898,-0.5810,6.2856,-6.3765,-4.0000,-0.3344,-0.0411,-0.7861
1.8300,0.3322,-0.0238,-0.4441,6.2389,-6.4389,-3.9731,-0.3530,-0.1154,-0.7580
1.8400,0.5317,-0.1369,-0.3364,6.1974,-6.4996,-3.9389,-0.3896,-0.2071,-0.7116
1.8500,0.5725,-0.2050,-0.2334,6.1624,-6.5583,-3.8964,-0.4256,-0.2995,-0.6633
1.8600,0.5300,-0.1842,-0.0702,6.1321,-6.6158,-3.8468,-0.4612,-0.3528,-0.6407
1.8700,0.3795,-0.1130,0.1325,6.1027,-6.6740,-3.7926,-0.5090,-0.3516,-0.6471
1.8800,0.2295,-0.0518,0.2469,6.0715,-6.7343,-3.7356,-0.5612,-0.3316,-0.6615
1.8900,0.2105,-0.0520,0.2789,6.0379,-6.7968,-3.6764,-0.6082,-0.3051,-0.6734
1.9000,0.1549,-0.1022,0.2782,6.0020,-6.8609,-3.6155,-0.6503,-0.2785,-0.6859
1.9100,0.0516,-0.1422,0.2476,5.9637,-6.9265,-3.5532,-0.6807,-0.2554,-0.6950
1.9200,0.1063,-0.1790,0.1649,5.9237,-6.9924,-3.4905,-0.6889,-0.2355,-0.6960
1.9300,0.1972,-0.2367,0.0300,5.8826,-7.0575,-3.4286,-0.6795,-0.2237,-0.6927
1.9400,0.2290,-0.2700,-0.0738,5.8409,-7.1212,-3.3676,-0.6643,-0.2207,-0.6898
1.9500,0.2073,-0.2439,-0.1340,5.7988,-7.1837,-3.3070,-0.6551,-0.2281,-0.6911
1.9600,0.1095,-0.1677,-0.1473,5.7563,-7.2455,-3.2459,-0.6519,-0.2429,-0.6933
1.9700,0.0678,-0.0521,-0.1365,5.7137,-7.3064,-3.1839,-0.6519,-0.2546,-0.6887
1.9800,0.0591,0.0862,-0.1621,5.6714,-7.3664,-3.1208,-0.6549,-0.2630,-0.6821
1.9900,-0.0195,0.2004,-0.1944,5.6290,-7.4255,-3.0568,-0.6634,-0.2675,-0.6819
2.0000,-0.0385,0.2610,-0.1824,5.5858,-7.4845,-2.9915,-0.6790,-0.2641,-0.6886
2.0100,-0.0063,0.2720,-0.1832,5.5412,-7.5437,-2.9249,-0.6951,-0.2613,-0.6988
2.0200,0.0568,0.2479,-0.1974,5.4954,-7.6031,-2.8569,-0.7068,-0.2659,-0.7052
2.0300,0.1329,0.1901,-0.1813,5.4487,-7.6622,-2.7874,-0.7165,-0.2737,-0.7101
2.0400,0.1029,0.1631,-0.1394,5.4012,-7.7212,-2.7162,-0.7305,-0.2860,-0.7183
2.0500,0.0132,0.2079,-0.0958,5.3528,-7.7802,-2.6426,-0.7477,-0.3073,-0.7257
2.0600,-0.0423,0.2887,-0.0887,5.3040,-7.8389,-2.5663,-0.7601,-0.3296,-0.7282
2.0700,-0.0604,0.3476,-0.0851,5.2550,-7.8970,-2.4880,-0.7666,-0.3412,-0.7271
2.0800,-0.0959,0.3184,-0.0862,5.2054,-7.9542,-2.4089,-0.7705,-0.3364,-0.7288
2.0900,-0.1572,0.2443,-0.0950,5.1543,-8.0108,-2.3299,-0.7738,-0.3149,-0.7397
2.1000,-0.1824,0.1563,-0.0674,5.1010,-8.0671,-2.2515,-0.7811,-0.2965,-0.7501
2.1100,-0.1381,0.0628,-0.0534,5.0466,-8.1229,-2.1720,-0.7974,-0.3050,-0.7493
2.1200,-0.0573,0.0003,-0.0692,4.9923,-8.1779,-2.0894,-0.8222,-0.3386,-0.7450
2.1300,0.0201,-0.0428,-0.0949,4.9384,-8.2323,-2.0024,-0.8516,-0.3870,-0.7436
2.1400,0.0528,-0.0672,-0.0768,4.8846,-8.2861,-1.9098,-0.8884,-0.4350,-0.7464
2.1500,0.0201,-0.0882,-0.0073,4.8303,-8.3398,-1.8119,-0.9296,-0.4600,-0.7543
2.1600,-0.0426,-0.1279,0.0384,4.7745,-8.3932,-1.7099,-0.9644,-0.4585,-0.7646
2.1700,-0.1001,-0.1704,0.0536,4.7170,-8.4462,-1.6057,-0.9816,-0.4518,-0.7724
2.1800,-0.1814,-0.1467,0.0707,4.6577,-8.4982,-1.5008,-0.9821,-0.4454,-0.7816
2.1900,-0.2662,-0.0733,0.1016,4.5968,-8.5491,-1.3962,-0.9732,-0.4522,-0.7896
2.2000,-0.3371,-0.0089,0.0628,4.5349,-8.5984,-1.2914,-0.9552,-0.4904,-0.7887
2.2100,-0.3581,0.1262,0.0255,4.4731,-8.6459,-1.1858,-0.9487,-0.5305,-0.7841
2.2200,-0.2947,0.3428,0.0881,4.4113,-8.6916,-1.0780,-0.9700,-0.5549,-0.7738
2.2300,-0.1994,0.5286,0.1025,4.3502,-8.7354,-0.9664,-1.0082,-0.5768,-0.7522
2.2400,-0.1262,0.6582,0.0833,4.2903,-8.7770,-0.8498,-1.0637,-0.5913,-0.7287
2.2500,-0.1031,0.7500,0.1493,4.2312,-8.8167,-0.7272,-1.1409,-0.5846,-0.7152
2.2600,-0.1679,0.8003,0.2064,4.1715,-8.8547,-0.5973,-1.2274,-0.5801,-0.7172
2.2700,-0.3105,0.7998,0.1702,4.1100,-8.8916,-0.4594,-1.3149,-0.5975,-0.7339
2.2800,-0.4048,0.7571,0.2410,4.0457,-8.9274,-0.3121,-1.4165,-0.6278,-0.7544
2.2900,-0.4366,0.7298,0.3880,3.9786,-8.9616,-0.1532,-1.5351,-0.6719,-0.7694
2.3000,-0.4729,0.7480,0.4339,3.9092,-8.9933,0.0185,-1.6493,-0.7353,-0.7774
2.3100,-0.5311,0.6945,0.3453,3.8378,-9.0216,0.2024,-1.7422,-0.8140,-0.7773
2.3200,-0.5497,0.5658,0.2084,3.7649,-9.0458,0.3965,-1.8141,-0.8825,-0.7707
2.3300,-0.4961,0.5091,0.1101,3.6905,-9.0654,0.5979,-1.8658,-0.9149,-0.7636
2.3400,-0.4247,0.4527,-0.0408,3.6148,-9.0800,0.8030,-1.8875,-0.9111,-0.7548
2.3500,-0.3744,0.3120,-0.2480,3.5382,-9.0899,1.0072,-1.8704,-0.8848,-0.7455
2.3600,-0.3443,-0.0036,-0.2927,3.4609,-9.0953,1.2070,-1.8304,-0.8537,-0.7341
2.3700,-0.2825,-0.4594,-0.0791,3.3833,-9.0969,1.4001,-1.7567,-0.8102,-0.7258
2.3800,-0.2123,-0.9200,0.0525,3.3049,-9.0963,1.5798,-1.5885,-0.7363,-0.7386
2.3900,-0.2764,-1.2470,0.0031,3.2243,-9.0968,1.7364,-1.3210,-0.6757,-0.7666
2.4000,-0.5010,-1.4001,-0.1655,3.1409,-9.1007,1.8646,-1.0066,-0.6831,-0.7857
2.4100,-0.6677,-1.3830,-0.2991,3.0552,-9.1087,1.9658,-0.7312,-0.7416,-0.7831
2.4200,-0.7099,-1.1010,-0.1815,2.9687,-9.1191,2.0486,-0.5792,-0.8148,-0.7619
2.4300,-0.7083,-0.5998,-0.0363,2.8822,-9.1294,2.1248,-0.5526,-0.8715,-0.7389
2.4400,-0.5934,-0.1264,-0.0104,2.7958,-9.1379,2.2021,-0.5894,-0.8648,-0.7301
2.4500,-0.3339,0.1007,-0.0516,2.7099,-9.1445,2.2807,-0.6241,-0.7731,-0.7386
2.4600,-0.1266,0.2114,-0.2153,2.6247,-9.1500,2.3570,-0.6256,-0.6180,-0.7640
2.4700,-0.0162,0.3214,-0.4260,2.5402,-9.1553,2.4280,-0.6124,-0.4677,-0.7892
2.4800,0.0651,0.4238,-0.5282,2.4567,-9.1604,2.4940,-0.6003,-0.3481,-0.8039
2.4900,0.1360,0.4588,-0.5368,2.3746,-9.1650,2.5556,-0.5803,-0.2413,-0.8150
2.5000,0.1529,0.5137,-0.4725,2.2940,-9.1693,2.6132,-0.5681,-0.1675,-0.8196
2.5100,0.0773,0.6670,-0.3248,2.2145,-9.1727,2.6693,-0.5741,-0.1498,-0.8140
2.5200,0.0056,0.7891,-0.1720,2.1355,-9.1747,2.7263,-0.5811,-0.1919,-0.7991
2.5300,0.0209,0.7483,-0.0238,2.0564,-9.1753,2.7844,-0.5739,-0.2576,-0.7804
2.5400,0.1813,0.5053,0.1650,1.9772,-9.1749,2.8424,-0.5565,-0.3099,-0.7607
2.5500,0.4000,0.2814,0.2863,1.8987,-9.1737,2.8993,-0.5398,-0.3504,-0.7327
2.5600,0.5615,0.2583,0.2497,1.8222,-9.1713,2.9555,-0.5291,-0.3875,-0.6901
2.5700,0.6245,0.3316,0.1182,1.7489,-9.1675,3.0110,-0.5181,-0.4118,-0.6376
2.5800,0.6040,0.3907,-0.0475,1.6800,-9.1625,3.0652,-0.5025,-0.4109,-0.5834
2.5900,0.5309,0.4622,-0.2376,1.6164,-9.1564,3.1171,-0.4807,-0.3891,-0.5261
2.6000,0.4171,0.5749,-0.4444,1.5590,-9.1496,3.1659,-0.4515,-0.3515,-0.4641
2.6100,0.2695,0.6752,-0.6047,1.5087,-9.1424,3.2109,-0.4179,-0.2825,-0.4106
2.6200,0.1344,0.6727,-0.6745,1.4650,-9.1354,3.2508,-0.3743,-0.1657,-0.3832
2.6300,0.0310,0.5540,-0.6536,1.4268,-9.1295,3.2843,-0.3283,-0.0126,-0.3882
2.6400,-0.0799,0.3893,-0.5431,1.3921,-9.1247,3.3125,-0.3020,0.1277,-0.4123
2.6500,-0.1485,0.1250,-0.4218,1.3589,-9.1208,3.3368,-0.2781,0.2184,-0.4413
2.6600,-0.1957,-0.1645,-0.3755,1.3249,-9.1182,3.3574,-0.2416,0.2489,-0.4783
2.6700,-0.3063,-0.2990,-0.4085,1.2868,-9.1173,3.3748,-0.2030,0.2146,-0.5266
2.6800,-0.4034,-0.3046,-0.5216,1.2421,-9.1182,3.3890,-0.1545,0.1337,-0.5797
2.6900,-0.4170,-0.2530,-0.6548,1.1896,-9.1213,3.3996,-0.0979,0.0349,-0.6270
2.7000,-0.3288,-0.1559,-0.6934,1.1300,-9.1263,3.4063,-0.0478,-0.0603,-0.6602
2.7100,-0.1934,-0.0665,-0.6429,1.0763,-9.1316,3.4096,-0.0170,-0.1271,-0.6740
2.7200,-0.1338,-0.0467,-0.6110,1.0540,-9.1339,3.4105,-0.0075,-0.1493,-0.6751
2.7300,0.0061,-0.0470,-0.4923,0.9976,-9.1396,3.4119,0.0054,-0.1857,-0.6709
2.7400,0.1612,-0.0611,-0.3018,0.9298,-9.1461,3.4137,-0.0009,-0.2072,-0.6513
2.7500,0.2981,-0.1952,-0.1259,0.8645,-9.1515,3.4164,-0.0144,-0.2117,-0.6070
2.7600,0.4214,-0.4373,0.0010,0.8047,-9.1556,3.4202,-0.0334,-0.2104,-0.5318
2.7700,0.5387,-0.5171,0.1149,0.7528,-9.1575,3.4267,-0.0711,-0.2080,-0.4352
2.7800,0.6608,-0.5562,0.1525,0.7108,-9.1573,3.4363,-0.1008,-0.1850,-0.3273
2.7900,0.7835,-0.6384,0.0703,0.6803,-9.1557,3.4468,-0.0995,-0.1239,-0.2196
2.8000,0.8954,-0.6198,-0.0177,0.6618,-9.1538,3.4554,-0.0742,-0.0065,-0.1334
2.8100,0.9736,-0.5081,-0.0497,0.6550,-9.1525,3.4601,-0.0385,0.1656,-0.0754
2.8200,0.9963,-0.3647,-0.0123,0.6593,-9.1522,3.4603,-0.0066,0.3729,-0.0362
2.8300,0.9897,-0.1999,0.1254,0.6743,-9.1522,3.4572,-0.0013,0.5927,-0.0021
2.8400,0.9230,-0.0587,0.2582,0.7000,-9.1517,3.4534,-0.0232,0.7868,0.0415
2.8500,0.7592,-0.0246,0.2683,0.7365,-9.1499,3.4506,-0.0515,0.9303,0.1031
2.8600,0.5421,-0.0722,0.2113,0.7833,-9.1466,3.4491,-0.0765,1.0189,0.1769
2.8700,0.2796,-0.1071,0.1088,0.8389,-9.1420,3.4481,-0.0839,1.0617,0.2448
2.8800,0.0271,-0.1274,0.0065,0.9008,-9.1370,3.4458,-0.0680,1.0822,0.2877
2.8900,-0.1855,-0.1308,0.0061,0.9652,-9.1322,3.4411,-0.0510,1.0799,0.2915
2.9000,-0.4498,-0.0620,0.0340,1.0269,-9.1277,3.4350,-0.0489,1.0280,0.2519
2.9100,-0.7598,0.0407,0.0034,1.0806,-9.1236,3.4297,-0.0603,0.9125,0.1819
2.9200,-1.0188,0.0871,-0.0456,1.1223,-9.1196,3.4269,-0.0797,0.7415,0.1033
2.9300,-1.1484,0.0152,-0.0999,1.1509,-9.1158,3.4276,-0.0938,0.5495,0.0362
2.9400,-1.1216,-0.1416,-0.1844,1.1681,-9.1124,3.4307,-0.0881,0.3893,-0.0103
2.9500,-0.9519,-0.2590,-0.2752,1.1775,-9.1102,3.4334,-0.0555,0.3068,-0.0392
2.9600,-0.6628,-0.3161,-0.3119,1.1838,-9.1097,3.4325,-0.0044,0.3148,-0.0520
2.9700,-0.3166,-0.3133,-0.2383,1.1911,-9.1110,3.4266,0.0412,0.3789,-0.0465
2.9800,-0.0298,-0.2020,-0.1174,1.2021,-9.1133,3.4167,0.0630,0.4523,-0.0241
2.9900,0.1506,-0.0270,-0.0171,1.2179,-9.1156,3.4048,0.0663,0.5113,0.0079
3.0000,0.2276,0.1488,0.0742,1.2384,-9.1175,3.3924,0.0593,0.5451,0.0433
3.0100,0.2228,0.2558,0.1653,1.2628,-9.1185,3.3807,0.0449,0.5540,0.0797
3.0200,0.1780,0.2092,0.2592,1.2906,-9.1185,3.3701,0.0326,0.5510,0.1192
3.0300,0.1504,-0.0208,0.3595,1.3222,-9.1175,3.3604,0.0223,0.5416,0.1702
3.0400,0.1216,-0.2414,0.4305,1.3587,-9.1155,3.3514,0.0165,0.5403,0.2270
3.0500,0.0275,-0.2520,0.4277,1.4002,-9.1126,3.3421,0.0207,0.5614,0.2725
3.0600,-0.1092,-0.1427,0.4098,1.4460,-9.1093,3.3316,0.0272,0.5770,0.3069
3.0700,-0.2970,-0.0431,0.4285,1.4944,-9.1055,3.3205,0.0297,0.5558,0.3323
3.0800,-0.5225,0.0694,0.4695,1.5431,-9.1014,3.3097,0.0290,0.5021,0.3430
3.0900,-0.7323,0.2031,0.5252,1.5899,-9.0968,3.2999,0.0225,0.4405,0.3372
3.1000,-0.8998,0.2900,0.6050,1.6339,-9.0920,3.2918,0.0069,0.3893,0.3212
3.1100,-1.0237,0.3175,0.6733,1.6744,-9.0868,3.2859,-0.0125,0.3452,0.2981
3.1200,-1.1102,0.3326,0.6634,1.7110,-9.0812,3.2823,-0.0278,0.2950,0.2713
3.1300,-1.1568,0.3746,0.5675,1.7431,-9.0757,3.2808,-0.0410,0.2259,0.2438
3.1400,-1.1534,0.4443,0.4122,1.7702,-9.0700,3.2819,-0.0550,0.1399,0.2164
3.1500,-1.1007,0.5144,0.2076,1.7918,-9.0644,3.2858,-0.0671,0.0530,0.1877
3.1600,-1.0442,0.5686,0.0066,1.8078,-9.0589,3.2922,-0.0779,-0.0319,0.1568
3.1700,-1.0065,0.5569,-0.1380,1.8182,-9.0536,3.3011,-0.0865,-0.1224,0.1255
3.1800,-0.9552,0.4312,-0.2319,1.8225,-9.0485,3.3125,-0.0944,-0.2205,0.0951
3.1900,-0.8885,0.2351,-0.2716,1.8207,-9.0437,3.3266,-0.1045,-0.3240,0.0648
3.2000,-0.8094,0.0507,-0.3274,1.8125,-9.0394,3.3428,-0.1001,-0.4060,0.0258
3.2100,-0.6628,-0.1096,-0.4020,1.7984,-9.0363,3.3586,-0.0760,-0.4373,-0.0202
3.2200,-0.4198,-0.2315,-0.3746,1.7802,-9.0348,3.3725,-0.0581,-0.4275,-0.0536
3.2300,-0.1420,-0.3191,-0.2644,1.7607,-9.0338,3.3853,-0.0636,-0.4023,-0.0616
3.2400,0.1300,-0.4182,-0.1907,1.7426,-9.0323,3.3986,-0.0785,-0.3672,-0.0465
3.2500,0.3766,-0.4958,-0.2064,1.7279,-9.0302,3.4118,-0.0800,-0.3052,-0.0220
3.2600,0.5809,-0.4947,-0.2559,1.7181,-9.0279,3.4228,-0.0621,-0.2070,0.0019
3.2700,0.7077,-0.4058,-0.2862,1.7144,-9.0259,3.4300,-0.0391,-0.0931,0.0296
3.2800,0.7624,-0.2720,-0.2818,1.7173,-9.0239,3.4336,-0.0267,0.0025,0.0682
3.2900,0.7553,-0.1165,-0.2727,1.7268,-9.0215,3.4354,-0.0254,0.0591,0.1161
3.3000,0.6673,0.0141,-0.2529,1.7419,-9.0181,3.4367,-0.0299,0.0693,0.1631
3.3100,0.5141,0.0729,-0.2007,1.7605,-9.0136,3.4388,-0.0381,0.0364,0.2019
3.3200,0.3280,0.0920,-0.1271,1.7801,-9.0083,3.4425,-0.0471,-0.0158,0.2203
3.3300,0.1411,0.0860,-0.0240,1.7983,-9.0027,3.4479,-0.0532,-0.0671,0.2090
3.3400,-0.0138,0.0608,0.0758,1.8126,-8.9973,3.4546,-0.0579,-0.1169,0.1748
3.3500,-0.0957,0.0441,0.1337,1.8214,-8.9924,3.4626,-0.0625,-0.1625,0.1273
3.3600,-0.1122,0.0566,0.1297,1.8245,-8.9883,3.4717,-0.0653,-0.1970,0.0804
3.3700,-0.0675,0.0930,0.0535,1.8229,-8.9849,3.4813,-0.0602,-0.2217,0.0485
3.3800,0.0023,0.1621,-0.0654,1.8184,-8.9822,3.4906,-0.0502,-0.2463,0.0382
3.3900,0.0588,0.1995,-0.1225,1.8131,-8.9797,3.4997,-0.0463,-0.2746,0.0484
3.4000,0.0911,0.1676,-0.1294,1.8078,-8.9772,3.5087,-0.0335,-0.3072,0.0570
3.4100,0.0369,0.1505,-0.1043,1.8015,-8.9752,3.5172,-0.0245,-0.3290,0.0482
3.4200,0.0332,0.0982,0.0756,1.7934,-8.9736,3.5255,-0.0296,-0.3042,0.0222
3.4300,0.0989,0.0886,0.1949,1.7840,-8.9725,3.5330,-0.0268,-0.2356,-0.0208
3.4400,0.1118,0.1307,0.1631,1.7729,-8.9724,3.5387,-0.0197,-0.1757,-0.0644
3.4500,0.1141,0.1035,0.1175,1.7598,-8.9732,3.5433,-0.0153,-0.1698,-0.0881
3.4600,0.1525,0.0369,0.0157,1.7449,-8.9743,3.5478,-0.0103,-0.2121,-0.0880
3.4700,0.2533,-0.0210,-0.1146,1.7294,-8.9755,3.5524,-0.0004,-0.2550,-0.0682
3.4800,0.3791,-0.0492,-0.2140,1.7155,-8.9767,3.5563,0.0126,-0.2481,-0.0379
3.4900,0.5017,-0.0657,-0.2567,1.7059,-8.9778,3.5579,0.0315,-0.1680,-0.0085
3.5000,0.5542,-0.0411,-0.2749,1.7026,-8.9794,3.5557,0.0573,-0.0420,0.0188
3.5100,0.4949,0.0259,-0.2619,1.7062,-8.9812,3.5492,0.0776,0.0689,0.0476
3.5200,0.3413,0.0835,-0.1974,1.7151,-8.9831,3.5402,0.0860,0.1127,0.0745
3.5300,0.1151,0.1154,-0.1029,1.7264,-8.9847,3.5306,0.0857,0.0852,0.0922
3.5400,-0.1079,0.0953,0.0219,1.7369,-8.9859,3.5223,0.0769,0.0206,0.0913
3.5500,-0.2697,0.0128,0.1610,1.7435,-8.9870,3.5163,0.0642,-0.0497,0.0650
3.5600,-0.3489,-0.0767,0.2673,1.7448,-8.9884,3.5122,0.0569,-0.0981,0.0227
3.5700,-0.3102,-0.1245,0.3129,1.7412,-8.9903,3.5091,0.0525,-0.1123,-0.0182
3.5800,-0.2058,-0.0262,0.2862,1.7343,-8.9925,3.5068,0.0380,-0.1135,-0.0436
3.5900,-0.1302,0.1429,0.1854,1.7258,-8.9943,3.5062,0.0193,-0.1264,-0.0493
3.6000,-0.1041,0.1962,0.0665,1.7166,-8.9957,3.5073,0.0121,-0.1542,-0.0433
3.6100,-0.0980,0.1671,-0.0181,1.7070,-8.9968,3.5090,0.0167,-0.1862,-0.0354
3.6200,-0.1156,0.1372,-0.0444,1.6970,-8.9981,3.5106,0.0214,-0.2089,-0.0339
3.6300,-0.1482,0.1275,-0.0345,1.6861,-8.9995,3.5123,0.0206,-0.2175,-0.0422
3.6400,-0.1743,0.1310,-0.0552,1.6739,-9.0011,3.5142,0.0206,-0.2205,-0.0560
3.6500,-0.1902,0.1217,-0.0984,1.6604,-9.0029,3.5158,0.0262,-0.2275,-0.0682
3.6600,-0.1942,0.0941,-0.1426,1.6455,-9.0053,3.5167,0.0389,-0.2413,-0.0776
3.6700,-0.1941,0.0738,-0.1824,1.6292,-9.0084,3.5164,0.0591,-0.2510,-0.0898
3.6800,-0.1725,0.0580,-0.1767,1.6115,-9.0126,3.5138,0.0879,-0.2385,-0.1086
3.6900,-0.1218,0.0357,-0.1258,1.5927,-9.0182,3.5080,0.1187,-0.2051,-0.1344
3.7000,-0.0665,0.0350,-0.0620,1.5725,-9.0251,3.4993,0.1382,-0.1720,-0.1640
3.7100,-0.0163,0.0527,0.0053,1.5506,-9.0329,3.4888,0.1456,-0.1543,-0.1937
3.7200,0.0516,0.0525,0.0530,1.5263,-9.0413,3.4778,0.1476,-0.1498,-0.2222
3.7300,0.1588,0.0041,0.0692,1.4999,-9.0500,3.4666,0.1478,-0.1455,-0.2449
3.7400,0.2954,-0.0880,0.0623,1.4724,-9.0589,3.4552,0.1479,-0.1323,-0.2534
3.7500,0.4240,-0.1452,0.0203,1.4455,-9.0677,3.4434,0.1500,-0.1088,-0.2429
3.7600,0.5107,-0.1437,-0.0582,1.4214,-9.0763,3.4309,0.1532,-0.0751,-0.2117
3.7700,0.5374,-0.1370,-0.1347,1.4022,-9.0842,3.4177,0.1538,-0.0394,-0.1624
3.7800,0.5013,-0.1474,-0.1533,1.3893,-9.0913,3.4042,0.1496,-0.0049,-0.1027
3.7900,0.4280,-0.1839,-0.1278,1.3830,-9.0973,3.3906,0.1423,0.0339,-0.0470
3.8000,0.3241,-0.2310,-0.1034,1.3826,-9.1025,3.3770,0.1400,0.0765,-0.0067
3.8100,0.1796,-0.2420,-0.0977,1.3864,-9.1072,3.3627,0.1427,0.1152,0.0137
3.8200,0.0419,-0.1784,-0.1143,1.3922,-9.1118,3.3477,0.1441,0.1337,0.0168
3.8300,-0.0877,-0.0904,-0.1578,1.3976,-9.1165,3.3327,0.1438,0.1175,0.0079
3.8400,-0.2174,-0.0066,-0.1963,1.4007,-9.1213,3.3183,0.1419,0.0635,-0.0088
3.8500,-0.3109,0.0785,-0.1834,1.3999,-9.1261,3.3052,0.1345,-0.0157,-0.0280
3.8600,-0.3574,0.1175,-0.1121,1.3947,-9.1309,3.2944,0.1177,-0.0997,-0.0464
3.8700,-0.3411,0.0956,-0.0113,1.3851,-9.1352,3.2864,0.0964,-0.1658,-0.0646
3.8800,-0.2745,0.0336,0.0641,1.3723,-9.1390,3.2811,0.0751,-0.1971,-0.0817
3.8900,-0.1698,-0.0274,0.1101,1.3577,-9.1424,3.2779,0.0551,-0.1930,-0.0936
3.9000,-0.0416,-0.0646,0.1164,1.3428,-9.1452,3.2760,0.0387,-0.1677,-0.0995
3.9100,0.0639,-0.0607,0.0980,1.3288,-9.1476,3.2751,0.0247,-0.1356,-0.0958
3.9200,0.1354,-0.0370,0.0764,1.3166,-9.1494,3.2749,0.0141,-0.1086,-0.0805
3.9300,0.1656,-0.0050,0.0604,1.3069,-9.1507,3.2753,0.0083,-0.0957,-0.0584
3.9400,0.1690,0.0443,0.0588,1.2995,-9.1515,3.2759,0.0059,-0.0946,-0.0329
3.9500,0.1658,0.0767,0.0703,1.2945,-9.1520,3.2766,0.0050,-0.0968,-0.0082
3.9600,0.1580,0.0680,0.0989,1.2915,-9.1521,3.2775,0.0028,-0.0920,0.0108
3.9700,0.1665,0.0240,0.1275,1.2903,-9.1519,3.2785,-0.0007,-0.0762,0.0227
3.9800,0.1719,-0.0315,0.1355,1.2906,-9.1515,3.2794,-0.0018,-0.0529,0.0270
3.9900,0.1542,-0.0771,0.1340,1.2917,-9.1511,3.2802,-0.0015,-0.0271,0.0248
4.0000,0.1214,-0.0882,0.1353,1.2932,-9.1507,3.2806,-0.0039,-0.0032,0.0173
4.0100,0.0863,-0.0655,0.1095,1.2945,-9.1505,3.2808,-0.0032,0.0166,0.0057
4.0200,0.0394,-0.0212,0.0588,1.2953,-9.1504,3.2806,0.0004,0.0321,-0.0064
4.0300,-0.0211,0.0408,0.0070,1.2953,-9.1507,3.2799,0.0039,0.0396,-0.0177
4.0400,-0.0923,0.0611,-0.0493,1.2944,-9.1512,3.2788,0.0077,0.0347,-0.0281
4.0500,-0.1851,0.0491,-0.1053,1.2924,-9.1519,3.2777,0.0088,0.0216,-0.0371
4.0600,-0.2717,0.0389,-0.1336,1.2890,-9.1527,3.2767,0.0089,0.0032,-0.0449
4.0700,-0.3136,0.0192,-0.1080,1.2843,-9.1536,3.2759,0.0088,-0.0107,-0.0533
4.0800,-0.3056,0.0024,-0.0524,1.2787,-9.1547,3.2752,0.0104,-0.0181,-0.0589
4.0900,-0.2498,-0.0092,0.0019,1.2727,-9.1558,3.2744,0.0125,-0.0200,-0.0567
4.1000,-0.1234,-0.0005,0.0298,1.2673,-9.1569,3.2735,0.0100,-0.0056,-0.0499
4.1100,0.0345,0.0095,0.0265,1.2634,-9.1577,3.2728,0.0035,0.0195,-0.0391
4.1200,0.1794,-0.0457,-0.0036,1.2616,-9.1581,3.2722,-0.0013,0.0460,-0.0239
4.1300,0.2595,-0.1133,-0.0624,1.2619,-9.1583,3.2717,-0.0029,0.0721,-0.0099
4.1400,0.2608,-0.1055,-0.1456,1.2640,-9.1582,3.2710,-0.0057,0.0905,-0.0031
4.1500,0.1778,-0.1050,-0.2206,1.2669,-9.1581,3.2702,-0.0017,0.0947,-0.0021
4.1600,0.0530,-0.0840,-0.2466,1.2694,-9.1583,3.2687,0.0087,0.0836,-0.0064
4.1700,-0.0544,-0.0233,-0.2356,1.2706,-9.1589,3.2665,0.0170,0.0592,-0.0175
4.1800,-0.1473,-0.0259,-0.1889,1.2699,-9.1599,3.2640,0.0263,0.0218,-0.0268
4.1900,-0.1501,-0.0483,-0.1095,1.2674,-9.1612,3.2613,0.0273,0.0016,-0.0360
4.2000,-0.0955,-0.0357,-0.0717,1.2639,-9.1626,3.2589,0.0245,0.0000,-0.0417
4.2100,-0.0500,-0.0371,-0.0802,1.2601,-9.1639,3.2567,0.0250,-0.0028,-0.0371
4.2200,0.0039,-0.0341,-0.0675,1.2571,-9.1651,3.2545,0.0218,0.0041,-0.0259
4.2300,0.0374,0.0015,-0.0557,1.2555,-9.1660,3.2526,0.0173,0.0147,-0.0147
4.2400,0.0138,0.0373,-0.0731,1.2550,-9.1666,3.2508,0.0147,0.0263,-0.0090
4.2500,-0.0386,0.0673,-0.0978,1.2553,-9.1672,3.2491,0.0153,0.0360,-0.0080
4.2600,-0.0933,0.0658,-0.1015,1.2555,-9.1679,3.2470,0.0186,0.0366,-0.0127
4.2700,-0.0984,0.0583,-0.0729,1.2552,-9.1687,3.2450,0.0106,0.0500,-0.0252
4.2800,-0.0621,0.0327,-0.0626,1.2544,-9.1693,3.2436,0.0019,0.0670,-0.0308
4.2900,0.0312,-0.0639,-0.0313,1.2554,-9.1697,3.2421,0.0105,0.0978,-0.0014
4.3000,0.1710,-0.1348,0.0347,1.2618,-9.1699,3.2391,0.0180,0.1617,0.0484
4.3100,0.1904,-0.1116,0.0543,1.2743,-9.1696,3.2351,0.0166,0.2203,0.0822
4.3200,0.1103,-0.0705,0.0133,1.2901,-9.1689,3.2306,0.0135,0.2524,0.0891
4.3300,0.0178,-0.0553,-0.0374,1.3060,-9.1683,3.2261,0.0100,0.2589,0.0731
4.3400,-0.0415,-0.0393,-0.0501,1.3196,-9.1677,3.2221,0.0062,0.2363,0.0472
4.3500,-0.1049,-0.0592,-0.0687,1.3293,-9.1675,3.2188,0.0086,0.1614,0.0199
4.3600,-0.2402,-0.0781,-0.0716,1.3321,-9.1678,3.2167,0.0111,0.0132,-0.0278
4.3700,-0.3642,-0.0327,-0.0612,1.3235,-9.1689,3.2171,0.0023,-0.1758,-0.1031
