time,seconds_elapsed,z,y,x
1759335072210190300,0.0761904296875,3.080399990081787,-3.0607998371124268,8.792777061462402
1759335072240190200,0.106190185546875,1.4997271299362183,-3.7805275917053223,8.923480033874512
1759335072250191000,0.116191162109375,0.9885165691375732,-4.054337501525879,8.874411582946777
1759335072260191200,0.126191162109375,0.49618253111839294,-4.34478759765625,8.777623176574707
1759335072270191000,0.136191162109375,0.3850982189178467,-4.546962738037109,8.680251121520996
1759335072280191200,0.146191162109375,0.3375064432621002,-4.710794925689697,8.594438552856445
1759335072290191000,0.156191162109375,0.3398410379886627,-4.835626602172852,8.524748802185059
1759335072300191200,0.166191162109375,0.37644436955451965,-4.920069694519043,8.474749565124512
1759335072310190300,0.1761904296875,0.43525078892707825,-4.968438625335693,8.443665504455566
1759335072320190200,0.186190185546875,0.515623152256012,-4.992193222045898,8.425098419189453
1759335072330190300,0.1961904296875,0.6123954057693481,-5.005529403686523,8.41069507598877
1759335072340190200,0.206190185546875,0.712577760219574,-5.016806125640869,8.396072387695312
1759335072350189300,0.216189208984375,0.804389238357544,-5.033116340637207,8.3779935836792
1759335072360189400,0.226189453125,0.8858399987220764,-5.061252593994141,8.352785110473633
1759335072370189300,0.236189208984375,0.9444277882575989,-5.112448692321777,8.315114974975586
1759335072380189400,0.246189453125,0.9902887940406799,-5.172369956970215,8.272611618041992
1759335072390189300,0.256189208984375,1.0321277379989624,-5.228852272033691,8.231888771057129
1759335072400189400,0.266189453125,1.0865321159362793,-5.277119159698486,8.193998336791992
1759335072410189300,0.276189208984375,1.150928258895874,-5.312922477722168,8.16200065612793
1759335072420189400,0.286189453125,1.2169015407562256,-5.330192565917969,8.141156196594238
1759335072430189300,0.296189208984375,1.2739169597625732,-5.325122356414795,8.135741233825684
1759335072440189400,0.306189453125,1.3036545515060425,-5.3009033203125,8.146842956542969
1759335072450190300,0.3161904296875,1.2987234592437744,-5.263715744018555,8.17170238494873
1759335072460190200,0.326190185546875,1.2673001289367676,-5.217139720916748,8.20643424987793
1759335072470190300,0.3361904296875,1.2341384887695312,-5.167850971221924,8.242581367492676
1759335072480190200,0.346190185546875,1.2133301496505737,-5.115694046020508,8.278141021728516
1759335072490190300,0.3561904296875,1.2092303037643433,-5.056216239929199,8.31521224975586
1759335072500190200,0.366190185546875,1.2207114696502686,-4.981574058532715,8.358463287353516
1759335072510189300,0.376189208984375,1.2480881214141846,-4.884798526763916,8.411371231079102
1759335072520189400,0.386189453125,1.2796388864517212,-4.772680282592773,8.470791816711426
1759335072530189300,0.396189208984375,1.3007926940917969,-4.661319255828857,8.5293607711792
1759335072540189400,0.406189453125,1.3125474452972412,-4.574450969696045,8.574490547180176
1759335072550155300,0.4161552734375,1.3390988111495972,-4.529682159423828,8.59411907196045
1759335072560121900,0.426121826171875,1.3795336484909058,-4.530671119689941,8.587203025817871
1759335072570088400,0.43608837890625,1.438049554824829,-4.545891761779785,8.569544792175293
1759335072580055300,0.44605517578125,1.5227794647216797,-4.548030376434326,8.553746223449707
1759335072590022000,0.45602197265625,1.6388871669769287,-4.532055854797363,8.540767669677734
1759335072599988500,0.465988525390625,1.7569302320480347,-4.4967145919799805,8.535969734191895
1759335072609956000,0.4759560546875,1.8596762418746948,-4.4613165855407715,8.532791137695312
1759335072619922700,0.485922607421875,1.925964593887329,-4.435711860656738,8.531424522399902
1759335072629889500,0.4958896484375,1.951783537864685,-4.407000541687012,8.540443420410156
1759335072639856000,0.505856201171875,1.9365041255950928,-4.374689102172852,8.560502052307129
1759335072649823700,0.51582373046875,1.8933354616165161,-4.348796367645264,8.583325386047363
1759335072659790300,0.525790283203125,1.8243541717529297,-4.3432183265686035,8.60106372833252
1759335072669757000,0.5357568359375,1.7417436838150024,-4.3632097244262695,8.60806941986084
1759335072679723500,0.5457236328125,1.6735668182373047,-4.39084005355835,8.607542991638184
1759335072689690400,0.5556904296875,1.6252251863479614,-4.415070056915283,8.604411125183105
1759335072699657000,0.565656982421875,1.5943138599395752,-4.434875965118408,8.600020408630371
1759335072709623600,0.57562353515625,1.573464035987854,-4.460958480834961,8.590360641479492
1759335072719590400,0.58559033203125,1.5854086875915527,-4.482384204864502,8.576991081237793
1759335072729557000,0.595556884765625,1.6180009841918945,-4.487575531005859,8.56818962097168
1759335072739523600,0.605523681640625,1.648158311843872,-4.463827610015869,8.57485294342041
1759335072749489400,0.615489501953125,1.6556518077850342,-4.432290077209473,8.589747428894043
1759335072759456000,0.6254560546875,1.6384464502334595,-4.403487205505371,8.607840538024902
1759335072769422800,0.6354228515625,1.5432640314102173,-4.399148464202881,8.627631187438965
1759335072779389400,0.645389404296875,1.3981688022613525,-4.418990135192871,8.64220142364502
1759335072789356000,0.65535595703125,1.198043704032898,-4.464701175689697,8.648778915405273
1759335072799323000,0.665322998046875,0.9758996367454529,-4.52033805847168,8.647786140441895
1759335072809290200,0.675290283203125,0.7495446801185608,-4.573745250701904,8.642290115356445
1759335072819257000,0.685257080078125,0.5863941311836243,-4.616741180419922,8.632025718688965
1759335072829223700,0.6952236328125,0.526254415512085,-4.637669563293457,8.624688148498535
1759335072839190300,0.705190185546875,0.5440373420715332,-4.624091625213623,8.630866050720215
1759335072849191200,0.715191162109375,0.5897025465965271,-4.583389759063721,8.649564743041992
1759335072859191000,0.72519091796875,0.6293594241142273,-4.53757381439209,8.670896530151367
1759335072869191200,0.735191162109375,0.651813805103302,-4.4961700439453125,8.69078254699707
1759335072879191000,0.74519091796875,0.6404390335083008,-4.459770679473877,8.71036148071289
1759335072889191200,0.755191162109375,0.6115192174911499,-4.4348554611206055,8.725143432617188
1759335072899191000,0.76519091796875,0.5773661732673645,-4.4218244552612305,8.734070777893066
1759335072909191000,0.77519091796875,0.5439257025718689,-4.41949987411499,8.73741626739502
1759335072919191000,0.78519091796875,0.5159504413604736,-4.416522026062012,8.74061107635498
1759335072929191000,0.79519091796875,0.5048539042472839,-4.405620574951172,8.746758460998535
1759335072939191000,0.80519091796875,0.5147358179092407,-4.3745622634887695,8.761756896972656
1759335072949190100,0.815190185546875,0.5372878313064575,-4.321342945098877,8.786775588989258
1759335072959190300,0.825190185546875,0.5544663667678833,-4.242455005645752,8.824070930480957
1759335072969190100,0.835190185546875,0.5565273761749268,-4.149392127990723,8.868087768554688
1759335072979190300,0.845190185546875,0.5442618131637573,-4.060007572174072,8.910126686096191
1759335072989190100,0.855190185546875,0.5108920335769653,-3.9892578125,8.943978309631348
1759335072999190300,0.865190185546875,0.454768568277359,-3.9329445362091064,8.971912384033203
1759335073009190100,0.875190185546875,0.37256839871406555,-3.895263910293579,8.992109298706055
1759335073019190300,0.885190185546875,0.2791869342327118,-3.8754618167877197,9.004056930541992
1759335073029190100,0.895190185546875,0.18736205995082855,-3.8757894039154053,9.006282806396484
1759335073039190300,0.905190185546875,0.10450375080108643,-3.8926470279693604,9.000358581542969
1759335073049191000,0.91519091796875,0.029206804931163788,-3.935002088546753,8.982481956481934
1759335073059191000,0.92519091796875,-0.03872048482298851,-4.011440753936768,8.94858169555664
1759335073069191000,0.93519091796875,-0.08635551482439041,-4.113402366638184,8.901839256286621
1759335073079191000,0.94519091796875,-0.044696636497974396,-4.175318241119385,8.873265266418457
1759335073089191000,0.95519091796875,0.03981178626418114,-4.183216094970703,8.869571685791016
1759335073099191000,0.96519091796875,0.13663959503173828,-4.181526184082031,8.869391441345215
1759335073109191200,0.975191162109375,0.2835872173309326,-4.194928169250488,8.859589576721191
1759335073119191000,0.98519091796875,0.5050163865089417,-4.229681491851807,8.833159446716309
1759335073129191200,0.995191162109375,0.7796107530593872,-4.288593292236328,8.784661293029785
1759335073139191000,1.00519091796875,1.0387158393859863,-4.363711833953857,8.720612525939941
1759335073149190100,1.015190185546875,1.2145506143569946,-4.447371006011963,8.65539836883545
1759335073159190300,1.025190185546875,1.3108973503112793,-4.535294532775879,8.5955171585083
1759335073169190000,1.03518994140625,1.3356289863586426,-4.618889808654785,8.547052383422852
1759335073179189800,1.045189697265625,1.3020576238632202,-4.675473213195801,8.521425247192383
1759335073189190000,1.05518994140625,1.2404261827468872,-4.682680130004883,8.526658058166504
1759335073199189800,1.065189697265625,1.2030980587005615,-4.610194206237793,8.571396827697754
1759335073209190000,1.07518994140625,1.209058403968811,-4.50391149520874,8.626877784729004
1759335073219190000,1.08518994140625,1.258600115776062,-4.39018440246582,8.678263664245605
1759335073229190000,1.09518994140625,1.3726701736450195,-4.278258323669434,8.716790199279785
1759335073239190000,1.10518994140625,1.539351224899292,-4.1624979972839355,8.744942665100098
1759335073249191000,1.11519091796875,1.725139856338501,-4.044435501098633,8.765640258789062
1759335073259190800,1.125190673828125,1.9064784049987793,-3.9325668811798096,8.77896785736084
1759335073269191000,1.13519091796875,2.088510274887085,-3.8399360179901123,8.778558731079102
1759335073279190500,1.1451904296875,2.2794618606567383,-3.7821156978607178,8.756131172180176
1759335073289190400,1.1551904296875,2.4734668731689453,-3.7610371112823486,8.712434768676758
1759335073299190500,1.1651904296875,2.6495425701141357,-3.748514413833618,8.665956497192383
1759335073309190400,1.1751904296875,2.75927996635437,-3.7167179584503174,8.645377159118652
1759335073319190500,1.1851904296875,2.8667514324188232,-3.6675150394439697,8.631406784057617
1759335073329190400,1.1951904296875,2.951157569885254,-3.6177539825439453,8.6239652633667
1759335073339190300,1.205190185546875,3.014921188354492,-3.5741705894470215,8.62007999420166
1759335073349189600,1.215189697265625,3.0962517261505127,-3.5483949184417725,8.601880073547363
1759335073359189500,1.225189453125,3.170689344406128,-3.538780450820923,8.578683853149414
1759335073369189600,1.235189697265625,3.275865316390991,-3.5317654609680176,8.54198169708252
1759335073379189500,1.245189453125,3.4006028175354004,-3.54423451423645,8.487906455993652
1759335073389189600,1.255189697265625,3.535931348800659,-3.5721662044525146,8.420636177062988
1759335073399189500,1.265189453125,3.6553919315338135,-3.6130917072296143,8.35187816619873
1759335073409189600,1.275189697265625,3.7614355087280273,-3.659661293029785,8.284235954284668
1759335073419189500,1.285189453125,3.850496530532837,-3.710749864578247,8.220359802246094
1759335073429189600,1.295189697265625,3.9254674911499023,-3.758958101272583,8.162790298461914
1759335073439189500,1.305189453125,3.980368137359619,-3.797464370727539,8.11825942993164
1759335073449190400,1.3151904296875,4.013059616088867,-3.82401442527771,8.089655876159668
1759335073459190500,1.3251904296875,4.031453609466553,-3.840970754623413,8.072457313537598
1759335073469191000,1.33519091796875,4.032475471496582,-3.853766441345215,8.06584358215332
1759335073479190800,1.345190673828125,4.03216552734375,-3.8675765991210938,8.059385299682617
1759335073489191000,1.35519091796875,4.032519340515137,-3.8942184448242188,8.046366691589355
1759335073499190800,1.365190673828125,4.019989967346191,-3.9380860328674316,8.031281471252441
1759335073509190000,1.37518994140625,3.9847264289855957,-4.00014066696167,8.018174171447754
1759335073519190000,1.38518994140625,3.9342520236968994,-4.082307815551758,8.00165843963623
1759335073529190000,1.39518994140625,3.8729803562164307,-4.173033714294434,7.984744071960449
1759335073539190000,1.40518994140625,3.7558937072753906,-4.2510223388671875,7.999513149261475
1759335073549189000,1.415189208984375,3.5788919925689697,-4.347724914550781,8.028634071350098
1759335073559189000,1.42518896484375,3.352539300918579,-4.482161045074463,8.052372932434082
1759335073569189000,1.435189208984375,3.1087260246276855,-4.628251552581787,8.067543983459473
1759335073579189500,1.445189453125,2.86220383644104,-4.726393222808838,8.101805686950684
1759335073589189400,1.455189453125,2.6700937747955322,-4.7805256843566895,8.135562896728516
1759335073599189500,1.465189453125,2.517183303833008,-4.814911365509033,8.163984298706055
1759335073609665800,1.475665771484375,2.358098030090332,-4.854549407958984,8.187971115112305
1759335073619666000,1.485666015625,2.1764211654663086,-4.885300636291504,8.219930648803711
1759335073629666000,1.495666015625,2.010883331298828,-4.915273666381836,8.24417781829834
1759335073639666000,1.505666015625,1.893393874168396,-4.936177730560303,8.259499549865723
1759335073649666800,1.515666748046875,1.7957125902175903,-4.912572383880615,8.295305252075195
1759335073659666700,1.525666748046875,1.666184902191162,-4.8536200523376465,8.356801986694336
1759335073669666800,1.535666748046875,1.5367097854614258,-4.7768120765686035,8.425607681274414
1759335073679666700,1.545666748046875,1.4272394180297852,-4.71500301361084,8.479488372802734
1759335073689666800,1.555666748046875,1.3453748226165771,-4.671464443206787,8.516895294189453
1759335073699666700,1.565666748046875,1.289495587348938,-4.649044990539551,8.537782669067383
1759335073709666800,1.575666748046875,1.2535370588302612,-4.642055988311768,8.546935081481934
1759335073719666700,1.585666748046875,1.240567684173584,-4.648721694946289,8.545211791992188
1759335073729666800,1.595666748046875,1.2374018430709839,-4.665291786193848,8.536625862121582
1759335073739666700,1.605666748046875,1.2312164306640625,-4.689290523529053,8.524360656738281
1759335073749665800,1.615665771484375,1.20576810836792,-4.733004093170166,8.503812789916992
1759335073769665800,1.635665771484375,1.1033955812454224,-4.919640064239502,8.411282539367676
1759335073779666000,1.645666015625,1.0544979572296143,-5.094452857971191,8.312932968139648
1759335073789665800,1.655665771484375,1.028576135635376,-5.356688499450684,8.149726867675781
1759335073799666000,1.665666015625,1.0114456415176392,-5.73267936706543,7.89198637008667
1759335073809666800,1.675666748046875,1.0427963733673096,-6.176811695098877,7.545175075531006
1759335073819666700,1.685666748046875,1.08220374584198,-6.608126640319824,7.164605140686035
1759335073829666800,1.695666748046875,1.105729579925537,-6.976073741912842,6.803066730499268
1759335073839666700,1.705666748046875,1.1531763076782227,-7.254477500915527,6.497142791748047
1759335073849667600,1.71566748046875,1.19475519657135,-7.4543914794921875,6.258971214294434
1759335073859667500,1.72566748046875,1.228595495223999,-7.6016740798950195,6.07250452041626
1759335073869667600,1.73566748046875,1.258163571357727,-7.714066505432129,5.922871112823486
1759335073879667500,1.74566748046875,1.2688515186309814,-7.798632621765137,5.808732986450195
1759335073889667600,1.75566748046875,1.2714368104934692,-7.869009971618652,5.712462425231934
1759335073899667500,1.76566748046875,1.270592212677002,-7.931118011474609,5.626101970672607
1759335073909668400,1.77566845703125,1.2807015180587769,-7.981428146362305,5.55216646194458
1759335073919668200,1.785668212890625,1.2963345050811768,-8.029332160949707,5.478999137878418
1759335073929668000,1.795668212890625,1.3132061958312988,-8.08112907409668,5.39823055267334
1759335073939668200,1.805668212890625,1.3086299896240234,-8.125814437866211,5.331853866577148
1759335073949667300,1.815667236328125,1.2765390872955322,-8.14535140991211,5.309789180755615
1759335073959667500,1.82566748046875,1.217889428138733,-8.140210151672363,5.331397533416748
1759335073969667300,1.835667236328125,1.1282236576080322,-8.107577323913574,5.4004225730896
1759335073979667500,1.84566748046875,1.0308716297149658,-8.047746658325195,5.508296489715576
1759335073989667300,1.855667236328125,0.9398965835571289,-7.960973262786865,5.64885950088501
1759335073999667500,1.86566748046875,0.8418670296669006,-7.83499002456665,5.837317943572998
1759335074009667300,1.875667236328125,0.7722750306129456,-7.686918258666992,6.040275573730469
1759335074019667500,1.88566748046875,0.7176268696784973,-7.537018775939941,6.232836723327637
1759335074029667300,1.895667236328125,0.6555898189544678,-7.406945705413818,6.393535614013672
1759335074039667500,1.90566748046875,0.5871803164482117,-7.296292304992676,6.52604866027832
1759335074049668000,1.915668212890625,0.5859516263008118,-7.212796688079834,6.618334770202637
1759335074059668200,1.925668212890625,0.62166827917099,-7.170595645904541,6.660786151885986
1759335074069668000,1.935668212890625,0.6468594074249268,-7.165802478790283,6.663561820983887
1759335074079668200,1.945668212890625,0.6601532101631165,-7.181802749633789,6.644988059997559
1759335074089668000,1.955668212890625,0.6571405529975891,-7.212040424346924,6.612483501434326
1759335074099668200,1.965668212890625,0.6329880952835083,-7.2591142654418945,6.563131809234619
1759335074109668400,1.97566845703125,0.579859733581543,-7.320446014404297,6.499607086181641
1759335074119668200,1.985668212890625,0.5356166958808899,-7.378281593322754,6.4377055168151855
1759335074129668400,1.99566845703125,0.5057312846183777,-7.428164958953857,6.382519245147705
1759335074139668200,2.005668212890625,0.4994511604309082,-7.471181869506836,6.332604885101318
1759335074149667300,2.015667236328125,0.4910159409046173,-7.50870418548584,6.288753032684326
1759335074159667500,2.02566748046875,0.45552903413772583,-7.563410758972168,6.225542068481445
1759335074169667300,2.035667236328125,0.4163029193878174,-7.6494879722595215,6.122264385223389
1759335074179667500,2.04566748046875,0.3835398852825165,-7.757012844085693,5.987630367279053
1759335074189667300,2.055667236328125,0.38694941997528076,-7.875739574432373,5.830355644226074
1759335074199667500,2.06566748046875,0.4165951907634735,-7.998487949371338,5.658690929412842
1759335074209667600,2.07566748046875,0.43060266971588135,-8.129919052124023,5.467074871063232
1759335074219667500,2.08566748046875,0.4163210391998291,-8.283588409423828,5.232472896575928
1759335074229667600,2.09566748046875,0.43484339118003845,-8.469038009643555,4.9250946044921875
1759335074239667500,2.10566748046875,0.5003635883331299,-8.659655570983887,4.574926853179932
1759335074249668400,2.11566845703125,0.5812748670578003,-8.841511726379395,4.20237922668457
1759335074259668500,2.12566845703125,0.6451262831687927,-9.00334644317627,3.8332393169403076
1759335074269668400,2.13566845703125,0.6757850646972656,-9.144331932067871,3.4777114391326904
1759335074279668500,2.14566845703125,0.6724082827568054,-9.265308380126953,3.1419763565063477
1759335074289668400,2.15566845703125,0.6403682827949524,-9.36583423614502,2.835674524307251
1759335074299668500,2.16566845703125,0.6037409901618958,-9.4454927444458,2.566718339920044
1759335074309668400,2.17566845703125,0.5683598518371582,-9.514808654785156,2.3054983615875244
1759335074319668500,2.18566845703125,0.5457955598831177,-9.575782775878906,2.043578863143921
1759335074329668400,2.19566845703125,0.5429384112358093,-9.628898620605469,1.777548909187317
1759335074339668500,2.20566845703125,0.59995037317276,-9.691143035888672,1.3754364252090454
1759335074349667600,2.21566748046875,0.6391691565513611,-9.749227523803711,0.8448910713195801
1759335074359667500,2.22566748046875,0.6107958555221558,-9.783249855041504,0.29122984409332275
1759335074369667600,2.23566748046875,0.5377730131149292,-9.789922714233398,-0.19536124169826508
1759335074379667500,2.24566748046875,0.5124079585075378,-9.773493766784668,-0.6216080784797668
1759335074389667600,2.25566748046875,0.5797522068023682,-9.740761756896973,-0.9753689169883728
1759335074399667500,2.26566748046875,0.7150941491127014,-9.69970989227295,-1.254754900932312
1759335074409667600,2.27566748046875,0.8818617463111877,-9.655974388122559,-1.4678356647491455
1759335074419667500,2.28566748046875,1.0456827878952026,-9.61441707611084,-1.6246894598007202
1759335074429667600,2.29566748046875,1.1832714080810547,-9.578253746032715,-1.7398478984832764
1759335074439667500,2.30566748046875,1.278350591659546,-9.547534942626953,-1.8386279344558716
1759335074459668200,2.325668212890625,1.2665414810180664,-9.49563217163086,-2.0973498821258545
1759335074469668400,2.33566845703125,1.1521657705307007,-9.473320007324219,-2.2580440044403076
1759335074479668200,2.345668212890625,0.990977942943573,-9.454025268554688,-2.410233974456787
1759335074489668400,2.35566845703125,0.7978358864784241,-9.444084167480469,-2.5184807777404785
1759335074499668200,2.365668212890625,0.5885624289512634,-9.453094482421875,-2.542175054550171
1759335074509668400,2.37566845703125,0.3959071934223175,-9.477249145507812,-2.488974094390869
1759335074519668200,2.385668212890625,0.25348493456840515,-9.500691413879395,-2.4171645641326904
1759335074529668400,2.39566845703125,0.18208938837051392,-9.515252113342285,-2.3657336235046387
1759335074539668200,2.405668212890625,0.18623773753643036,-9.521048545837402,-2.342050075531006
1759335074549667300,2.415667236328125,0.24287497997283936,-9.522444725036621,-2.331097364425659
1759335074559667500,2.42566748046875,0.3150365650653839,-9.524249076843262,-2.3150370121002197
1759335074569667300,2.435667236328125,0.3602370619773865,-9.52761173248291,-2.2945001125335693
1759335074579667500,2.44566748046875,0.3794850707054138,-9.52891731262207,-2.2859654426574707
1759335074589667300,2.455667236328125,0.3844347894191742,-9.52786636352539,-2.2895374298095703
1759335074599667500,2.46566748046875,0.3913102447986603,-9.526123046875,-2.2956085205078125
1759335074609667300,2.475667236328125,0.4093053340911865,-9.524271011352539,-2.3001863956451416
1759335074619667500,2.48566748046875,0.4424816071987152,-9.522000312805176,-2.3034565448760986
1759335074629667300,2.495667236328125,0.4883826673030853,-9.519171714782715,-2.305811643600464
1759335074639667500,2.50566748046875,0.5411763787269592,-9.516549110412598,-2.304903745651245
1759335074649668400,2.51566845703125,0.5973135828971863,-9.514601707458496,-2.2990128993988037
1759335074659668200,2.525668212890625,0.6550970673561096,-9.513219833374023,-2.288994550704956
1759335074669668400,2.53566845703125,0.7148728966712952,-9.511883735656738,-2.2766706943511963
1759335074679668200,2.545668212890625,0.7758178114891052,-9.510895729064941,-2.2607386112213135
1759335074689668900,2.5556689453125,0.8322790861129761,-9.510485649108887,-2.2423038482666016
1759335074699669000,2.5656689453125,0.8788737058639526,-9.510945320129395,-2.222526788711548
1759335074709668000,2.575668212890625,0.9128990173339844,-9.512256622314453,-2.203082799911499
1759335074719668000,2.58566796875,0.935624897480011,-9.514244079589844,-2.184887647628784
1759335074729668000,2.595668212890625,0.9526058435440063,-9.516502380371094,-2.1676769256591797
1759335074739668000,2.60566796875,0.9695397615432739,-9.518473625183105,-2.1514368057250977
1759335074749667300,2.615667236328125,0.9909201264381409,-9.519732475280762,-2.13604998588562
1759335074759667200,2.625667236328125,1.0179715156555176,-9.520238876342773,-2.121079444885254
1759335074769667000,2.6356669921875,1.049829363822937,-9.520050048828125,-2.1063103675842285
1759335074779667200,2.645667236328125,1.0867030620574951,-9.519108772277832,-2.091874599456787
1759335074789667000,2.6556669921875,1.128546118736267,-9.517162322998047,-2.078458070755005
1759335074799667200,2.665667236328125,1.1777127981185913,-9.51369571685791,-2.067061185836792
1759335074809667000,2.6756669921875,1.2303341627120972,-9.509115219116211,-2.0574069023132324
1759335074819667200,2.685667236328125,1.2856848239898682,-9.502817153930664,-2.052663803100586
1759335074829667000,2.6956669921875,1.3410881757736206,-9.49479866027832,-2.054363489151001
1759335074839667200,2.705667236328125,1.3939213752746582,-9.485147476196289,-2.0637474060058594
1759335074849668000,2.715668212890625,1.442203164100647,-9.474197387695312,-2.080829381942749
1759335074859668000,2.72566796875,1.4858386516571045,-9.462015151977539,-2.1053998470306396
1759335074869668000,2.735668212890625,1.5249907970428467,-9.448915481567383,-2.13596773147583
1759335074879668000,2.74566796875,1.5610320568084717,-9.43509292602539,-2.170783042907715
1759335074889668000,2.755668212890625,1.595745325088501,-9.42056655883789,-2.208324909210205
1759335074899668000,2.76566796875,1.631882905960083,-9.40515422821045,-2.2472283840179443
1759335074909668000,2.775668212890625,1.673672080039978,-9.388382911682129,-2.286330223083496
1759335074919668000,2.78566796875,1.7186706066131592,-9.370844841003418,-2.324568748474121
1759335074929667800,2.795667724609375,1.7649095058441162,-9.353206634521484,-2.3606526851654053
1759335074939668000,2.80566796875,1.8087471723556519,-9.3366060256958,-2.3929672241210938
1759335074949667000,2.8156669921875,1.8463901281356812,-9.322103500366211,-2.420612096786499
1759335074959667000,2.8256669921875,1.8759193420410156,-9.31024169921875,-2.4434781074523926
1759335074969667000,2.8356669921875,1.89580500125885,-9.301395416259766,-2.461711883544922
1759335074979667000,2.8456669921875,1.9065128564834595,-9.295506477355957,-2.475645065307617
1759335074989666300,2.855666259765625,1.912352204322815,-9.291061401367188,-2.4878079891204834
1759335074999666400,2.86566650390625,1.9156179428100586,-9.286957740783691,-2.5005857944488525
1759335075009667300,2.875667236328125,1.9165740013122559,-9.282766342163086,-2.5153610706329346
1759335075019667200,2.885667236328125,1.9140280485153198,-9.278060913085938,-2.534576416015625
1759335075029667000,2.8956669921875,1.8985683917999268,-9.274693489074707,-2.558436632156372
1759335075039667000,2.9056669921875,1.8736945390701294,-9.273152351379395,-2.5822558403015137
1759335075049667800,2.915667724609375,1.8401058912277222,-9.274460792541504,-2.6016409397125244
1759335075059668000,2.92566796875,1.800889492034912,-9.278348922729492,-2.615172863006592
1759335075069667800,2.935667724609375,1.755902647972107,-9.284417152404785,-2.6242125034332275
1759335075079668000,2.94566796875,1.699592113494873,-9.292864799499512,-2.631385087966919
1759335075089667800,2.955667724609375,1.6210057735443115,-9.305299758911133,-2.6370136737823486
1759335075099668000,2.96566796875,1.5102125406265259,-9.32292366027832,-2.640537977218628
1759335075109667800,2.975667724609375,1.361754298210144,-9.34603214263916,-2.639619827270508
1759335075119668000,2.98566796875,1.179233431816101,-9.373936653137207,-2.6284303665161133
1759335075129667800,2.995667724609375,0.9749758243560791,-9.404106140136719,-2.6042957305908203
1759335075139668000,3.00566796875,0.7669070363044739,-9.432002067565918,-2.572805404663086
1759335075149667000,3.0156669921875,0.5618757605552673,-9.452838897705078,-2.5491275787353516
1759335075159667000,3.0256669921875,0.3549480140209198,-9.465883255004883,-2.537900924682617
1759335075169667000,3.0356669921875,0.13867782056331635,-9.471572875976562,-2.5377562046051025
1759335075179667000,3.0456669921875,-0.08890140056610107,-9.470660209655762,-2.5433757305145264
1759335075189667000,3.0556669921875,-0.32453590631484985,-9.463647842407227,-2.550285816192627
1759335075199667200,3.065667236328125,-0.5636500716209412,-9.451316833496094,-2.5543806552886963
1759335075209667000,3.0756669921875,-0.805153489112854,-9.43498420715332,-2.55007004737854
1759335075219667200,3.085667236328125,-1.054738163948059,-9.414926528930664,-2.533083438873291
1759335075229667000,3.0956669921875,-1.3120853900909424,-9.390007972717285,-2.505209445953369
1759335075239667200,3.105667236328125,-1.5709619522094727,-9.35862922668457,-2.473457098007202
1759335075249668000,3.115668212890625,-1.826048493385315,-9.31881046295166,-2.4485573768615723
1759335075259668000,3.12566796875,-2.064307451248169,-9.272754669189453,-2.4340333938598633
1759335075269668000,3.135668212890625,-2.2910189628601074,-9.224879264831543,-2.4130594730377197
1759335075279668000,3.14566796875,-2.5068607330322266,-9.176913261413574,-2.381153106689453
1759335075289668000,3.155668212890625,-2.694988965988159,-9.132678031921387,-2.345431327819824
1759335075299668000,3.16566796875,-2.852391481399536,-9.092093467712402,-2.3167898654937744
1759335075309668000,3.175668212890625,-2.9862301349639893,-9.054609298706055,-2.2948837280273438
1759335075319668000,3.18566796875,-3.0995447635650635,-9.021495819091797,-2.274905204772949
1759335075329668400,3.19566845703125,-3.2000229358673096,-8.992772102355957,-2.2494335174560547
1759335075339668500,3.20566845703125,-3.299132823944092,-8.96568775177002,-2.2141125202178955
1759335075349667600,3.21566748046875,-3.403012752532959,-8.938216209411621,-2.167437791824341
1759335075359667500,3.22566748046875,-3.5111937522888184,-8.910191535949707,-2.1094515323638916
1759335075369667600,3.23566748046875,-3.6133782863616943,-8.885479927062988,-2.0399835109710693
1759335075379667500,3.24566748046875,-3.7108898162841797,-8.858612060546875,-1.9810107946395874
1759335075389667600,3.25566748046875,-3.807541847229004,-8.826629638671875,-1.9398562908172607
1759335075399667500,3.26566748046875,-3.9040350914001465,-8.790565490722656,-1.9116342067718506
1759335075409667600,3.27566748046875,-3.995250940322876,-8.75436019897461,-1.8891782760620117
1759335075419667500,3.28566748046875,-4.075148105621338,-8.722061157226562,-1.867727518081665
1759335075429667600,3.29566748046875,-4.135961055755615,-8.698164939880371,-1.8454294204711914
1759335075439667500,3.30566748046875,-4.173288345336914,-8.684596061706543,-1.8252321481704712
1759335075449668400,3.31566845703125,-4.184314727783203,-8.682464599609375,-1.8099323511123657
1759335075459668200,3.325668212890625,-4.173109531402588,-8.690205574035645,-1.7986884117126465
1759335075469668400,3.33566845703125,-4.145508766174316,-8.704747200012207,-1.7922534942626953
1759335075479668200,3.345668212890625,-4.105598449707031,-8.723690032958984,-1.7919869422912598
1759335075489668400,3.35566845703125,-4.053831100463867,-8.746079444885254,-1.8007018566131592
1759335075499668200,3.365668212890625,-3.996932029724121,-8.770048141479492,-1.811267375946045
1759335075509668400,3.37566845703125,-3.934650182723999,-8.796056747436523,-1.8215628862380981
1759335075519668200,3.385668212890625,-3.8649027347564697,-8.824867248535156,-1.8314491510391235
1759335075529668400,3.39566845703125,-3.783989667892456,-8.85763168334961,-1.8421286344528198
1759335075539668200,3.405668212890625,-3.689514398574829,-8.894214630126953,-1.8575294017791748
1759335075549667600,3.41566748046875,-3.584404706954956,-8.9321870803833,-1.8809741735458374
1759335075559667500,3.42566748046875,-3.4754550457000732,-8.968549728393555,-1.912092685699463
1759335075569667600,3.43566748046875,-3.3696646690368652,-9.001710891723633,-1.9454010725021362
1759335075579667500,3.44566748046875,-3.2735564708709717,-9.030468940734863,-1.97589910030365
1759335075589667600,3.45566748046875,-3.194213390350342,-9.053421020507812,-2.000624895095825
1759335075599667500,3.46566748046875,-3.158935785293579,-9.064315795898438,-2.0072903633117676
1759335075609667600,3.47566748046875,-3.141435146331787,-9.071920394897461,-2.000377655029297
1759335075619667500,3.48566748046875,-3.1500418186187744,-9.075888633728027,-1.968636393547058
1759335075629667600,3.49566748046875,-3.169642448425293,-9.081136703491211,-1.9121240377426147
1759335075639667500,3.50566748046875,-3.192758560180664,-9.087778091430664,-1.8407495021820068
1759335075659668500,3.52566845703125,-3.3006138801574707,-9.079903602600098,-1.6826543807983398
1759335075669668400,3.53566845703125,-3.3833634853363037,-9.063737869262695,-1.6035104990005493
1759335075679668500,3.54566845703125,-3.4537832736968994,-9.047564506530762,-1.5436583757400513
1759335075689668400,3.55566845703125,-3.4989943504333496,-9.035277366638184,-1.5134057998657227
1759335075699669500,3.56566943359375,-3.5162744522094727,-9.029824256896973,-1.505967140197754
1759335075709669000,3.575669189453125,-3.4969167709350586,-9.03909969329834,-1.4953393936157227
1759335075719669200,3.585669189453125,-3.4733705520629883,-9.052606582641602,-1.4681986570358276
1759335075729669000,3.595669189453125,-3.4589667320251465,-9.063488960266113,-1.4348597526550293
1759335075739669200,3.605669189453125,-3.4674623012542725,-9.06456184387207,-1.4072113037109375
1759335075749668400,3.61566845703125,-3.506777286529541,-9.05170726776123,-1.3925217390060425
1759335075759668200,3.625668212890625,-3.5539896488189697,-9.0333833694458,-1.391710638999939
1759335075769667800,3.635667724609375,-3.5718724727630615,-9.02672290802002,-1.389267921447754
1759335075779668000,3.64566796875,-3.547598361968994,-9.037625312805176,-1.3804305791854858
1759335075789667800,3.655667724609375,-3.486598253250122,-9.061326026916504,-1.3804235458374023
1759335075799667500,3.66566748046875,-3.413586378097534,-9.088366508483887,-1.3852441310882568
1759335075809667600,3.67566748046875,-3.3314766883850098,-9.118075370788574,-1.3899139165878296
1759335075819667200,3.685667236328125,-3.2378971576690674,-9.151185035705566,-1.3934224843978882
1759335075829667000,3.6956669921875,-3.121356964111328,-9.189530372619629,-1.4068816900253296
1759335075839667200,3.705667236328125,-2.9909074306488037,-9.228894233703613,-1.4325108528137207
1759335075849667800,3.715667724609375,-2.8545501232147217,-9.26632022857666,-1.4686293601989746
1759335075859668000,3.72566796875,-2.7182068824768066,-9.299413681030273,-1.5172396898269653
1759335075869667800,3.735667724609375,-2.585793972015381,-9.32634162902832,-1.5819921493530273
1759335075879668000,3.74566796875,-2.4608471393585205,-9.345797538757324,-1.6643904447555542
1759335075889667800,3.755667724609375,-2.346991539001465,-9.357987403869629,-1.757723093032837
1759335075899667700,3.765667724609375,-2.2499001026153564,-9.36313247680664,-1.854650855064392
1759335075909667800,3.775667724609375,-2.1752543449401855,-9.361383438110352,-1.9500577449798584
1759335075919667200,3.785667236328125,-2.1200830936431885,-9.354290962219238,-2.0426061153411865
1759335075929666800,3.795666748046875,-2.0758395195007324,-9.344518661499023,-2.130913496017456
1759335075939667000,3.8056669921875,-2.0259809494018555,-9.33793830871582,-2.2063841819763184
1759335075949666000,3.815666015625,-1.9595155715942383,-9.33767318725586,-2.2667739391326904
1759335075959666000,3.825666015625,-1.8751965761184692,-9.344992637634277,-2.3075082302093506
1759335075969666000,3.835666015625,-1.7731752395629883,-9.358955383300781,-2.3315048217773438
1759335075979666000,3.845666015625,-1.6561580896377563,-9.377591133117676,-2.3426170349121094
1759335075989666000,3.855666015625,-1.5281611680984497,-9.39826488494873,-2.3467724323272705
1759335075999665000,3.865664794921875,-1.3937691450119019,-9.418914794921875,-2.347625494003296
1759335076009665300,3.875665283203125,-1.2582296133041382,-9.437864303588867,-2.3480796813964844
1759335076019665200,3.8856650390625,-1.1239069700241089,-9.454678535461426,-2.348555564880371
1759335076029666000,3.895666015625,-0.9911328554153442,-9.46968936920166,-2.3479321002960205
1759335076039666000,3.905666015625,-0.8614490628242493,-9.482461929321289,-2.3474740982055664
1759335076049666800,3.915666748046875,-0.7349824905395508,-9.49236011505127,-2.350529670715332
1759335076059667000,3.9256669921875,-0.6120119690895081,-9.49854850769043,-2.3607139587402344
1759335076069667300,3.935667236328125,-0.4901438355445862,-9.502656936645508,-2.372615337371826
1759335076079667200,3.945667236328125,-0.36828503012657166,-9.505099296569824,-2.3848378658294678
1759335076089667300,3.955667236328125,-0.24751463532447815,-9.505544662475586,-2.3986728191375732
1759335076099667700,3.965667724609375,-0.12712766230106354,-9.504281044006348,-2.4129526615142822
1759335076109667600,3.97566748046875,-0.007149871904402971,-9.501433372497559,-2.427544116973877
1759335076119668000,3.98566796875,0.11187047511339188,-9.49671459197998,-2.4433765411376953
1759335076129668000,3.995668212890625,0.22693857550621033,-9.490010261535645,-2.4613142013549805
1759335076139668000,4.00566796875,0.33592942357063293,-9.481279373168945,-2.482447862625122
1759335076149667000,4.0156669921875,0.44024816155433655,-9.470330238342285,-2.50783371925354
1759335076159667200,4.025667236328125,0.5424100160598755,-9.45692253112793,-2.538177251815796
1759335076169667000,4.0356669921875,0.6434104442596436,-9.44017219543457,-2.5766797065734863
1759335076179667200,4.045667236328125,0.7414408922195435,-9.421006202697754,-2.6201422214508057
1759335076189667000,4.0556669921875,0.834324061870575,-9.399792671203613,-2.667907953262329
1759335076199667200,4.065667236328125,0.9190812110900879,-9.377334594726562,-2.7186310291290283
1759335076209667300,4.075667236328125,0.9891940355300903,-9.355052947998047,-2.7703046798706055
1759335076219667700,4.085667724609375,1.0402888059616089,-9.335365295410156,-2.8175878524780273
1759335076229668000,4.095668212890625,1.0774401426315308,-9.319012641906738,-2.857449531555176
1759335076239668000,4.10566796875,1.1068536043167114,-9.306856155395508,-2.885723829269409
1759335076249668900,4.1156689453125,1.1406892538070679,-9.296648979187012,-2.9054043292999268
1759335076259669000,4.1256689453125,1.186339259147644,-9.28538703918457,-2.9230618476867676
1759335076269668900,4.1356689453125,1.2392703294754028,-9.272252082824707,-2.9427249431610107
1759335076279669000,4.1456689453125,1.287716031074524,-9.258285522460938,-2.965776205062866
1759335076289669000,4.155669189453125,1.31387197971344,-9.247871398925781,-2.986762523651123
1759335076299669000,4.1656689453125,1.3309577703475952,-9.242509841918945,-2.995750904083252
1759335076309669000,4.175669189453125,1.3417562246322632,-9.241606712341309,-2.993744373321533
1759335076319669000,4.1856689453125,1.3484396934509277,-9.24361801147461,-2.9845118522644043
1759335076329668400,4.19566845703125,1.3465365171432495,-9.248841285705566,-2.9691803455352783
1759335076339668200,4.205668212890625,1.322731852531433,-9.260594367980957,-2.943096399307251
1759335076349667600,4.21566748046875,1.2645167112350464,-9.281441688537598,-2.9027013778686523
1759335076359667500,4.22566748046875,1.1667031049728394,-9.310664176940918,-2.8496429920196533
1759335076379667500,4.24566748046875,0.8856728672981262,-9.37796688079834,-2.727548360824585
1759335076389667600,4.25566748046875,0.7204305529594421,-9.407454490661621,-2.6741018295288086
1759335076399667500,4.26566748046875,0.5275196433067322,-9.430580139160156,-2.6373791694641113
1759335076409667600,4.27566748046875,0.2989528477191925,-9.44760513305664,-2.6121697425842285
1759335076419667500,4.28566748046875,0.029024142771959305,-9.457756996154785,-2.5923049449920654
1759335076429667600,4.29566748046875,-0.2605138123035431,-9.459415435791016,-2.573289632797241
1759335076439667500,4.30566748046875,-0.5370244979858398,-9.452435493469238,-2.556002616882324
1759335076449668400,4.31566845703125,-0.7849345803260803,-9.439115524291992,-2.5410501956939697
1759335076459668500,4.32566845703125,-1.0131992101669312,-9.421259880065918,-2.526536226272583
1759335076469668400,4.33566845703125,-1.2363661527633667,-9.398602485656738,-2.511502504348755
1759335076479668500,4.34566845703125,-1.470995545387268,-9.370758056640625,-2.4889771938323975
1759335076489668400,4.35566845703125,-1.7335721254348755,-9.336782455444336,-2.447263479232788
1759335076499668500,4.36566845703125,-2.0234973430633545,-9.293099403381348,-2.390347719192505
1759335076509668400,4.37566845703125,-2.319106340408325,-9.239916801452637,-2.3271496295928955
1759335076519668500,4.38566845703125,-2.5671722888946533,-9.187851905822754,-2.2722415924072266
1759335076529668400,4.39566845703125,-2.7805304527282715,-9.13562297821045,-2.231353282928467
1759335076539668500,4.40566845703125,-2.9769840240478516,-9.082372665405273,-2.1949305534362793
1759335076549667600,4.41566748046875,-3.1640889644622803,-9.029236793518066,-2.152040481567383
1759335076559667500,4.42566748046875,-3.342184066772461,-8.978930473327637,-2.0925328731536865
1759335076569667600,4.43566748046875,-3.505913257598877,-8.933547019958496,-2.0174901485443115
1759335076579667500,4.44566748046875,-3.6378960609436035,-8.898956298828125,-1.934922695159912
1759335076589667600,4.45566748046875,-3.7393245697021484,-8.875425338745117,-1.8477450609207153
1759335076599667500,4.46566748046875,-3.8231585025787354,-8.858528137207031,-1.7549129724502563
1759335076609667600,4.47566748046875,-3.9077587127685547,-8.841301918029785,-1.6524983644485474
1759335076619667500,4.48566748046875,-4.00035285949707,-8.81891918182373,-1.5472265481948853
1759335076629667600,4.49566748046875,-4.109420299530029,-8.782699584960938,-1.4652447700500488
1759335076639667500,4.50566748046875,-4.227757453918457,-8.735011100769043,-1.4126652479171753
1759335076649668400,4.51566845703125,-4.350432872772217,-8.678997993469238,-1.3851895332336426
1759335076659668200,4.525668212890625,-4.466091632843018,-8.62155818939209,-1.3756693601608276
1759335076669668400,4.53566845703125,-4.5611162185668945,-8.571099281311035,-1.3793216943740845
1759335076679668200,4.545668212890625,-4.628756999969482,-8.532356262207031,-1.3939812183380127
1759335076689668400,4.55566845703125,-4.667116165161133,-8.507635116577148,-1.417073130607605
1759335076699668200,4.565668212890625,-4.677509784698486,-8.497773170471191,-1.441765308380127
1759335076709668400,4.57566845703125,-4.663626194000244,-8.50104808807373,-1.4671566486358643
1759335076719668200,4.585668212890625,-4.630344390869141,-8.514613151550293,-1.4936401844024658
1759335076729668400,4.59566845703125,-4.581798076629639,-8.535768508911133,-1.5224156379699707
1759335076739668200,4.605668212890625,-4.519113063812256,-8.563329696655273,-1.5546181201934814
1759335076749667300,4.615667236328125,-4.433734893798828,-8.602108001708984,-1.586091160774231
1759335076759667500,4.62566748046875,-4.331158638000488,-8.649514198303223,-1.6115195751190186
1759335076769667300,4.635667236328125,-4.209086894989014,-8.706405639648438,-1.6284865140914917
1759335076779667500,4.64566748046875,-4.065988063812256,-8.772406578063965,-1.6379104852676392
1759335076789667300,4.655667236328125,-3.9027211666107178,-8.844682693481445,-1.6462299823760986
1759335076799667500,4.66566748046875,-3.7249755859375,-8.919062614440918,-1.656753659248352
1759335076809667300,4.675667236328125,-3.5404129028320312,-8.99095630645752,-1.6727350950241089
1759335076819667500,4.68566748046875,-3.374131679534912,-9.050936698913574,-1.69286048412323
1759335076829667300,4.695667236328125,-3.2620291709899902,-9.086830139160156,-1.7200945615768433
1759335076839667500,4.70566748046875,-3.205686330795288,-9.10028076171875,-1.7545281648635864
1759335076849668400,4.71566845703125,-3.2174832820892334,-9.088455200195312,-1.7938027381896973
1759335076859668200,4.725668212890625,-3.2967185974121094,-9.056243896484375,-1.812717318534851
1759335076869668400,4.73566845703125,-3.38740611076355,-9.02357292175293,-1.8083996772766113
1759335076879668200,4.745668212890625,-3.471186876296997,-8.997363090515137,-1.7799919843673706
1759335076889668400,4.75566845703125,-3.5454609394073486,-8.978484153747559,-1.7281880378723145
1759335076899668200,4.765668212890625,-3.616826295852661,-8.962406158447266,-1.662489891052246
1759335076909668400,4.77566845703125,-3.6829824447631836,-8.947966575622559,-1.593532681465149
1759335076919668200,4.785668212890625,-3.7322728633880615,-8.939380645751953,-1.5256255865097046
1759335076929668400,4.79566845703125,-3.7556164264678955,-8.941559791564941,-1.453760027885437
1759335076939668200,4.805668212890625,-3.7532033920288086,-8.954620361328125,-1.377808690071106
1759335076949667300,4.815667236328125,-3.7314224243164062,-8.973987579345703,-1.3091516494750977
1759335076959667500,4.82566748046875,-3.6987597942352295,-8.995854377746582,-1.250592827796936
1759335076969667300,4.835667236328125,-3.6614270210266113,-9.021594047546387,-1.1724814176559448
1759335076979667500,4.84566748046875,-3.638512134552002,-9.04046630859375,-1.095984935760498
1759335076989667300,4.855667236328125,-3.64617919921875,-9.041977882385254,-1.0571759939193726
1759335076999667500,4.86566748046875,-3.692992925643921,-9.022811889648438,-1.0585410594940186
1759335077009667300,4.875667236328125,-3.7545857429504395,-8.996601104736328,-1.0649070739746094
1759335077019667500,4.88566748046875,-3.8044302463531494,-8.976034164428711,-1.061608076095581
1759335077029667300,4.895667236328125,-3.8255906105041504,-8.966071128845215,-1.0697171688079834
1759335077039667500,4.90566748046875,-3.7989532947540283,-8.97380256652832,-1.0994906425476074
1759335077049668400,4.91566845703125,-3.7285850048065186,-8.997982025146484,-1.1418845653533936
1759335077059668200,4.925668212890625,-3.6194846630096436,-9.03670883178711,-1.1862140893936157
1759335077069668400,4.93566845703125,-3.479684591293335,-9.08568286895752,-1.2296162843704224
1759335077079668200,4.945668212890625,-3.323381185531616,-9.137948036193848,-1.2740192413330078
1759335077089668400,4.95566845703125,-3.1658763885498047,-9.18583869934082,-1.3294600248336792
1759335077099668200,4.965668212890625,-3.015810251235962,-9.226350784301758,-1.3961414098739624
1759335077109668400,4.97566845703125,-2.87499737739563,-9.259222030639648,-1.4734277725219727
1759335077119668200,4.985668212890625,-2.743576765060425,-9.28469467163086,-1.5611305236816406
1759335077129668400,4.99566845703125,-2.6220974922180176,-9.303686141967773,-1.6539982557296753
1759335077139668200,5.005668212890625,-2.5139615535736084,-9.316282272338867,-1.7483359575271606
1759335077149667300,5.015667236328125,-2.420820713043213,-9.323087692260742,-1.8410396575927734
1759335077159667500,5.02566748046875,-2.342634677886963,-9.325146675109863,-1.9296643733978271
1759335077169667300,5.035667236328125,-2.2751317024230957,-9.324687957763672,-2.0109941959381104
1759335077179667500,5.04566748046875,-2.208099842071533,-9.32388973236084,-2.0879452228546143
1759335077189667300,5.055667236328125,-2.132694721221924,-9.325181007385254,-2.1592681407928467
1759335077199667500,5.06566748046875,-2.0300018787384033,-9.335411071777344,-2.213395833969116
1759335077209667300,5.075667236328125,-1.9063602685928345,-9.352387428283691,-2.251366376876831
1759335077219667500,5.08566748046875,-1.7687848806381226,-9.37430191040039,-2.272390365600586
1759335077229667300,5.095667236328125,-1.6281611919403076,-9.398645401000977,-2.276959180831909
1759335077239667500,5.10566748046875,-1.493821144104004,-9.423440933227539,-2.266550302505493
1759335077249668400,5.11566845703125,-1.370823621749878,-9.446314811706543,-2.249004602432251
1759335077259668200,5.125668212890625,-1.2611457109451294,-9.464118003845215,-2.238316535949707
1759335077269668400,5.13566845703125,-1.1588398218154907,-9.477914810180664,-2.2351787090301514
1759335077279668200,5.145668212890625,-1.0563654899597168,-9.488910675048828,-2.2393410205841064
1759335077289668400,5.15566845703125,-0.9495301246643066,-9.497395515441895,-2.2512576580047607
1759335077299668200,5.165668212890625,-0.8380483388900757,-9.503523826599121,-2.2694711685180664
1759335077309668400,5.17566845703125,-0.7216069102287292,-9.508159637451172,-2.2900195121765137
1759335077319668200,5.185668212890625,-0.6006664037704468,-9.510794639587402,-2.313830614089966
1759335077329668400,5.19566845703125,-0.48283088207244873,-9.511320114135742,-2.339156150817871
1759335077339668200,5.205668212890625,-0.3734767735004425,-9.509673118591309,-2.3657326698303223
1759335077349667300,5.215667236328125,-0.27631402015686035,-9.506208419799805,-2.3928213119506836
1759335077359667500,5.22566748046875,-0.19224399328231812,-9.501303672790527,-2.4203968048095703
1759335077369667300,5.235667236328125,-0.11716858297586441,-9.49463939666748,-2.451155424118042
1759335077379667500,5.24566748046875,-0.046022333204746246,-9.48597526550293,-2.486815929412842
1759335077389667300,5.255667236328125,0.025769231840968132,-9.4754638671875,-2.5268683433532715
1759335077399667500,5.26566748046875,0.10229367017745972,-9.463086128234863,-2.570918083190918
1759335077409667300,5.275667236328125,0.18760229647159576,-9.448527336120605,-2.619180917739868
1759335077419667500,5.28566748046875,0.2860012948513031,-9.43122386932373,-2.6720986366271973
1759335077429667300,5.295667236328125,0.4070005416870117,-9.410085678100586,-2.7303106784820557
1759335077439667500,5.30566748046875,0.5364534258842468,-9.3868989944458,-2.787200927734375
1759335077449668400,5.31566845703125,0.6644266247749329,-9.364013671875,-2.8361754417419434
1759335077459668200,5.325668212890625,0.7798764109611511,-9.344159126281738,-2.872018337249756
1759335077469668400,5.33566845703125,0.87856125831604,-9.329609870910645,-2.8907623291015625
1759335077479668200,5.345668212890625,0.9684849977493286,-9.318702697753906,-2.897195339202881
1759335077489668400,5.35566845703125,1.059874415397644,-9.308951377868652,-2.896547794342041
1759335077499668200,5.365668212890625,1.1568422317504883,-9.298606872558594,-2.892695188522339
1759335077509668400,5.37566845703125,1.2458443641662598,-9.288935661315918,-2.8868014812469482
1759335077519668200,5.385668212890625,1.3120640516281128,-9.281293869018555,-2.8820137977600098
1759335077529668400,5.39566845703125,1.348260521888733,-9.276348114013672,-2.8812308311462402
1759335077539668200,5.405668212890625,1.35654878616333,-9.273633003234863,-2.8861021995544434
1759335077549667300,5.415667236328125,1.3374453783035278,-9.275900840759277,-2.887737274169922
1759335077559667500,5.42566748046875,1.30742609500885,-9.282449722290039,-2.8804121017456055
1759335077569667300,5.435667236328125,1.2674384117126465,-9.29306411743164,-2.864018678665161
1759335077579667500,5.44566748046875,1.2027485370635986,-9.30953598022461,-2.8382761478424072
1759335077589667300,5.455667236328125,1.0880714654922485,-9.33515739440918,-2.8001508712768555
1759335077599667500,5.46566748046875,0.9146379232406616,-9.370922088623047,-2.7421340942382812
1759335077609667300,5.475667236328125,0.6975570321083069,-9.409825325012207,-2.671807050704956
1759335077619667500,5.48566748046875,0.4613853394985199,-9.442413330078125,-2.607304573059082
1759335077629667300,5.495667236328125,0.22238895297050476,-9.463565826416016,-2.5615246295928955
1759335077639667500,5.50566748046875,-0.01321779377758503,-9.471989631652832,-2.5399630069732666
1759335077649668400,5.51566845703125,-0.2384679764509201,-9.469955444335938,-2.536341428756714
1759335077659668200,5.525668212890625,-0.447500616312027,-9.461838722229004,-2.538379192352295
1759335077669668400,5.53566845703125,-0.6607722043991089,-9.449287414550781,-2.538626194000244
1759335077679668200,5.545668212890625,-0.8901894688606262,-9.432231903076172,-2.5319221019744873
1759335077689668400,5.55566845703125,-1.1453226804733276,-9.40993595123291,-2.5122745037078857
1759335077699668200,5.565668212890625,-1.4337767362594604,-9.38157844543457,-2.4698634147644043
1759335077709668000,5.575668212890625,-1.7530677318572998,-9.346671104431152,-2.395043134689331
1759335077719668000,5.58566796875,-2.080544948577881,-9.303934097290039,-2.2974066734313965
1759335077729668000,5.595668212890625,-2.390854835510254,-9.253360748291016,-2.1974539756774902
1759335077739668000,5.60566796875,-2.6649253368377686,-9.19869613647461,-2.1100077629089355
1759335077749667300,5.615667236328125,-2.901183843612671,-9.142744064331055,-2.0404860973358154
1759335077759667200,5.625667236328125,-3.1062662601470947,-9.086882591247559,-1.9873955249786377
1759335077769667000,5.6356669921875,-3.286578893661499,-9.032853126525879,-1.943151831626892
1759335077779667200,5.645667236328125,-3.452711343765259,-8.98373794555664,-1.8817542791366577
1759335077789667000,5.6556669921875,-3.614384174346924,-8.934969902038574,-1.8090263605117798
1759335077799667200,5.665667236328125,-3.7724037170410156,-8.886565208435059,-1.7227643728256226
1759335077809667000,5.6756669921875,-3.9165918827056885,-8.841386795043945,-1.630974531173706
1759335077819667200,5.685667236328125,-4.035819053649902,-8.804704666137695,-1.5359251499176025
1759335077829667000,5.6956669921875,-4.126629829406738,-8.778157234191895,-1.4438433647155762
1759335077839667200,5.705667236328125,-4.199602127075195,-8.757017135620117,-1.3593597412109375
1759335077849668000,5.715668212890625,-4.2711968421936035,-8.733563423156738,-1.2851208448410034
1759335077859668000,5.72566796875,-4.350719451904297,-8.702896118164062,-1.2250661849975586
1759335077869668000,5.735668212890625,-4.449129581451416,-8.659202575683594,-1.1802400350570679
1759335077879668000,5.74566796875,-4.563045024871826,-8.603036880493164,-1.1560264825820923
1759335077889668000,5.755668212890625,-4.678377151489258,-8.538764953613281,-1.1715084314346313
1759335077899668000,5.76566796875,-4.78117036819458,-8.476950645446777,-1.2049305438995361
1759335077909668000,5.775668212890625,-4.857302188873291,-8.427934646606445,-1.2435230016708374
1759335077919668000,5.78566796875,-4.89874792098999,-8.398161888122559,-1.2817635536193848
1759335077929668000,5.795668212890625,-4.903530597686768,-8.389823913574219,-1.317745327949524
1759335077939668000,5.80566796875,-4.877041816711426,-8.400375366210938,-1.3482342958450317
1759335077949667000,5.8156669921875,-4.823821544647217,-8.426961898803711,-1.3735922574996948
1759335077959667200,5.825667236328125,-4.748769283294678,-8.465855598449707,-1.3958920240402222
1759335077969667000,5.8356669921875,-4.657541751861572,-8.512642860412598,-1.4184683561325073
1759335077979667200,5.845667236328125,-4.552208423614502,-8.565139770507812,-1.4442203044891357
1759335077989667000,5.8556669921875,-4.431190490722656,-8.623005867004395,-1.4757883548736572
1759335077999667200,5.865667236328125,-4.292428970336914,-8.686225891113281,-1.51465904712677
1759335078009667300,5.875667236328125,-4.123454570770264,-8.760894775390625,-1.553704857826233
1759335078019667500,5.88566748046875,-3.9357759952545166,-8.840336799621582,-1.5900769233703613
1759335078029667300,5.895667236328125,-3.73775053024292,-8.919441223144531,-1.6256635189056396
1759335078039667500,5.90566748046875,-3.5457050800323486,-8.99120044708252,-1.6602187156677246
1759335078049668000,5.915668212890625,-3.403696060180664,-9.041068077087402,-1.6863988637924194
1759335078059668200,5.925668212890625,-3.3275089263916016,-9.066048622131348,-1.7041563987731934
1759335078069668400,5.93566845703125,-3.3406918048858643,-9.06009292602539,-1.7100287675857544
1759335078079668200,5.945668212890625,-3.4154794216156006,-9.032779693603516,-1.7068629264831543
1759335078089668400,5.95566845703125,-3.506514072418213,-8.999113082885742,-1.7000513076782227
1759335078099668200,5.965668212890625,-3.5877065658569336,-8.969383239746094,-1.6877743005752563
1759335078109668400,5.97566845703125,-3.6533126831054688,-8.947266578674316,-1.664257526397705
1759335078119668200,5.985668212890625,-3.7096734046936035,-8.93220329284668,-1.619834065437317
1759335078129668400,5.99566845703125,-3.7655415534973145,-8.918685913085938,-1.5644453763961792
1759335078139668200,6.005668212890625,-3.8133840560913086,-8.90969181060791,-1.4983806610107422
1759335078149667300,6.015667236328125,-3.8418262004852295,-8.910562515258789,-1.4185642004013062
1759335078159667500,6.02566748046875,-3.844437837600708,-8.92235279083252,-1.3348349332809448
1759335078169667300,6.035667236328125,-3.816089153289795,-8.944360733032227,-1.2672964334487915
1759335078179667500,6.04566748046875,-3.7701568603515625,-8.970314025878906,-1.2204136848449707
1759335078189667300,6.055667236328125,-3.741455078125,-8.987561225891113,-1.1810697317123413
1759335078199667500,6.06566748046875,-3.736860752105713,-8.993095397949219,-1.1532775163650513
1759335078209667300,6.075667236328125,-3.7411465644836426,-8.990307807922363,-1.1610252857208252
1759335078219667500,6.08566748046875,-3.753732919692993,-8.97944164276123,-1.203676700592041
1759335078229667300,6.095667236328125,-3.762120246887207,-8.973822593688965,-1.2193348407745361
1759335078239667500,6.10566748046875,-3.749297618865967,-8.980900764465332,-1.2065695524215698
1759335078249668400,6.11566845703125,-3.719022274017334,-8.995368003845215,-1.1924852132797241
1759335078259668200,6.125668212890625,-3.6735618114471436,-9.015396118164062,-1.1821937561035156
1759335078269668400,6.13566845703125,-3.6095962524414062,-9.042291641235352,-1.1737874746322632
1759335078279668200,6.145668212890625,-3.523514986038208,-9.076390266418457,-1.1721543073654175
1759335078289668400,6.15566845703125,-3.4167327880859375,-9.115682601928711,-1.1833908557891846
1759335078299668200,6.165668212890625,-3.295135736465454,-9.156890869140625,-1.2096120119094849
1759335078309668400,6.17566845703125,-3.1636159420013428,-9.197513580322266,-1.2519705295562744
1759335078319668200,6.185668212890625,-3.0292460918426514,-9.235055923461914,-1.30663001537323
1759335078329668400,6.19566845703125,-2.8926966190338135,-9.269394874572754,-1.3713494539260864
1759335078339668200,6.205668212890625,-2.7557694911956787,-9.300171852111816,-1.443151593208313
1759335078349667300,6.215667236328125,-2.627735137939453,-9.325592994689941,-1.5160127878189087
1759335078359667500,6.22566748046875,-2.510772943496704,-9.345707893371582,-1.5886399745941162
1759335078369667300,6.235667236328125,-2.4037539958953857,-9.360676765441895,-1.664217472076416
1759335078379667500,6.24566748046875,-2.3045566082000732,-9.370920181274414,-1.7449989318847656
1759335078389667300,6.255667236328125,-2.216519832611084,-9.376672744750977,-1.826195478439331
1759335078399667500,6.26566748046875,-2.1353530883789062,-9.380136489868164,-1.9034572839736938
1759335078409667300,6.275667236328125,-2.050869941711426,-9.384596824645996,-1.9731159210205078
1759335078419667500,6.28566748046875,-1.9521985054016113,-9.392735481262207,-2.0335142612457275
1759335078429667300,6.295667236328125,-1.835558295249939,-9.40591049194336,-2.0808210372924805
1759335078439667500,6.30566748046875,-1.7042945623397827,-9.4232759475708,-2.113581418991089
1759335078449668400,6.31566845703125,-1.567058801651001,-9.442728996276855,-2.132913589477539
1759335078459668200,6.325668212890625,-1.4377741813659668,-9.46235179901123,-2.13693904876709
1759335078469668400,6.33566845703125,-1.3203402757644653,-9.480127334594727,-2.134011745452881
1759335078479668200,6.345668212890625,-1.215484619140625,-9.495942115783691,-2.1259446144104004
1759335078489668400,6.35566845703125,-1.1220219135284424,-9.509330749511719,-2.117434024810791
1759335078499668200,6.365668212890625,-1.0350286960601807,-9.520831108093262,-2.1101179122924805
1759335078509668400,6.37566845703125,-0.9476081728935242,-9.530712127685547,-2.106588363647461
1759335078519668200,6.385668212890625,-0.8543944954872131,-9.538677215576172,-2.1104133129119873
1759335078529668400,6.39566845703125,-0.752165675163269,-9.544376373291016,-2.123478889465332
1759335078539668200,6.405668212890625,-0.6417161822319031,-9.547691345214844,-2.144758462905884
1759335078549667300,6.415667236328125,-0.5272685885429382,-9.549256324768066,-2.1688196659088135
1759335078559667500,6.42566748046875,-0.4133528470993042,-9.549732208251953,-2.191324472427368
1759335078569667300,6.435667236328125,-0.30395373702049255,-9.548145294189453,-2.215972900390625
1759335078579667500,6.44566748046875,-0.20735037326812744,-9.54464054107666,-2.242074966430664
1759335078589667300,6.455667236328125,-0.1220826581120491,-9.539216041564941,-2.2712135314941406
1759335078599667500,6.46566748046875,-0.046654198318719864,-9.532652854919434,-2.3013370037078857
1759335078609667300,6.475667236328125,0.023545710369944572,-9.524494171142578,-2.3352468013763428
1759335078619667500,6.48566748046875,0.09094342589378357,-9.51525592803955,-2.3710310459136963
1759335078629634000,6.495634033203125,0.15789338946342468,-9.504447937011719,-2.4104888439178467
1759335078639600600,6.5056005859375,0.23011749982833862,-9.491531372070312,-2.4551796913146973
1759335078649568300,6.515568359375,0.31562837958335876,-9.475889205932617,-2.5055980682373047
1759335078659534800,6.525534912109375,0.42277708649635315,-9.457558631896973,-2.5585312843322754
1759335078669501700,6.535501708984375,0.5534825921058655,-9.436341285705566,-2.6113715171813965
1759335078679468300,6.54546826171875,0.6990411281585693,-9.412858009338379,-2.660752534866333
1759335078689435000,6.555434814453125,0.8407765626907349,-9.388543128967285,-2.7052719593048096
1759335078699401700,6.565401611328125,0.956468939781189,-9.365549087524414,-2.7461864948272705
1759335078709368300,6.575368408203125,1.03055739402771,-9.34658145904541,-2.7838072776794434
1759335078719335000,6.5853349609375,1.0502151250839233,-9.334553718566895,-2.8166186809539795
1759335078729301800,6.5953017578125,1.0585647821426392,-9.325961112976074,-2.841845989227295
1759335078739268400,6.605268310546875,1.0745959281921387,-9.31929874420166,-2.8575971126556396
1759335078749234200,6.615234130859375,1.1067354679107666,-9.312692642211914,-2.8668768405914307
1759335078759200800,6.62520068359375,1.1503236293792725,-9.305729866027832,-2.8723487854003906
1759335078769167400,6.63516748046875,1.1930477619171143,-9.298709869384766,-2.8776066303253174
1759335078779134200,6.64513427734375,1.225203514099121,-9.292725563049316,-2.8834125995635986
1759335078789100800,6.655100830078125,1.2421811819076538,-9.289847373962402,-2.885460615158081
1759335078799067400,6.6650673828125,1.237761378288269,-9.291460990905762,-2.8821263313293457
1759335078809034200,6.6750341796875,1.2051198482513428,-9.299245834350586,-2.8708555698394775
1759335078819000800,6.685000732421875,1.1418930292129517,-9.313295364379883,-2.8510780334472656
1759335078828967400,6.694967529296875,1.04049813747406,-9.336990356445312,-2.8121092319488525
1759335078838934000,6.70493408203125,0.9146034717559814,-9.367609024047852,-2.7534408569335938
1759335078848901600,6.714901611328125,0.7616115808486938,-9.4053955078125,-2.6699323654174805
1759335078858868200,6.7248681640625,0.5825067758560181,-9.446438789367676,-2.5682013034820557
1759335078868835000,6.7348349609375,0.382357120513916,-9.482872009277344,-2.469621181488037
1759335078878801700,6.7448017578125,0.17209990322589874,-9.509282112121582,-2.3903632164001465
1759335078888768300,6.754768310546875,-0.0344797782599926,-9.524759292602539,-2.3340401649475098
1759335078898735000,6.764735107421875,-0.23145431280136108,-9.531905174255371,-2.293323516845703
1759335078908701700,6.77470166015625,-0.42326751351356506,-9.532541275024414,-2.2630958557128906
1759335078918668300,6.784668212890625,-0.6225111484527588,-9.527989387512207,-2.2360715866088867
1759335078928668400,6.79466845703125,-0.8377905488014221,-9.516883850097656,-2.2128546237945557
1759335078938668300,6.804668212890625,-1.068068265914917,-9.49764633178711,-2.1962778568267822
1759335078948667400,6.81466748046875,-1.3122587203979492,-9.477038383483887,-2.152611017227173
1759335078958667500,6.82466748046875,-1.5606412887573242,-9.457117080688477,-2.0729691982269287
1759335078968667400,6.83466748046875,-1.801651954650879,-9.434906005859375,-1.9764845371246338
1759335078978667500,6.84466748046875,-2.021523952484131,-9.409159660339355,-1.884455680847168
1759335078988667400,6.85466748046875,-2.2239749431610107,-9.378066062927246,-1.8098928928375244
1759335078998667500,6.86466748046875,-2.417099714279175,-9.343596458435059,-1.739174723625183
1759335079008667400,6.87466748046875,-2.5938785076141357,-9.306706428527832,-1.6813050508499146
1759335079018667500,6.88466748046875,-2.74094295501709,-9.27684211730957,-1.6117414236068726
1759335079028667400,6.89466748046875,-2.8426673412323,-9.259098052978516,-1.535702109336853
1759335079038667500,6.90466748046875,-2.9094314575195312,-9.24863052368164,-1.4724183082580566
1759335079048668200,6.914668212890625,-2.958455801010132,-9.240708351135254,-1.4236513376235962
1759335079058668300,6.924668212890625,-3.0047664642333984,-9.233542442321777,-1.3722586631774902
1759335079068668200,6.934668212890625,-3.0576703548431396,-9.223827362060547,-1.3196686506271362
1759335079078668300,6.944668212890625,-3.1149322986602783,-9.211174011230469,-1.2733196020126343
1759335079088668200,6.954668212890625,-3.1798207759857178,-9.193720817565918,-1.2385741472244263
1759335079098668300,6.964668212890625,-3.2626452445983887,-9.168451309204102,-1.2102593183517456
1759335079108668400,6.97466845703125,-3.3646507263183594,-9.134966850280762,-1.1838293075561523
1759335079118668000,6.98466796875,-3.4854736328125,-9.09249496459961,-1.1609463691711426
1759335079148667100,7.014667236328125,-3.9919910430908203,-8.886177062988281,-1.1270184516906738
1759335079158667300,7.024667236328125,-4.17171049118042,-8.800599098205566,-1.1472046375274658
1759335079168667100,7.034667236328125,-4.2898993492126465,-8.737321853637695,-1.1940703392028809
1759335079178667300,7.044667236328125,-4.348610877990723,-8.701244354248047,-1.2439955472946167
1759335079188667100,7.054667236328125,-4.354716777801514,-8.691760063171387,-1.2882906198501587
1759335079198667300,7.064667236328125,-4.3193440437316895,-8.703913688659668,-1.3248554468154907
1759335079208667100,7.074667236328125,-4.255312919616699,-8.729968070983887,-1.3600950241088867
1759335079218667300,7.084667236328125,-4.1729559898376465,-8.763370513916016,-1.3998332023620605
1759335079228667100,7.094667236328125,-4.078886985778809,-8.800522804260254,-1.4432778358459473
1759335079238667300,7.104667236328125,-3.975255012512207,-8.840228080749512,-1.4891735315322876
1759335079248668000,7.11466796875,-3.8596348762512207,-8.882698059082031,-1.5396952629089355
1759335079258668000,7.12466796875,-3.7273166179656982,-8.929418563842773,-1.5945833921432495
1759335079268668000,7.13466796875,-3.5765159130096436,-8.981156349182129,-1.6484172344207764
1759335079278668000,7.14466796875,-3.4092445373535156,-9.037528038024902,-1.6940841674804688
1759335079288668000,7.15466796875,-3.228485107421875,-9.098097801208496,-1.7237606048583984
1759335079298668000,7.16466796875,-3.0539309978485107,-9.155230522155762,-1.7393033504486084
1759335079308668000,7.17466796875,-2.904740571975708,-9.20340633392334,-1.7405956983566284
1759335079318668000,7.18466796875,-2.8115234375,-9.23426628112793,-1.730138897895813
1759335079328668000,7.19466796875,-2.770508050918579,-9.24892520904541,-1.7180378437042236
1759335079338668000,7.20466796875,-2.7905325889587402,-9.245317459106445,-1.7049565315246582
1759335079348667100,7.214667236328125,-2.8534576892852783,-9.228043556213379,-1.6943843364715576
1759335079358667000,7.2246669921875,-2.9270741939544678,-9.205162048339844,-1.693267583847046
1759335079368667100,7.234667236328125,-2.988741636276245,-9.184089660644531,-1.6999846696853638
1759335079378667000,7.2446669921875,-3.033280611038208,-9.168699264526367,-1.7041665315628052
1759335079388667100,7.254667236328125,-3.066559076309204,-9.158108711242676,-1.7015283107757568
1759335079398667000,7.2646669921875,-3.0948610305786133,-9.151790618896484,-1.6841773986816406
1759335079408667100,7.274667236328125,-3.121926784515381,-9.148253440856934,-1.6531744003295898
1759335079418667300,7.284667236328125,-3.143956184387207,-9.149113655090332,-1.6059435606002808
1759335079428667400,7.29466748046875,-3.1571102142333984,-9.153838157653809,-1.55238938331604
1759335079438667300,7.304667236328125,-3.16465425491333,-9.159332275390625,-1.5038117170333862
1759335079448668200,7.314668212890625,-3.1694021224975586,-9.162376403808594,-1.4749685525894165
1759335079458668300,7.324668212890625,-3.169172525405884,-9.16227912902832,-1.47616446018219
1759335079468668200,7.334668212890625,-3.173408031463623,-9.15973949432373,-1.4827839136123657
1759335079478668300,7.344668212890625,-3.1862943172454834,-9.157747268676758,-1.4673378467559814
1759335079488668200,7.354668212890625,-3.2008180618286133,-9.157611846923828,-1.4363298416137695
1759335079498668300,7.364668212890625,-3.215717315673828,-9.157183647155762,-1.4053884744644165
1759335079508669200,7.374669189453125,-3.224107027053833,-9.159053802490234,-1.373548984527588
1759335079518669300,7.38466943359375,-3.209230899810791,-9.169942855834961,-1.3353034257888794
1759335079528669200,7.394669189453125,-3.1646687984466553,-9.190282821655273,-1.3013532161712646
1759335079538669300,7.40466943359375,-3.0904438495635986,-9.218124389648438,-1.2826497554779053
1759335079548668400,7.41466845703125,-2.998779058456421,-9.248417854309082,-1.2820491790771484
1759335079558668300,7.424668212890625,-2.9011855125427246,-9.277566909790039,-1.2960814237594604
1759335079568668400,7.43466845703125,-2.802276849746704,-9.304402351379395,-1.3210577964782715
1759335079578668300,7.444668212890625,-2.7036101818084717,-9.32859992980957,-1.355623722076416
1759335079588668400,7.45466845703125,-2.605868101119995,-9.34988021850586,-1.3997470140457153
1759335079598668300,7.464668212890625,-2.509568691253662,-9.368939399719238,-1.4473931789398193
1759335079608668400,7.47466845703125,-2.422614097595215,-9.38512897491455,-1.489965558052063
1759335079618668300,7.484668212890625,-2.3451521396636963,-9.398624420166016,-1.5284051895141602
1759335079628668400,7.49466845703125,-2.278022050857544,-9.4089937210083,-1.5657936334609985
1759335079638668300,7.504668212890625,-2.2140538692474365,-9.417612075805664,-1.6051710844039917
1759335079648669200,7.514669189453125,-2.151547908782959,-9.425161361694336,-1.6453043222427368
1759335079658669300,7.52466943359375,-2.0872137546539307,-9.433012008666992,-1.682821273803711
1759335079668669200,7.534669189453125,-2.0159809589385986,-9.441805839538574,-1.719942569732666
1759335079678669300,7.54466943359375,-1.9346201419830322,-9.45099925994873,-1.7622867822647095
1759335079688669200,7.554669189453125,-1.8448364734649658,-9.459755897521973,-1.810961127281189
1759335079698669300,7.56466943359375,-1.7471990585327148,-9.468236923217773,-1.8627418279647827
1759335079708669200,7.574669189453125,-1.643898606300354,-9.47701644897461,-1.9114526510238647
1759335079718669300,7.58466943359375,-1.5372511148452759,-9.486413955688477,-1.953153371810913
1759335079728669200,7.594669189453125,-1.428887128829956,-9.495789527893066,-1.9895495176315308
1759335079738669300,7.60466943359375,-1.3211451768875122,-9.504008293151855,-2.0244202613830566
1759335079748668400,7.61466845703125,-1.2102826833724976,-9.511449813842773,-2.0585687160491943
1759335079758668300,7.624668212890625,-1.095918893814087,-9.518157005310059,-2.091338634490967
1759335079768668400,7.63466845703125,-0.9781786799430847,-9.52435302734375,-2.121271848678589
1759335079778668300,7.644668212890625,-0.8615010976791382,-9.529918670654297,-2.1467137336730957
1759335079788668400,7.65466845703125,-0.7419076561927795,-9.53442668914795,-2.1712300777435303
1759335079798668300,7.664668212890625,-0.6126306653022766,-9.537097930908203,-2.1996257305145264
1759335079808667400,7.67466748046875,-0.4677659869194031,-9.537755012512207,-2.232118844985962
1759335079818667500,7.68466748046875,-0.30520373582839966,-9.537286758422852,-2.262052297592163
1759335079828667400,7.69466748046875,-0.12356764078140259,-9.535513877868652,-2.28664493560791
1759335079838667500,7.70466748046875,0.07000935822725296,-9.530763626098633,-2.3085622787475586
1759335079848668400,7.71466845703125,0.26141661405563354,-9.522237777709961,-2.3299753665924072
1759335079858668300,7.724668212890625,0.4328010678291321,-9.51052188873291,-2.352184295654297
1759335079868668400,7.73466845703125,0.5805422067642212,-9.497591018676758,-2.3725130558013916
1759335079878668300,7.744668212890625,0.7009434700012207,-9.484888076782227,-2.3907322883605957
1759335079888668400,7.75466845703125,0.7935594916343689,-9.473530769348145,-2.406766891479492
1759335079898668300,7.764668212890625,0.8640551567077637,-9.463102340698242,-2.4234588146209717
1759335079908669700,7.774669677734375,0.9175029993057251,-9.45286750793457,-2.4437096118927
1759335079918669600,7.784669677734375,0.9592092037200928,-9.442169189453125,-2.4688639640808105
1759335079928669700,7.794669677734375,0.9987278580665588,-9.429998397827148,-2.4995760917663574
1759335079938669600,7.804669677734375,1.0477288961410522,-9.414997100830078,-2.5358071327209473
1759335079948668700,7.814668701171875,1.1173127889633179,-9.39584732055664,-2.576749324798584
1759335079958668800,7.824668701171875,1.207864761352539,-9.37441635131836,-2.6137027740478516
1759335079968668700,7.834668701171875,1.3151053190231323,-9.353652954101562,-2.6362245082855225
1759335079978668800,7.844668701171875,1.453569769859314,-9.332548141479492,-2.638317346572876
1759335079988668700,7.854668701171875,1.6014046669006348,-9.310178756713867,-2.631739377975464
1759335079998668800,7.864668701171875,1.7471386194229126,-9.28752326965332,-2.6190550327301025
1759335080008668700,7.874668701171875,1.8854715824127197,-9.265361785888672,-2.6015284061431885
1759335080018668800,7.884668701171875,2.003488063812256,-9.243799209594727,-2.590034008026123
1759335080028668700,7.894668701171875,2.08559513092041,-9.22357177734375,-2.5973262786865234
1759335080038668800,7.904668701171875,2.1239047050476074,-9.206192970275879,-2.627767324447632
1759335080048669400,7.91466943359375,2.1232028007507324,-9.194587707519531,-2.6686437129974365
1759335080058669600,7.924669677734375,2.094146251678467,-9.190648078918457,-2.704921245574951
1759335080068669400,7.93466943359375,2.046516180038452,-9.194222450256348,-2.729151725769043
1759335080078669600,7.944669677734375,1.98949134349823,-9.204029083251953,-2.738222360610962
1759335080088669400,7.95466943359375,1.9236036539077759,-9.219888687133789,-2.731928825378418
1759335080098669600,7.964669677734375,1.8464257717132568,-9.24021053314209,-2.7165093421936035
1759335080108669700,7.974669677734375,1.750290036201477,-9.26665210723877,-2.6899349689483643
1759335080118669600,7.984669677734375,1.627197027206421,-9.299896240234375,-2.6522064208984375
1759335080128669700,7.994669677734375,1.4690535068511963,-9.337478637695312,-2.612215995788574
1759335080138669600,8.004669677734375,1.2742791175842285,-9.374335289001465,-2.582274913787842
1759335080148668700,8.014668701171875,1.0426242351531982,-9.406384468078613,-2.56957745552063
1759335080158668800,8.024668701171874,0.7739686369895935,-9.430706977844238,-2.5753772258758545
1759335080168668700,8.034668701171874,0.4816422462463379,-9.446008682250977,-2.5905447006225586
1759335080178668800,8.044668701171876,0.1906266212463379,-9.451693534851074,-2.6074869632720947
1759335080188668700,8.054668701171876,-0.08517039567232132,-9.448779106140137,-2.6236257553100586
1759335080198668800,8.064668701171875,-0.3426315486431122,-9.436460494995117,-2.646826982498169
1759335080208667400,8.07466748046875,-0.5932578444480896,-9.412073135375977,-2.689039468765259
1759335080218667500,8.08466748046875,-0.8375649452209473,-9.385895729064941,-2.715376377105713
1759335080228667400,8.09466748046875,-1.0893319845199585,-9.357393264770508,-2.7244625091552734
1759335080238667500,8.10466748046875,-1.354131817817688,-9.326376914978027,-2.7119741439819336
1759335080248668400,8.11466845703125,-1.631070613861084,-9.292261123657227,-2.6765053272247314
1759335080258668300,8.124668212890626,-1.9133871793746948,-9.254029273986816,-2.6214535236358643
1759335080268668400,8.13466845703125,-2.193500518798828,-9.211429595947266,-2.5510683059692383
1759335080278668300,8.144668212890625,-2.4649341106414795,-9.161797523498535,-2.481015205383301
1759335080288668400,8.15466845703125,-2.720841884613037,-9.103409767150879,-2.4278931617736816
1759335080298668300,8.164668212890625,-2.9561026096343994,-9.038116455078125,-2.396665573120117
1759335080308668400,8.17466845703125,-3.1641106605529785,-8.970873832702637,-2.383601665496826
1759335080318668300,8.184668212890625,-3.3217976093292236,-8.911457061767578,-2.3919801712036133
1759335080328668400,8.19466845703125,-3.444760799407959,-8.860322952270508,-2.407946825027466
1759335080338668300,8.204668212890626,-3.5333449840545654,-8.820749282836914,-2.4248294830322266
1759335080348667400,8.21466748046875,-3.5715253353118896,-8.799544334411621,-2.44586181640625
1759335080358667500,8.22466748046875,-3.5757334232330322,-8.792719841003418,-2.464141845703125
1759335080368667400,8.23466748046875,-3.548879623413086,-8.798778533935547,-2.4813125133514404
1759335080378667500,8.24466748046875,-3.4941651821136475,-8.816356658935547,-2.4965014457702637
1759335080388667400,8.25466748046875,-3.4293150901794434,-8.838915824890137,-2.5066468715667725
1759335080398667500,8.26466748046875,-3.374042510986328,-8.86058521270752,-2.5052006244659424
1759335080408667400,8.27466748046875,-3.3416662216186523,-8.878761291503906,-2.4840540885925293
1759335080418667500,8.28466748046875,-3.3263700008392334,-8.895337104797363,-2.4450340270996094
1759335080428667400,8.29466748046875,-3.316490411758423,-8.912348747253418,-2.3959996700286865
1759335080438667500,8.30466748046875,-3.301527261734009,-8.927115440368652,-2.361445665359497
1759335080448668200,8.314668212890625,-3.2752437591552734,-8.937131881713867,-2.3601179122924805
1759335080458668300,8.324668212890625,-3.2385306358337402,-8.945841789245605,-2.3777692317962646
1759335080468668200,8.334668212890625,-3.1884257793426514,-8.956707000732422,-2.4044010639190674
1759335080478668300,8.344668212890625,-3.1211371421813965,-8.970439910888672,-2.4412360191345215
1759335080488668200,8.354668212890624,-3.03476619720459,-8.98746395111084,-2.4871323108673096
1759335080498668300,8.364668212890624,-2.930917978286743,-9.007820129394531,-2.53745174407959
1759335080508668200,8.374668212890626,-2.8198976516723633,-9.02846622467041,-2.589393138885498
1759335080518668300,8.384668212890626,-2.711759328842163,-9.04481029510498,-2.6472339630126953
1759335080538668300,8.404668212890625,-2.5370333194732666,-9.0527982711792,-2.7892608642578125
1759335080548667400,8.41466748046875,-2.491103172302246,-9.043694496154785,-2.859323263168335
1759335080558667500,8.42466748046875,-2.497252941131592,-9.025331497192383,-2.911545753479004
1759335080568667400,8.43466748046875,-2.546830654144287,-9.005640983581543,-2.9295220375061035
1759335080578667500,8.44466748046875,-2.6139566898345947,-8.992450714111328,-2.9108521938323975
1759335080588667400,8.45466748046875,-2.7048468589782715,-8.986632347106934,-2.8449833393096924
1759335080598667500,8.46466748046875,-2.8042566776275635,-8.985390663146973,-2.7511448860168457
1759335080608667400,8.47466748046875,-2.880185842514038,-8.983692169189453,-2.677264928817749
1759335080618667500,8.48466748046875,-2.9138898849487305,-8.979621887207031,-2.654346466064453
1759335080628667400,8.49466748046875,-2.9306552410125732,-8.969724655151367,-2.6692779064178467
1759335080638667500,8.50466748046875,-2.9553825855255127,-8.953848838806152,-2.695173501968384
1759335080648668200,8.514668212890625,-2.9987499713897705,-8.934694290161133,-2.7108612060546875
1759335080658668300,8.524668212890624,-3.0641613006591797,-8.918224334716797,-2.691824436187744
1759335080668668200,8.534668212890624,-3.1414806842803955,-8.904397964477539,-2.648167371749878
1759335080678668300,8.544668212890626,-3.2231245040893555,-8.894937515258789,-2.5810067653656006
1759335080688668200,8.554668212890626,-3.2953853607177734,-8.890469551086426,-2.503995895385742
1759335080698668300,8.564668212890625,-3.3503637313842773,-8.88837718963623,-2.4375247955322266
1759335080708668400,8.57466845703125,-3.3934032917022705,-8.886699676513672,-2.383544921875
1759335080718668300,8.584668212890625,-3.431096315383911,-8.88499927520752,-2.3354785442352295
1759335080728668400,8.59466845703125,-3.4661967754364014,-8.882891654968262,-2.2911698818206787
1759335080738668300,8.604668212890624,-3.4998629093170166,-8.879979133605957,-2.250979423522949
1759335080748667400,8.61466748046875,-3.5403006076812744,-8.87630844116211,-2.2016918659210205
1759335080758667500,8.62466748046875,-3.579362630844116,-8.876432418823242,-2.1370160579681396
1759335080768667400,8.63466748046875,-3.5900189876556396,-8.887581825256348,-2.0718770027160645
1759335080778667500,8.64466748046875,-3.55417537689209,-8.914926528930664,-2.015371084213257
1759335080788667400,8.65466748046875,-3.5168309211730957,-8.942317008972168,-1.9587630033493042
1759335080798667500,8.66466748046875,-3.488502025604248,-8.970245361328125,-1.880118489265442
1759335080808667400,8.67466748046875,-3.4373605251312256,-9.007824897766113,-1.7926725149154663
1759335080818667500,8.68466748046875,-3.3566982746124268,-9.057413101196289,-1.6927876472473145
1759335080828667400,8.69466748046875,-3.2699201107025146,-9.11087417602539,-1.5714067220687866
1759335080838667500,8.70466748046875,-3.1984524726867676,-9.158102989196777,-1.4383608102798462
1759335080848668200,8.714668212890626,-3.1396985054016113,-9.195900917053223,-1.3220304250717163
1759335080858668300,8.724668212890625,-3.082082748413086,-9.227118492126465,-1.2373857498168945
1759335080868668200,8.734668212890625,-3.0161385536193848,-9.258133888244629,-1.1660826206207275
1759335080878668300,8.744668212890625,-2.9316277503967285,-9.292078018188477,-1.110257863998413
1759335080888668200,8.754668212890625,-2.8241865634918213,-9.3305082321167,-1.0656851530075073
1759335080898668300,8.764668212890625,-2.705139398574829,-9.371097564697266,-1.0171312093734741
1759335080908668200,8.774668212890624,-2.589036703109741,-9.409856796264648,-0.9598665237426758
1759335080918668300,8.784668212890624,-2.4878921508789062,-9.444324493408203,-0.8858742117881775
1759335080928668200,8.794668212890626,-2.4096012115478516,-9.472862243652344,-0.7927961349487305
1759335080938668300,8.804668212890626,-2.3477797508239746,-9.496635437011719,-0.6865957975387573
1759335080948667400,8.81466748046875,-2.289396047592163,-9.5181245803833,-0.5776441097259521
1759335080958667500,8.82466748046875,-2.2103400230407715,-9.542025566101074,-0.4840224087238312
1759335080968667400,8.83466748046875,-2.0916383266448975,-9.571734428405762,-0.4208545982837677
1759335080978667500,8.84466748046875,-1.9378163814544678,-9.605352401733398,-0.3898772895336151
1759335080988667400,8.85466748046875,-1.763808250427246,-9.638846397399902,-0.3892486095428467
1759335080998667500,8.86466748046875,-1.5789707899093628,-9.670122146606445,-0.40670186281204224
1759335081008667400,8.87466748046875,-1.386094570159912,-9.698537826538086,-0.43250471353530884
1759335081018667300,8.884667236328125,-1.1928560733795166,-9.723526000976562,-0.4471724033355713
1759335081028667400,8.89466748046875,-1.0054723024368286,-9.745182991027832,-0.43641194701194763
1759335081038667300,8.904667236328125,-0.8374424576759338,-9.763062477111816,-0.3888169527053833
1759335081048668200,8.914668212890625,-0.6851517558097839,-9.777322769165039,-0.32326194643974304
1759335081058668300,8.924668212890625,-0.5419839024543762,-9.788412094116211,-0.25121113657951355
1759335081068668200,8.934668212890625,-0.40604981780052185,-9.796597480773926,-0.17886458337306976
1759335081078668300,8.944668212890624,-0.2774930000305176,-9.801774978637695,-0.13569793105125427
1759335081088668200,8.954668212890626,-0.1601712703704834,-9.804546356201172,-0.12362638115882874
1759335081098668300,8.964668212890626,-0.0721340924501419,-9.80549144744873,-0.13037672638893127
1759335081108668200,8.974668212890625,-0.02880816161632538,-9.805669784545898,-0.13465192914009094
1759335081118668300,8.984668212890625,-0.015064883045852184,-9.805790901184082,-0.1276370733976364
1759335081128668400,8.99466845703125,0.01386953517794609,-9.805806159973145,-0.12658347189426422
1759335081138668300,9.004668212890625,0.06858020275831223,-9.805350303649902,-0.14246873557567596
1759335081148667400,9.01466748046875,0.13881225883960724,-9.803946495056152,-0.1825307011604309
1759335081158667500,9.02466748046875,0.21183423697948456,-9.800829887390137,-0.26267653703689575
1759335081168667400,9.03466748046875,0.2834533751010895,-9.795355796813965,-0.37499913573265076
1759335081178667500,9.04466748046875,0.33000147342681885,-9.787022590637207,-0.5247372984886169
1759335081188667400,9.05466748046875,0.3385603427886963,-9.776117324829102,-0.6950111389160156
1759335081198667500,9.06466748046875,0.3364218771457672,-9.764678955078125,-0.8413061499595642
1759335081208667400,9.07466748046875,0.33473873138427734,-9.756513595581055,-0.9319506287574768
1759335081218667500,9.08466748046875,0.3203209340572357,-9.750739097595215,-0.995358943939209
1759335081228667400,9.09466748046875,0.3115735650062561,-9.743885040283203,-1.062790036201477
1759335081238667500,9.10466748046875,0.34002748131752014,-9.735052108764648,-1.132852554321289
1759335081248668400,9.11466845703125,0.39364102482795715,-9.726139068603516,-1.1904683113098145
1759335081258668300,9.124668212890626,0.4635065793991089,-9.717933654785156,-1.2316069602966309
1759335081268668400,9.13466845703125,0.5365656614303589,-9.710493087768555,-1.2603131532669067
1759335081278668300,9.144668212890625,0.6085527539253235,-9.704449653625488,-1.2741583585739136
1759335081288668400,9.15466845703125,0.6882604956626892,-9.69991683959961,-1.2680009603500366
1759335081298668300,9.164668212890625,0.7660448551177979,-9.69883918762207,-1.2311640977859497
1759335081308668400,9.17466845703125,0.8166995644569397,-9.702534675598145,-1.1678212881088257
1759335081318668300,9.184668212890625,0.8342901468276978,-9.711783409118652,-1.074840784072876
1759335081328668400,9.19466845703125,0.8257091045379639,-9.726417541503906,-0.9407526254653931
1759335081338668300,9.204668212890626,0.7919608354568481,-9.744958877563477,-0.7606847882270813
1759335081348667400,9.21466748046875,0.7251397371292114,-9.761531829833984,-0.5973340272903442
1759335081358667500,9.22466748046875,0.6395958662033081,-9.773963928222656,-0.4801487922668457
1759335081368667400,9.23466748046875,0.5332762598991394,-9.78499984741211,-0.3735661804676056
1759335081378667500,9.24466748046875,0.4062736928462982,-9.794833183288574,-0.25717151165008545
1759335081388667400,9.25466748046875,0.2614297568798065,-9.80229663848877,-0.1289282888174057
1759335081398667500,9.26466748046875,0.11381518095731735,-9.805912017822266,-0.03594546765089035
1759335081408667400,9.27466748046875,-0.01965980976819992,-9.806604385375977,0.007069792598485947
1759335081418667300,9.284667236328126,-0.14482875168323517,-9.805546760559082,0.01665273681282997
1759335081428667400,9.29466748046875,-0.2732365131378174,-9.802800178527832,0.015925006940960884
1759335081438667300,9.304667236328125,-0.40933892130851746,-9.798046112060547,0.024715924635529518
1759335081448668200,9.314668212890625,-0.5521113276481628,-9.790973663330078,0.045621056109666824
1759335081458668300,9.324668212890625,-0.690453052520752,-9.78195571899414,0.08229396492242813
1759335081468668200,9.334668212890625,-0.8091717958450317,-9.772154808044434,0.14219021797180176
1759335081478668300,9.344668212890625,-0.9091641902923584,-9.762232780456543,0.20506811141967773
1759335081488668200,9.354668212890624,-0.9870833158493042,-9.753554344177246,0.2525762915611267
1759335081498668300,9.364668212890624,-1.0559171438217163,-9.745460510253906,0.28435060381889343
1759335081508668200,9.374668212890626,-1.1318740844726562,-9.736104011535645,0.3113742172718048
1759335081518668300,9.384668212890626,-1.2143512964248657,-9.725592613220215,0.3284083604812622
1759335081528668200,9.394668212890625,-1.2939187288284302,-9.714353561401367,0.35631051659584045
1759335081538668300,9.404668212890625,-1.3749878406524658,-9.69944953918457,0.4472814202308655
1759335081548667400,9.41466748046875,-1.457662582397461,-9.681612968444824,0.5582497119903564
1759335081558667300,9.424667236328125,-1.521904468536377,-9.667845726013184,0.6216752529144287
1759335081568667400,9.43466748046875,-1.577052354812622,-9.659061431884766,0.6206833720207214
1759335081578667300,9.444667236328126,-1.645748257637024,-9.646292686462402,0.6407923698425293
1759335081588667400,9.45466748046875,-1.6975947618484497,-9.632830619812012,0.7047408223152161
1759335081598667300,9.464667236328125,-1.7308155298233032,-9.62124252319336,0.7785048484802246
1759335081608667400,9.47466748046875,-1.7573516368865967,-9.611734390258789,0.8343687653541565
1759335081618667300,9.484667236328125,-1.7908458709716797,-9.603361129760742,0.859280526638031
1759335081628667400,9.49466748046875,-1.831329345703125,-9.596173286437988,0.8541519045829773
1759335081638667300,9.504667236328125,-1.8724364042282104,-9.592082977294922,0.8098124265670776
1759335081648668200,9.514668212890625,-1.916182041168213,-9.588135719299316,0.7521849870681763
1759335081658668300,9.524668212890624,-1.9612007141113281,-9.58326244354248,0.6963789463043213
1759335081668668200,9.534668212890624,-1.9987901449203491,-9.580215454101562,0.6278688907623291
1759335081678668300,9.544668212890626,-2.003234386444092,-9.58176326751709,0.588843584060669
1759335081688668200,9.554668212890626,-1.9518741369247437,-9.591670989990234,0.6001090407371521
1759335081698668300,9.564668212890625,-1.8907407522201538,-9.602889060974121,0.6162251830101013
1759335081708668200,9.574668212890625,-1.823776125907898,-9.615376472473145,0.6233052015304565
1759335081718668300,9.584668212890625,-1.850284218788147,-9.611666679382324,0.6020762324333191
1759335081728668200,9.594668212890625,-1.8637275695800781,-9.61001968383789,0.5864154696464539
1759335081738668300,9.604668212890624,-1.843812346458435,-9.614229202270508,0.5805205702781677
1759335081748667400,9.61466748046875,-1.8273428678512573,-9.617215156555176,0.5830425024032593
1759335081758667300,9.624667236328126,-1.826267957687378,-9.616032600402832,0.6055600047111511
1759335081768667400,9.63466748046875,-1.829243779182434,-9.612070083618164,0.6571981310844421
1759335081778667300,9.644667236328125,-1.8426287174224854,-9.604059219360352,0.7324626445770264
1759335081788667400,9.65466748046875,-1.8611884117126465,-9.593714714050293,0.8163012266159058
1759335081798667300,9.664667236328125,-1.8757354021072388,-9.582606315612793,0.9083701372146606
1759335081808667400,9.67466748046875,-1.8577690124511719,-9.569748878479004,1.0670576095581055
1759335081818667300,9.684667236328124,-1.8118717670440674,-9.550846099853516,1.2917007207870483
1759335081828667400,9.69466748046875,-1.751443862915039,-9.523534774780273,1.550743579864502
1759335081838667300,9.704667236328126,-1.6998779773712158,-9.488758087158203,1.8010914325714111
1759335081848668200,9.714668212890626,-1.655461311340332,-9.45236873626709,2.020451307296753
1759335081858668300,9.724668212890625,-1.6092677116394043,-9.420476913452148,2.198751211166382
1759335081868668200,9.734668212890625,-1.5499674081802368,-9.393779754638672,2.3503899574279785
1759335081878668300,9.744668212890625,-1.4750853776931763,-9.36968994140625,2.490598440170288
1759335081888668200,9.754668212890625,-1.3923218250274658,-9.351621627807617,2.6035714149475098
1759335081898668300,9.764668212890625,-1.2989152669906616,-9.35437297821045,2.641674518585205
1759335081908668200,9.774668212890624,-1.190536618232727,-9.373880386352539,2.623555898666382
1759335081918668300,9.784668212890624,-1.0787795782089233,-9.398696899414062,2.582793712615967
1759335081928668200,9.794668212890626,-0.9739783406257629,-9.419466972351074,2.5485363006591797
1759335081938668300,9.804668212890626,-0.887366771697998,-9.435016632080078,2.5225183963775635
1759335081948667400,9.81466748046875,-0.8264192938804626,-9.446083068847656,2.501713991165161
1759335081958667500,9.82466748046875,-0.7929109930992126,-9.452325820922852,2.488943099975586
1759335081968667400,9.83466748046875,-0.7813380360603333,-9.451228141784668,2.496748685836792
1759335081978667500,9.84466748046875,-0.7747212052345276,-9.440043449401855,2.54079270362854
1759335081988667400,9.85466748046875,-0.7770587205886841,-9.42408561706543,2.598619222640991
1759335081998667500,9.86466748046875,-0.7799035906791687,-9.407841682434082,2.656013250350952
1759335082008667400,9.87466748046875,-0.7728893160820007,-9.391624450683594,2.714787721633911
1759335082018667300,9.884667236328125,-0.7561269998550415,-9.37916374206543,2.7621617317199707
1759335082028667400,9.89466748046875,-0.730805516242981,-9.370540618896484,2.798027992248535
1759335082038667300,9.904667236328125,-0.6848497986793518,-9.368009567260742,2.8180458545684814
1759335082048668200,9.914668212890625,-0.6187286972999573,-9.369786262512207,2.827425479888916
1759335082058668300,9.924668212890625,-0.543109118938446,-9.370649337768555,2.840066432952881
1759335082068668200,9.934668212890625,-0.4743874669075012,-9.367518424987793,2.8626296520233154
1759335082078668300,9.944668212890624,-0.39313071966171265,-9.364389419555664,2.8850882053375244
1759335082088668200,9.954668212890626,-0.30094751715660095,-9.361169815063477,2.9065585136413574
1759335082098668300,9.964668212890626,-0.20435704290866852,-9.357763290405273,2.9258222579956055
1759335082108668200,9.974668212890625,-0.11394494771957397,-9.352721214294434,2.946807861328125
1759335082118668300,9.984668212890625,-0.03478314355015755,-9.346871376037598,2.967315196990967
1759335082128668200,9.994668212890625,0.03201485052704811,-9.33878231048584,2.9926974773406982
1759335082138668300,10.004668212890625,0.07588321715593338,-9.32967472076416,3.0201797485351562
1759335082148667400,10.01466748046875,0.08053601533174515,-9.321044921875,3.0465755462646484
1759335082158667300,10.024667236328124,0.06653144955635071,-9.314216613769531,3.067713499069214
1759335082168667400,10.03466748046875,0.043474987149238586,-9.308321952819824,3.085984230041504
1759335082178667300,10.044667236328126,0.01938800700008869,-9.302494049072266,3.1037580966949463
1759335082188667400,10.05466748046875,0.001833645161241293,-9.296746253967285,3.1210005283355713
1759335082198667300,10.064667236328125,-0.0051496378146111965,-9.28888988494873,3.1442818641662598
1759335082208667400,10.07466748046875,-0.005576923489570618,-9.279890060424805,3.1707849502563477
1759335082218667300,10.084667236328125,0.00047054013703018427,-9.270528793334961,3.1980180740356445
1759335082228667400,10.09466748046875,0.007207739632576704,-9.261923789978027,3.22282075881958
1759335082238667300,10.104667236328124,0.014563363045454025,-9.25355052947998,3.2468090057373047
1759335082248668200,10.114668212890624,0.03320727497339249,-9.243807792663574,3.2743096351623535
1759335082258668300,10.124668212890626,0.05206161364912987,-9.235235214233398,3.2981364727020264
1759335082268668200,10.134668212890626,0.06966916471719742,-9.228965759277344,3.3153343200683594
1759335082278668300,10.144668212890625,0.08183949440717697,-9.224457740783691,3.327565908432007
1759335082288668200,10.154668212890625,0.07940379530191422,-9.221488952636719,3.3358590602874756
1759335082298668300,10.164668212890625,0.05318564921617508,-9.219819068908691,3.3409454822540283
1759335082308668200,10.174668212890625,0.0013935002498328686,-9.220356941223145,3.3398971557617188
1759335082318668300,10.184668212890625,-0.06586100161075592,-9.224822998046875,3.3268966674804688
1759335082328668200,10.194668212890624,-0.1386234611272812,-9.23448657989502,3.2977352142333984
1759335082338668300,10.204668212890626,-0.2056201845407486,-9.247506141662598,3.2575008869171143
1759335082348667400,10.21466748046875,-0.25390753149986267,-9.261370658874512,3.2144339084625244
1759335082358667300,10.224667236328125,-0.27514147758483887,-9.274260520935059,3.175278663635254
1759335082368667400,10.23466748046875,-0.27415773272514343,-9.284159660339355,3.146310329437256
1759335082378667300,10.244667236328125,-0.25777122378349304,-9.291117668151855,3.1270928382873535
1759335082388667400,10.25466748046875,-0.24546529352664948,-9.299901962280273,3.1018505096435547
1759335082398667300,10.264667236328124,-0.23777006566524506,-9.311681747436523,3.066939353942871
1759335082408667400,10.27466748046875,-0.2348281592130661,-9.32691764831543,3.020540237426758
1759335082418667300,10.284667236328126,-0.23766660690307617,-9.343522071838379,2.9685192108154297
1759335082428667400,10.29466748046875,-0.23738661408424377,-9.357481002807617,2.924238443374634
1759335082438667300,10.304667236328125,-0.24063947796821594,-9.36755657196045,2.891540765762329
1759335082448668200,10.314668212890625,-0.25893500447273254,-9.374053955078125,2.8687734603881836
1759335082458668300,10.324668212890625,-0.28280922770500183,-9.376602172851562,2.858229160308838
1759335082468668200,10.334668212890625,-0.29871055483818054,-9.377128601074219,2.8548479080200195
1759335082478668300,10.344668212890625,-0.30127719044685364,-9.375947952270508,2.8584768772125244
1759335082488668200,10.354668212890624,-0.286935955286026,-9.375364303588867,2.861868143081665
1759335082498668300,10.364668212890624,-0.2587625980377197,-9.372628211975098,2.8734729290008545
1759335082508634000,10.374634033203124,-0.19624504446983337,-9.369813919067383,2.887580156326294
1759335082518600700,10.3846005859375,-0.1816582977771759,-9.3695068359375,2.889549732208252
1759335082528567300,10.3945673828125,-0.162411168217659,-9.36729621887207,2.8978397846221924
1759335082538534100,10.4045341796875,-0.15546002984046936,-9.364850044250488,2.906088352203369
1759335082548500000,10.4145,-0.17309680581092834,-9.364494323730469,2.906262159347534
1759335082558466600,10.424466552734375,-0.19892975687980652,-9.365313529968262,2.901977300643921
1759335082568433200,10.43443310546875,-0.2296230047941208,-9.363862037658691,2.9044013023376465
1759335082578399700,10.444399658203125,-0.25327450037002563,-9.358328819274902,2.920214891433716
1759335082588366600,10.45436669921875,-0.26319384574890137,-9.349513053894043,2.947401762008667
1759335082598333200,10.464333251953125,-0.2602905333042145,-9.338289260864258,2.9830362796783447
1759335082608299800,10.4742998046875,-0.24943362176418304,-9.326171875,3.021646022796631
1759335082618266600,10.4842666015625,-0.23326516151428223,-9.317397117614746,3.049889087677002
1759335082628233200,10.494233154296875,-0.20194588601589203,-9.31466007232666,3.060443639755249
1759335082638199800,10.50419970703125,-0.17053426802158356,-9.312431335449219,3.06913161277771
1759335082648167400,10.51416748046875,-0.14194880425930023,-9.307467460632324,3.085576057434082
1759335082658134000,10.524134033203126,-0.12013035267591476,-9.29781436920166,3.1154937744140625
1759335082668100600,10.5341005859375,-0.09925941377878189,-9.28324031829834,3.1594045162200928
1759335082678067500,10.5440673828125,-0.07407587766647339,-9.263313293457031,3.2179853916168213
1759335082688034000,10.554033935546874,-0.04066752642393112,-9.2347993850708,3.2995290756225586
1759335082698000600,10.564000732421874,0.010552373714745045,-9.197060585021973,3.403501510620117
1759335082707967500,10.573967529296874,0.0752437487244606,-9.150652885437012,3.525614023208618
1759335082717934000,10.58393408203125,0.14763736724853516,-9.102622985839844,3.645632743835449
1759335082727900700,10.593900634765625,0.22502398490905762,-9.053343772888184,3.7625210285186768
1759335082737867500,10.603867431640625,0.3232154846191406,-9.007492065429688,3.864025592803955
1759335082747833300,10.613833251953125,0.39756491780281067,-8.980011940002441,3.920647621154785
1759335082757800000,10.623800048828125,0.43310675024986267,-8.952530860900879,3.979287624359131
1759335082767766500,10.6337666015625,0.4935697019100189,-8.913799285888672,4.058409690856934
1759335082777733400,10.6437333984375,0.5373761057853699,-8.863905906677246,4.160820007324219
1759335082787700000,10.653699951171875,0.5566267371177673,-8.812788009643555,4.265568256378174
1759335082797666600,10.66366650390625,0.5849339962005615,-8.765507698059082,4.358194351196289
1759335082807667500,10.67366748046875,0.6383037567138672,-8.726348876953125,4.42870569229126
1759335082817667300,10.683667236328125,0.7296096086502075,-8.680049896240234,4.504936695098877
1759335082827667500,10.69366748046875,0.8357599377632141,-8.626461029052734,4.588658809661865
1759335082837667300,10.703667236328124,0.9337860345840454,-8.57581901550293,4.664053916931152
1759335082847668200,10.713668212890624,1.0156804323196411,-8.537150382995605,4.71755313873291
1759335082857668400,10.72366845703125,1.135221004486084,-8.517078399658203,4.7266130447387695
1759335082867668200,10.733668212890626,1.3005273342132568,-8.492938995361328,4.727431774139404
1759335082877668400,10.74366845703125,1.4938485622406006,-8.45559310913086,4.737236022949219
1759335082887668200,10.753668212890625,1.7422622442245483,-8.406780242919922,4.739260673522949
1759335082897668400,10.76366845703125,2.020969867706299,-8.334532737731934,4.756195545196533
1759335082907668200,10.773668212890625,2.3444507122039795,-8.22782039642334,4.793406963348389
1759335082917668400,10.78366845703125,2.736398935317993,-8.075265884399414,4.84483003616333
1759335082927668200,10.793668212890625,3.1891603469848633,-7.870691299438477,4.904251575469971
1759335082937668400,10.80366845703125,3.661055564880371,-7.631938934326172,4.951811790466309
1759335082947667500,10.81366748046875,4.109316825866699,-7.377268314361572,4.98593807220459
1759335082957667300,10.823667236328125,4.518545627593994,-7.1219024658203125,5.003147602081299
1759335082967667500,10.83366748046875,4.8684258460998535,-6.8762593269348145,5.018530368804932
1759335082977667600,10.84366748046875,5.076163291931152,-6.676966190338135,5.081427574157715
1759335082987667500,10.85366748046875,5.195254802703857,-6.535100936889648,5.145099639892578
1759335082997667600,10.86366748046875,5.257242679595947,-6.426403999328613,5.218520164489746
1759335083007667500,10.87366748046875,5.268482208251953,-6.357029914855957,5.291642189025879
1759335083017667300,10.883667236328124,5.221747398376465,-6.33323860168457,5.365975856781006
1759335083027667500,10.89366748046875,5.10221004486084,-6.3526387214660645,5.45725154876709
1759335083037667300,10.903667236328126,4.969039440155029,-6.392106056213379,5.53351354598999
1759335083047668200,10.913668212890625,4.832903861999512,-6.430756568908691,5.608800888061523
1759335083067668200,10.933668212890625,4.597851276397705,-6.417233467102051,5.81799840927124
1759335083077668400,10.94366845703125,4.463595867156982,-6.375770092010498,5.966239929199219
1759335083087668200,10.953668212890625,4.342393398284912,-6.296440601348877,6.137484550476074
1759335083097668400,10.96366845703125,4.2610673904418945,-6.182127952575684,6.308312892913818
1759335083107667500,10.97366748046875,4.2332234382629395,-6.032369613647461,6.469979286193848
1759335083117667300,10.983667236328126,4.2453083992004395,-5.854037284851074,6.624039649963379
1759335083127667500,10.99366748046875,4.287980079650879,-5.643714427947998,6.777309417724609
1759335083137667300,11.003667236328125,4.374986171722412,-5.39870023727417,6.91980504989624
1759335083147667500,11.01366748046875,4.518235206604004,-5.1222686767578125,7.036914348602295
1759335083157667300,11.023667236328125,4.7107415199279785,-4.826292037963867,7.119417190551758
1759335083167667500,11.03366748046875,4.939280033111572,-4.506131172180176,7.174156188964844
1759335083177667300,11.043667236328124,5.208339214324951,-4.137507438659668,7.205865383148193
1759335083187667500,11.05366748046875,5.468652248382568,-3.7271828651428223,7.23685884475708
1759335083197667300,11.063667236328126,5.701825141906738,-3.2737200260162354,7.276137351989746
1759335083207667500,11.07366748046875,5.892892837524414,-2.717081308364868,7.352654933929443
1759335083217667300,11.083667236328125,6.074945449829102,-2.0757546424865723,7.413271903991699
1759335083227667500,11.09366748046875,6.246789455413818,-1.3689168691635132,7.434648036956787
1759335083237667600,11.10366748046875,6.396884918212891,-0.6368097066879272,7.4057183265686035
1759335083247668200,11.113668212890625,6.525420188903809,0.09417495131492615,7.31986141204834
1759335083257668400,11.12366845703125,6.640121936798096,0.7983046174049377,7.172290802001953
1759335083267668200,11.133668212890624,6.77449893951416,1.4238859415054321,6.946153163909912
1759335083277668400,11.14366845703125,6.942783832550049,1.918647289276123,6.65484094619751
1759335083287668200,11.153668212890626,7.141591548919678,2.2913408279418945,6.318047523498535
1759335083307667500,11.17366748046875,7.580148220062256,2.8223073482513428,5.544930934906006
1759335083317667300,11.183667236328125,7.794701099395752,3.0426337718963623,5.114230632781982
1759335083327667500,11.19366748046875,7.978509902954102,3.2730348110198975,4.669145584106445
1759335083337667300,11.203667236328124,8.121234893798828,3.5083348751068115,4.231723308563232
1759335083347666400,11.21366650390625,8.21984577178955,3.712933301925659,3.849493980407715
1759335083357666600,11.22366650390625,8.279189109802246,3.8611905574798584,3.566035032272339
1759335083367666400,11.23366650390625,8.316300392150879,3.962322473526001,3.362962484359741
1759335083377666600,11.24366650390625,8.345741271972656,4.038323402404785,3.1954495906829834
1759335083387666400,11.25366650390625,8.374149322509766,4.098227024078369,3.041137456893921
1759335083397666600,11.26366650390625,8.407429695129395,4.147054195404053,2.878786325454712
1759335083407667500,11.27366748046875,8.453022956848145,4.197166919708252,2.664680242538452
1759335083417667300,11.283667236328125,8.502641677856445,4.253124713897705,2.4054911136627197
1759335083427667500,11.29366748046875,8.548705101013184,4.318385601043701,2.1074912548065186
1759335083437667300,11.303667236328126,8.579975128173828,4.408132553100586,1.7671239376068115
1759335083447667500,11.31366748046875,8.596418380737305,4.50981330871582,1.3905152082443237
1759335083457667300,11.323667236328125,8.620453834533691,4.547566890716553,1.0852446556091309
1759335083467667500,11.33366748046875,8.675735473632812,4.459896087646484,1.0056322813034058
1759335083477667300,11.343667236328125,8.742748260498047,4.326322078704834,1.008777379989624
1759335083487667500,11.35366748046875,8.813764572143555,4.188144207000732,0.9733179807662964
1759335083507666400,11.37366650390625,8.952183723449707,3.9359657764434814,0.7327521443367004
1759335083517666300,11.383666259765626,9.021075248718262,3.799299955368042,0.5965617299079895
1759335083527666400,11.39366650390625,9.092558860778809,3.64074444770813,0.4906393587589264
1759335083537666300,11.403666259765625,9.161134719848633,3.4747231006622314,0.412629634141922
1759335083547665400,11.41366552734375,9.216714859008789,3.329026460647583,0.37433162331581116
1759335083557665500,11.42366552734375,9.259543418884277,3.207904815673828,0.3749091327190399
1759335083567665400,11.43366552734375,9.288712501525879,3.117628574371338,0.41299861669540405
1759335083577665500,11.44366552734375,9.304055213928223,3.063167095184326,0.471100389957428
1759335083587665400,11.45366552734375,9.306187629699707,3.0456371307373047,0.537903368473053
1759335083597665500,11.46366552734375,9.296980857849121,3.0598464012145996,0.6114332675933838
1759335083607666400,11.47366650390625,9.280350685119629,3.0937979221343994,0.6883825063705444
1759335083617666300,11.483666259765625,9.260856628417969,3.1334125995635986,0.7672300934791565
1759335083627666400,11.49366650390625,9.240398406982422,3.1720776557922363,0.8504912257194519
1759335083637666300,11.503666259765625,9.219812393188477,3.2067649364471436,0.9391977787017822
1759335083647667200,11.513667236328125,9.201990127563477,3.231200933456421,1.0262000560760498
1759335083657667300,11.523667236328125,9.19214153289795,3.240292549133301,1.0841705799102783
1759335083667667200,11.533667236328125,9.200753211975098,3.22363018989563,1.0605255365371704
1759335083677667300,11.543667236328124,9.220470428466797,3.1923325061798096,0.9809841513633728
1759335083687667200,11.553667236328126,9.246512413024902,3.1529381275177,0.8551959991455078
1759335083697667300,11.563667236328126,9.273045539855957,3.1133880615234375,0.6984272599220276
1759335083707666400,11.57366650390625,9.296197891235352,3.076275110244751,0.5362957715988159
1759335083717666600,11.58366650390625,9.315135955810547,3.0392556190490723,0.40193435549736023
1759335083727666400,11.59366650390625,9.331274032592773,2.998891830444336,0.3230423033237457
1759335083737666600,11.60366650390625,9.344497680664062,2.9590065479278564,0.3082365095615387
1759335083747666400,11.61366650390625,9.352720260620117,2.930157423019409,0.33342283964157104
1759335083757666600,11.62366650390625,9.356167793273926,2.9143786430358887,0.3727186322212219
1759335083767666400,11.63366650390625,9.355194091796875,2.9132626056671143,0.4044986665248871
1759335083777666600,11.64366650390625,9.341355323791504,2.9583704471588135,0.39686551690101624
1759335083787666400,11.65366650390625,9.323250770568848,3.009883403778076,0.43355756998062134
1759335083797666600,11.66366650390625,9.303206443786621,3.0601305961608887,0.5062677264213562
1759335083817667300,11.683667236328125,9.27198600769043,3.127229928970337,0.6489179730415344
1759335083837667300,11.703667236328124,9.257076263427734,3.17830753326416,0.6125892996788025
1759335083847668200,11.713668212890624,9.255644798278809,3.195786476135254,0.5388596057891846
1759335083857668000,11.723668212890624,9.260101318359375,3.1939504146575928,0.46858635544776917
1759335083867668200,11.733668212890626,9.267992973327637,3.1793928146362305,0.40758901834487915
1759335083877668000,11.743668212890626,9.276480674743652,3.161303758621216,0.35133856534957886
1759335083897668000,11.763668212890625,9.281058311462402,3.154834270477295,0.281682550907135
1759335083907667200,11.773667236328125,9.27579402923584,3.170499086380005,0.27920228242874146
1759335083917667300,11.783667236328125,9.265595436096191,3.1987802982330322,0.2948322594165802
1759335083927667200,11.793667236328124,9.252310752868652,3.2350189685821533,0.31588250398635864
1759335083937667300,11.803667236328126,9.237980842590332,3.2730472087860107,0.34240782260894775
1759335083947666400,11.81366650390625,9.222569465637207,3.3122799396514893,0.3786660134792328
1759335083957666300,11.823666259765625,9.204453468322754,3.3566248416900635,0.42599591612815857
1759335083967666400,11.83366650390625,9.183948516845703,3.4056694507598877,0.47631242871284485
1759335083977666600,11.84366650390625,9.163947105407715,3.4529457092285156,0.5192494988441467
1759335083987666400,11.85366650390625,9.14572811126709,3.495093822479248,0.5570981502532959
1759335083997666600,11.86366650390625,9.130186080932617,3.530130386352539,0.5901397466659546
1759335084007667200,11.873667236328124,9.11574649810791,3.56003475189209,0.6322020888328552
1759335084017667300,11.883667236328124,9.100443840026855,3.589414358139038,0.6843786835670471
1759335084027667200,11.893667236328126,9.084708213806152,3.6176815032958984,0.7421746253967285
1759335084037667300,11.903667236328126,9.070581436157227,3.6416056156158447,0.7960153818130493
1759335084047667200,11.913667236328125,9.06058406829834,3.658449411392212,0.8318291902542114
1759335084057667300,11.923667236328125,9.057860374450684,3.6625092029571533,0.8435310125350952
1759335084067667200,11.933667236328125,9.06498908996582,3.6480040550231934,0.8296923041343689
1759335084077667300,11.943667236328125,9.082837104797363,3.6108012199401855,0.7965971231460571
1759335084087667200,11.953667236328124,9.110913276672363,3.548755168914795,0.7536463141441345
1759335084097667300,11.963667236328124,9.147245407104492,3.462477445602417,0.7137943506240845
1759335084107667200,11.973667236328126,9.18912410736084,3.3552796840667725,0.6873631477355957
1759335084117667300,11.983667236328126,9.230315208435059,3.2393479347229004,0.6915813088417053
1759335084127667200,11.993667236328125,9.265236854553223,3.1322529315948486,0.7174630761146545
1759335084137667300,12.003667236328125,9.292927742004395,3.0398154258728027,0.7559014558792114
1759335084147666400,12.01366650390625,9.314908027648926,2.9625375270843506,0.7913559079170227
1759335084157666300,12.023666259765625,9.334541320800781,2.895667791366577,0.8073591589927673
1759335084167666400,12.03366650390625,9.354255676269531,2.833447217941284,0.7999013662338257
1759335084177666300,12.043666259765626,9.375604629516602,2.7690656185150146,0.7750475406646729
1759335084187666400,12.05366650390625,9.398191452026367,2.698467254638672,0.7500948905944824
1759335084197666600,12.06366650390625,9.42181396484375,2.6235480308532715,0.718891441822052
1759335084207667500,12.07366748046875,9.446150779724121,2.5488667488098145,0.6662423610687256
1759335084217667300,12.083667236328125,9.469400405883789,2.4681308269500732,0.6396622657775879
1759335084227667500,12.09366748046875,9.490387916564941,2.389852285385132,0.6257169842720032
1759335084237667300,12.103667236328125,9.507664680480957,2.323740005493164,0.6123231649398804
1759335084247667700,12.113667724609375,9.522499084472656,2.2673568725585938,0.5928503274917603
1759335084257667800,12.123667724609374,9.534582138061523,2.2231223583221436,0.5655533671379089
1759335084267667700,12.133667724609374,9.544134140014648,2.1903111934661865,0.5314412713050842
1759335084277667600,12.14366748046875,9.551078796386719,2.168107748031616,0.4965691864490509
1759335084287667500,12.15366748046875,9.554886817932129,2.1561670303344727,0.4748148024082184
1759335084297667600,12.16366748046875,9.555904388427734,2.1518917083740234,0.47374358773231506
1759335084307667500,12.17366748046875,9.554389953613281,2.1542303562164307,0.49326086044311523
1759335084317667600,12.18366748046875,9.550328254699707,2.1632323265075684,0.5310781002044678
1759335084327667500,12.19366748046875,9.54337215423584,2.179088592529297,0.588216245174408
1759335084337667600,12.20366748046875,9.533502578735352,2.2014307975769043,0.6606152653694153
1759335084347666700,12.213666748046874,9.521384239196777,2.234645128250122,0.7211041450500488
1759335084357666600,12.22366650390625,9.510929107666016,2.2705185413360596,0.746565043926239
1759335084367666700,12.233666748046875,9.50528335571289,2.2994203567504883,0.7298106551170349
1759335084377666300,12.243666259765625,9.505056381225586,2.3152689933776855,0.6810402870178223
1759335084387666200,12.253666259765625,9.508748054504395,2.3187930583953857,0.614241898059845
1759335084397666300,12.263666259765625,9.514141082763672,2.3151729106903076,0.5398834347724915
1759335084407666000,12.273666015625,9.519049644470215,2.3120110034942627,0.46116527915000916
1759335084417665800,12.283665771484374,9.521787643432617,2.314471960067749,0.3862058222293854
1759335084447666400,12.31366650390625,9.515008926391602,2.3605997562408447,0.250090092420578
1759335084457666600,12.32366650390625,9.511241912841797,2.377805471420288,0.22955402731895447
1759335084467666700,12.333666748046875,9.51017951965332,2.3842122554779053,0.20591990649700165
1759335084477666800,12.343666748046875,9.510811805725098,2.383629560470581,0.18209867179393768
1759335084487666700,12.353666748046875,9.511990547180176,2.380596160888672,0.15865977108478546
1759335084497666800,12.363666748046874,9.512639045715332,2.379575490951538,0.13304565846920013
1759335084507666400,12.37366650390625,9.51296615600586,2.3796021938323975,0.10647424310445786
1759335084517666300,12.383666259765626,9.514491081237793,2.374530553817749,0.0801880732178688
1759335084527665400,12.39366552734375,9.517704963684082,2.362470865249634,0.0490180067718029
1759335084537665500,12.40366552734375,9.523104667663574,2.341122627258301,0.0002111585345119238
1759335084547665200,12.4136650390625,9.53208065032959,2.3038320541381836,-0.04660283401608467
1759335084557665000,12.4236650390625,9.542774200439453,2.2578020095825195,-0.09038104116916656
1759335084567665200,12.4336650390625,9.553274154663086,2.2113471031188965,-0.12354228645563126
1759335084577665300,12.443665283203124,9.5601224899292,2.1811861991882324,-0.1298825889825821
