time,seconds_elapsed,z,y,x
1759347996638596400,0.054596435546875,-0.02010466158390045,-0.008729846216738224,-0.003648853860795498
1759347996648655400,0.0646552734375,-0.016272826120257378,-0.042514000087976456,-0.02392212115228176
1759347996658713300,0.07471337890625,-0.011282328516244888,-0.059310559183359146,-0.02825508452951908
1759347996668771300,0.084771240234375,-0.007880971767008305,-0.06111273542046547,-0.019725171849131584
1759347996678830300,0.094830322265625,-0.002500587608665228,-0.047718632966279984,-0.004657538142055273
1759347996688888300,0.104888427734375,0.0011939438991248608,-0.021710438653826714,0.011634567752480507
1759347996698946600,0.114946533203125,0.0010466710664331913,0.006023454945534468,0.022330621257424355
1759347996709005300,0.12500537109375,0.0046539949253201485,0.021967235952615738,0.029680194333195686
1759347996719063300,0.135063232421875,0.0056888991966843605,0.02578114904463291,0.029598435387015343
1759347996729121500,0.14512158203125,0.005343373864889145,0.02151474542915821,0.023942377418279648
1759347996739180300,0.15518017578125,0.004290626384317875,0.00872544664889574,0.013708380982279778
1759347996749238500,0.165238525390625,0.00028473930433392525,-0.0042279488407075405,0.0028201709501445293
1759347996759296500,0.175296630859375,-0.0018476538825780153,-0.014661947265267372,-0.006360544823110104
1759347996769355300,0.185355224609375,-0.0011887620203197002,-0.0152079863473773,-0.007943201810121536
1759347996779413500,0.19541357421875,-0.0019680028781294823,-0.01361328549683094,-0.003954584710299969
1759347996789471500,0.205471435546875,-0.0012223366647958755,-0.001984301023185253,0.0010414430871605873
1759347996799530200,0.2155302734375,0.0018581417389214039,0.006644074805080891,0.009243447333574295
1759347996809588500,0.22558837890625,0.0032315338030457497,0.008381521329283714,0.012858155183494091
1759347996819647200,0.235647216796875,0.001806742511689663,0.002099124016240239,0.011275172233581543
1759347996829705500,0.24570556640625,0.003579944372177124,-0.012370928190648556,-0.0005225823260843754
1759347996839763500,0.255763427734375,0.0020946995355188847,-0.024213207885622978,-0.015621639788150787
1759347996849822200,0.265822265625,0.0037079211324453354,-0.0249780286103487,-0.024724626913666725
1759347996859880400,0.27588037109375,0.008481104858219624,-0.008378810249269009,-0.025183221325278282
1759347996869938400,0.2859384765625,0.011827291920781136,0.01698426716029644,-0.020549505949020386
1759347996879997400,0.29599755859375,0.012685362249612808,0.032595448195934296,-0.0068352906964719296
1759347996890055400,0.306055419921875,0.01022957544773817,0.03830106556415558,0.0026955194771289825
1759347996900113400,0.316113525390625,0.006270253099501133,0.03429274260997772,0.006193315610289574
1759347996910172400,0.32617236328125,0.00036245863884687424,0.015805620700120926,0.004384255968034267
1759347996920230400,0.33623046875,-0.004600076004862785,-0.008948992937803268,-0.0011878754012286663
1759347996930288400,0.346288330078125,-0.006379141937941313,-0.030341170728206635,-0.0018392005003988743
1759347996940347400,0.356347412109375,-0.006623087450861931,-0.038234781473875046,-0.00009163422510027885
1759347996950405400,0.3664052734375,-0.006763894110918045,-0.02870432287454605,0.005415165796875954
1759347996960463400,0.37646337890625,-0.0035891400184482336,-0.018903890624642372,0.012551638297736645
1759347996970522400,0.3865224609375,-0.0030604791827499866,-0.009167560376226902,0.01940893940627575
1759347996980580400,0.396580322265625,0.0035249851644039154,-0.003986913710832596,0.02470783144235611
1759347996990638600,0.406638671875,0.004750554449856281,0.0003569956752471626,0.022339418530464172
1759347997000697300,0.416697265625,0.010861443355679512,0.006533665116876364,0.01793481782078743
1759347997010755300,0.42675537109375,0.015239368192851543,0.01602182164788246,0.009538281708955765
1759347997020813600,0.4368134765625,0.02126983180642128,0.02516578510403633,0.0005096332170069218
1759347997030872300,0.446872314453125,0.028750766068696976,0.03052178956568241,-0.004440480377525091
1759347997040930300,0.456930419921875,0.030796337872743607,0.02629268914461136,-0.009287964552640915
1759347997050988500,0.466988525390625,0.03371952474117279,0.015765627846121788,-0.010663114488124847
1759347997061047300,0.47704736328125,0.036582157015800476,-0.00014968798495829105,-0.008561080321669579
1759347997071105500,0.48710546875,0.03999732434749603,-0.015643125399947166,-0.0046958173625171185
1759347997081163500,0.49716357421875,0.04093928635120392,-0.021176375448703766,-0.001908020582050085
1759347997091222300,0.50722216796875,0.04047488048672676,-0.013875320553779602,-0.002847596537321806
1759347997101280500,0.517280517578125,0.038944095373153687,-0.008698668330907822,-0.009697780013084412
1759347997111338500,0.52733837890625,0.04315916448831558,-0.002066398272290826,-0.016709772869944572
1759347997121397500,0.5373974609375,0.04632992297410965,0.004278849810361862,-0.022638501599431038
1759347997131455500,0.54745556640625,0.04572909325361252,0.011432554572820663,-0.026725582778453827
1759347997141513500,0.557513427734375,0.04377060383558273,0.03164195269346237,-0.03251662477850914
1759347997151572500,0.567572509765625,0.040185555815696716,0.04499412328004837,-0.03803938254714012
1759347997161630500,0.57763037109375,0.036983102560043335,0.05510401725769043,-0.048230234533548355
1759347997171689200,0.587689208984375,0.042048826813697815,0.06175815314054489,-0.06599321216344833
1759347997181747500,0.59774755859375,0.04708246886730194,0.06139436736702919,-0.08344331383705139
1759347997191805400,0.607805419921875,0.05572693794965744,0.06924495100975037,-0.10109350830316544
1759347997201863200,0.61786328125,0.0684664398431778,0.08195462077856064,-0.1104569211602211
1759347997211922400,0.62792236328125,0.07422564923763275,0.08569270372390747,-0.10711660981178284
1759347997221980400,0.63798046875,0.07825660705566406,0.07926889508962631,-0.10088934004306793
1759347997232039400,0.648039306640625,0.07219702750444412,0.06128852069377899,-0.09568522870540619
1759347997242097400,0.658097412109375,0.06725259870290756,0.02981661446392536,-0.09300742298364639
1759347997252155400,0.6681552734375,0.06304549425840378,0.004577990155667067,-0.08883362263441086
1759347997262214400,0.67821435546875,0.05495641008019447,-0.012457186356186867,-0.08571825921535492
1759347997272272400,0.6882724609375,0.04907067120075226,-0.01772879995405674,-0.0870499312877655
1759347997282330400,0.698330322265625,0.05997524410486221,-0.009601365774869919,-0.08534790575504303
1759347997292389400,0.708389404296875,0.07087856531143188,0.008472141809761524,-0.07671362906694412
1759347997302447400,0.718447265625,0.07621314376592636,0.022654538974165916,-0.06126995012164116
1759347997312505600,0.728505615234375,0.07627248764038086,0.027153531089425087,-0.04567806422710419
1759347997322564400,0.738564453125,0.06707046180963516,0.020229311659932137,-0.03545498847961426
1759347997332622300,0.748622314453125,0.05327761918306351,0.00023433513706550002,-0.02842269465327263
1759347997342680600,0.7586806640625,0.04439810663461685,-0.03334253281354904,-0.02324897237122059
1759347997352739300,0.7687392578125,0.03514263778924942,-0.05107376351952553,-0.02842245064675808
1759347997362797600,0.778797607421875,0.03219877928495407,-0.05781635269522667,-0.03974328190088272
1759347997372855600,0.78885546875,0.0415506474673748,-0.07059399038553238,-0.049328308552503586
1759347997382914300,0.798914306640625,0.04394562914967537,-0.06014401093125343,-0.05635292828083038
1759347997392972500,0.80897265625,0.0499354749917984,-0.04823683202266693,-0.060207754373550415
1759347997403030300,0.8190302734375,0.06037852540612221,-0.039287276566028595,-0.05251947417855263
1759347997413089300,0.82908935546875,0.06950287520885468,-0.02986881323158741,-0.034633636474609375
1759347997423147500,0.8391474609375,0.07537408173084259,-0.026752116158604622,-0.01727968081831932
1759347997433205200,0.849205322265625,0.07177374511957169,-0.027403151616454124,0.005041001830250025
1759347997443264500,0.859264404296875,0.062453221529722214,-0.039383646100759506,0.02418619953095913
1759347997453322500,0.869322509765625,0.05486995726823807,-0.05511688068509102,0.029437201097607613
1759347997463380200,0.879380126953125,0.05259694904088974,-0.06371862441301346,0.0222565196454525
1759347997473439500,0.889439453125,0.05027451738715172,-0.0745469257235527,0.0020145364105701447
1759347997483497500,0.89949755859375,0.05328681692481041,-0.08720439672470093,-0.0148648452013731
1759347997493555500,0.909555419921875,0.05864714831113815,-0.08923938870429993,-0.029462076723575592
1759347997503614700,0.91961474609375,0.051692571491003036,-0.09352228790521622,-0.02769959717988968
1759347997513672700,0.929672607421875,0.026569422334432602,-0.09751059859991074,-0.017019331455230713
1759347997523730400,0.93973046875,-0.005658288486301899,-0.09808477014303207,-0.007772835902869701
1759347997533789700,0.949789794921875,-0.03023231029510498,-0.0922287181019783,-0.0014494373463094234
1759347997543847700,0.95984765625,-0.03979465737938881,-0.09268065541982651,0.006224727723747492
1759347997553905700,0.96990576171875,-0.035737115889787674,-0.08690942823886871,0.018042854964733124
1759347997563964700,0.979964599609375,-0.0406583696603775,-0.06672346591949463,0.0087806461378932
1759347997574022700,0.990022705078125,-0.044455770403146744,-0.05497652664780617,-0.009674793109297752
1759347997584080600,1.00008056640625,-0.048852916806936264,-0.055027659982442856,-0.02959071286022663
1759347997594139600,1.0101396484375,-0.0527060367166996,-0.03666090965270996,-0.04193232208490372
1759347997604197600,1.02019775390625,-0.05275131016969681,-0.022364791482686996,-0.0409698560833931
1759347997614255600,1.030255615234375,-0.04790230467915535,-0.01159850787371397,-0.03229159116744995
1759347997624314600,1.040314697265625,-0.0354648120701313,0.003474717726930976,-0.02217237837612629
1759347997634372600,1.05037255859375,-0.03352653980255127,0.0037799919955432415,-0.016802452504634857
1759347997644430600,1.0604306640625,-0.02954963967204094,-0.008563227020204067,-0.018948961049318314
1759347997654489600,1.070489501953125,-0.02581736445426941,-0.01658976450562477,-0.03151718154549599
1759347997664547600,1.080547607421875,-0.02221996709704399,-0.025202162563800812,-0.050991810858249664
1759347997674605600,1.09060546875,-0.020551830530166626,-0.02022014744579792,-0.07476110756397247
1759347997684664800,1.100664794921875,-0.028845444321632385,-0.039146702736616135,-0.08701617270708084
1759347997694722600,1.11072265625,-0.03422124683856964,-0.047203291207551956,-0.09751010686159134
1759347997704780500,1.120780517578125,-0.02680407464504242,-0.028052235022187233,-0.10530944168567657
1759347997714839800,1.13083984375,-0.019582604989409447,-0.03264816850423813,-0.09856220334768295
1759347997724897500,1.1408974609375,-0.03531043604016304,-0.03393953666090965,-0.08560725301504135
1759347997734955500,1.15095556640625,-0.06365042924880981,-0.016540905460715294,-0.08709537237882614
1759347997745014800,1.161014892578125,-0.0895075872540474,-0.0037883587647229433,-0.09139744192361832
1759347997755072500,1.171072509765625,-0.11721707880496979,-0.004346978385001421,-0.09778034687042236
1759347997765130500,1.181130615234375,-0.14024730026721954,0.0017487306613475084,-0.10923513770103455
1759347997775189800,1.191189697265625,-0.15046142041683197,0.024017618969082832,-0.12401971966028214
1759347997785247500,1.20124755859375,-0.15410755574703217,0.03563113138079643,-0.1358095407485962
1759347997795305700,1.2113056640625,-0.15597225725650787,0.013281544670462608,-0.13723346590995789
1759347997805363700,1.22136376953125,-0.16604965925216675,-0.007286314386874437,-0.1439664661884308
1759347997815422500,1.23142236328125,-0.17489461600780487,-0.04292650520801544,-0.14563985168933868
1759347997825480700,1.241480712890625,-0.1780019849538803,-0.07192113995552063,-0.1411745250225067
1759347997835539500,1.25153955078125,-0.16635988652706146,-0.07455383986234665,-0.13359686732292175
1759347997845597700,1.26159765625,-0.14625407755374908,-0.05949872359633446,-0.11340157687664032
1759347997855655700,1.27165576171875,-0.11999759078025818,-0.041772760450839996,-0.0972667783498764
1759347997865713700,1.281713623046875,-0.09272521734237671,-0.028414875268936157,-0.08844958990812302
1759347997875772700,1.291772705078125,-0.07811824977397919,-0.023706451058387756,-0.0849970132112503
1759347997885830700,1.30183056640625,-0.07061053067445755,-0.03118940070271492,-0.0930248498916626
1759347997895888600,1.311888671875,-0.07758379727602005,-0.04112548008561134,-0.0990871861577034
1759347997905947600,1.32194775390625,-0.09009400010108948,-0.04266132786870003,-0.0994563028216362
1759347997916005600,1.332005615234375,-0.1032419204711914,-0.03616844117641449,-0.10334087908267975
1759347997926063600,1.342063720703125,-0.11698728799819946,-0.02544229105114937,-0.10967946797609329
1759347997936122600,1.35212255859375,-0.126129150390625,-0.010889256373047829,-0.1313098520040512
1759347997946180600,1.3621806640625,-0.13762468099594116,0.00763808935880661,-0.1586488038301468
1759347997956238800,1.37223876953125,-0.13937771320343018,0.018651505932211876,-0.17305374145507812
1759347997966297600,1.382297607421875,-0.14321906864643097,0.022676341235637665,-0.1771416962146759
1759347997976355600,1.39235546875,-0.15087980031967163,0.017065873369574547,-0.18049784004688263
1759347997986413800,1.402413818359375,-0.12091070413589478,-0.016638293862342834,-0.17641574144363403
1759347997996472600,1.41247265625,-0.17025144398212433,0.017574775964021683,-0.19741182029247284
1759347998006530600,1.422530517578125,-0.2304263710975647,0.07003505527973175,-0.23253358900547028
1759347998016588800,1.4325888671875,-0.23525620996952057,0.0955962985754013,-0.24936389923095703
1759347998026647600,1.4426474609375,-0.24225527048110962,0.12729616463184357,-0.23274391889572144
1759347998036705800,1.452705810546875,-0.24601173400878906,0.18889585137367249,-0.22245211899280548
1759347998046763800,1.462763671875,-0.23188845813274384,0.22684164345264435,-0.23741881549358368
1759347998056822500,1.472822509765625,-0.2221509963274002,0.30120667815208435,-0.25861623883247375
1759347998066880800,1.482880859375,-0.221496120095253,0.34529849886894226,-0.26774847507476807
1759347998076938800,1.492938720703125,-0.21908514201641083,0.35009363293647766,-0.2587071657180786
1759347998086997800,1.502997802734375,-0.23075458407402039,0.35250192880630493,-0.26679837703704834
1759347998097055700,1.5130556640625,-0.24496975541114807,0.329497754573822,-0.31783488392829895
1759347998107113500,1.523113525390625,-0.2492598444223404,0.3007201552391052,-0.3907269239425659
1759347998117172700,1.5331728515625,-0.2675864100456238,0.3599666655063629,-0.4794628620147705
1759347998127230700,1.543230712890625,-0.2701933681964874,0.4471018314361572,-0.5377724766731262
1759347998137288400,1.553288330078125,-0.2418920397758484,0.5044853687286377,-0.5549910664558411
1759347998147346700,1.5633466796875,-0.21394431591033936,0.5800099968910217,-0.531312108039856
1759347998157405700,1.57340576171875,-0.1808842122554779,0.6178726553916931,-0.524273157119751
1759347998167463400,1.58346337890625,-0.19585517048835754,0.6619828939437866,-0.5585547089576721
1759347998177521700,1.593521728515625,-0.24278225004673004,0.6672614216804504,-0.6096906661987305
1759347998187580700,1.60358056640625,-0.273994505405426,0.6152576208114624,-0.6572461724281311
1759347998197638700,1.613638671875,-0.28787633776664734,0.576707124710083,-0.6835777759552002
1759347998207696600,1.623696533203125,-0.3017519414424896,0.5457302927970886,-0.6995143890380859
1759347998217755600,1.633755615234375,-0.3164573907852173,0.4878632426261902,-0.6989884376525879
1759347998227813600,1.643813720703125,-0.33400389552116394,0.44934913516044617,-0.6612093448638916
1759347998237871600,1.65387158203125,-0.3362772464752197,0.434893935918808,-0.6065180897712708
1759347998247930600,1.6639306640625,-0.32634177803993225,0.3957345485687256,-0.5728421211242676
1759347998257988600,1.673988525390625,-0.35554802417755127,0.37304094433784485,-0.5985962152481079
1759347998268046600,1.684046630859375,-0.3791617155075073,0.3342735767364502,-0.6482160091400146
1759347998278105900,1.69410595703125,-0.3758881092071533,0.30449917912483215,-0.6855790615081787
1759347998288163600,1.70416357421875,-0.3739807605743408,0.27231594920158386,-0.7012754678726196
1759347998298221600,1.7142216796875,-0.38845664262771606,0.3042612075805664,-0.7441352009773254
1759347998308279600,1.724279541015625,-0.3862411677837372,0.3633114993572235,-0.7934672832489014
1759347998318338600,1.734338623046875,-0.36209967732429504,0.3108513355255127,-0.8117412328720093
1759347998328396500,1.744396484375,-0.3320962190628052,0.10933712869882584,-0.7679405212402344
1759347998338454800,1.754454833984375,-0.4052523076534271,0.12427350133657455,-0.7992720603942871
1759347998348513500,1.764513427734375,-0.4263906180858612,0.1583627611398697,-0.8311684727668762
1759347998358571500,1.774571533203125,-0.4039224088191986,0.1921585202217102,-0.868549108505249
1759347998368629800,1.784629638671875,-0.39352649450302124,0.17352624237537384,-0.8885015249252319
1759347998378688500,1.7946884765625,-0.39018169045448303,0.10597174614667892,-0.8898800611495972
1759347998388746800,1.804746826171875,-0.38436055183410645,0.017325764521956444,-0.8773663640022278
1759347998398804700,1.8148046875,-0.39830711483955383,-0.058481615036726,-0.8636449575424194
1759347998408863500,1.824863525390625,-0.4089139699935913,-0.08190944045782089,-0.849777340888977
1759347998418921700,1.834921630859375,-0.4580360949039459,-0.09288322925567627,-0.8442031741142273
1759347998428979700,1.844979736328125,-0.5265600085258484,-0.13436569273471832,-0.7860444784164429
1759347998439037400,1.855037353515625,-0.5877580046653748,-0.11582551896572113,-0.7779603004455566
1759347998449096700,1.8650966796875,-0.6341001987457275,-0.05704076960682869,-0.7981270551681519
1759347998459154700,1.87515478515625,-0.6576443910598755,-0.028692681342363358,-0.8134610652923584
1759347998469212400,1.88521240234375,-0.6656929850578308,-0.043110501021146774,-0.8175836205482483
1759347998479271700,1.895271728515625,-0.6664112210273743,-0.08016727864742279,-0.8168491125106812
1759347998489329700,1.90532958984375,-0.6590877771377563,-0.10973582416772842,-0.8092255592346191
1759347998499386600,1.91538671875,-0.6559280157089233,-0.13470062613487244,-0.7974892854690552
1759347998509445400,1.9254453125,-0.6509494781494141,-0.15139144659042358,-0.7781331539154053
1759347998519503400,1.93550341796875,-0.648137629032135,-0.17864800989627838,-0.7523279786109924
1759347998529561600,1.9455615234375,-0.6516591310501099,-0.19508904218673706,-0.7304762601852417
1759347998539620400,1.955620361328125,-0.6663031578063965,-0.22388003766536713,-0.7141882181167603
1759347998549678600,1.9656787109375,-0.6953111290931702,-0.2660663425922394,-0.6895145773887634
1759347998559736600,1.975736572265625,-0.7283807992935181,-0.29851168394088745,-0.6764634847640991
1759347998569794300,1.985794189453125,-0.7613528370857239,-0.3271813988685608,-0.6723944544792175
1759347998579853600,1.995853515625,-0.7905803322792053,-0.3504374921321869,-0.6806739568710327
1759347998589911600,2.00591162109375,-0.8137556910514832,-0.35132405161857605,-0.6996990442276001
1759347998599969300,2.01596923828125,-0.8367674350738525,-0.35085466504096985,-0.7094769477844238
1759347998610028500,2.026028564453125,-0.8565214276313782,-0.3448324501514435,-0.7134101986885071
1759347998620086500,2.03608642578125,-0.8749769926071167,-0.3533271849155426,-0.7045745253562927
1759347998630144300,2.046144287109375,-0.8893963694572449,-0.3610016405582428,-0.6891071796417236
1759347998640203500,2.05620361328125,-0.9108166098594666,-0.3657444417476654,-0.6683547496795654
1759347998650261500,2.066261474609375,-0.9288904070854187,-0.3903999924659729,-0.6472992300987244
1759347998660319500,2.076319580078125,-0.9496335983276367,-0.4112967848777771,-0.627140998840332
1759347998670377500,2.08637744140625,-0.9702203869819641,-0.4244336187839508,-0.6050500869750977
1759347998680436500,2.0964365234375,-0.9808915853500366,-0.4302261769771576,-0.5885388255119324
1759347998690494500,2.106494384765625,-0.9909911155700684,-0.43484169244766235,-0.5687264800071716
1759347998700552400,2.116552490234375,-1.0119587182998657,-0.44078534841537476,-0.5518316626548767
1759347998710611500,2.126611572265625,-1.0175907611846924,-0.4492717683315277,-0.5283095240592957
1759347998720669400,2.13666943359375,-0.9810842275619507,-0.4495013654232025,-0.4995814263820648
1759347998730727400,2.1467275390625,-0.9474799633026123,-0.4706724286079407,-0.45720118284225464
1759347998740786400,2.156786376953125,-0.8989891409873962,-0.5167913436889648,-0.41074973344802856
1759347998750844400,2.166844482421875,-0.8462268114089966,-0.5460461378097534,-0.3782586455345154
1759347998760902400,2.17690234375,-0.8238286375999451,-0.5716511011123657,-0.3571234941482544
1759347998770960600,2.186960693359375,-0.8253003358840942,-0.5902524590492249,-0.3485707640647888
1759347998781019400,2.197019287109375,-0.8505260944366455,-0.5904828310012817,-0.3583046793937683
1759347998791077400,2.207077392578125,-0.8863701224327087,-0.600177526473999,-0.37325218319892883
1759347998801135600,2.217135498046875,-0.9282575845718384,-0.590247392654419,-0.3973892629146576
1759347998811194400,2.2271943359375,-0.9598623514175415,-0.5599597692489624,-0.42268794775009155
1759347998821252600,2.237252685546875,-0.9880579113960266,-0.5354967713356018,-0.4488183856010437
1759347998831310600,2.247310546875,-1.0198509693145752,-0.5121096968650818,-0.47960585355758667
1759347998841369300,2.257369384765625,-1.0905110836029053,-0.4946838319301605,-0.5012477040290833
1759347998851427600,2.267427490234375,-1.1434104442596436,-0.4929168224334717,-0.5113546848297119
1759347998861485600,2.277485595703125,-1.185281753540039,-0.5048366785049438,-0.5165003538131714
1759347998871543300,2.287543212890625,-1.214365005493164,-0.49420613050460815,-0.5275961756706238
1759347998881602600,2.2976025390625,-1.1977224349975586,-0.4934644103050232,-0.5389636158943176
1759347998891660500,2.30766064453125,-1.1610592603683472,-0.5139174461364746,-0.5455325841903687
1759347998901718300,2.31771826171875,-1.1209951639175415,-0.5597401857376099,-0.5464209318161011
1759347998911777500,2.327777587890625,-1.079594373703003,-0.6130987405776978,-0.5439242124557495
1759347998921835500,2.33783544921875,-1.0226175785064697,-0.628760814666748,-0.5386409759521484
1759347998931893200,2.347893310546875,-0.942264974117279,-0.6301690936088562,-0.5272098779678345
1759347998941952500,2.357952392578125,-0.8661578893661499,-0.5980455875396729,-0.5115821361541748
1759347998952010500,2.368010498046875,-0.7804189920425415,-0.5698400139808655,-0.48760414123535156
1759347998962068500,2.378068359375,-0.6980976462364197,-0.5251271724700928,-0.48481041193008423
1759347998972126500,2.38812646484375,-0.6557297110557556,-0.5275411009788513,-0.47531571984291077
1759347998982185500,2.398185546875,-0.6364209651947021,-0.572486162185669,-0.4626782238483429
1759347998992243500,2.408243408203125,-0.6250455379486084,-0.6201868653297424,-0.4563870131969452
1759347999002301400,2.418301513671875,-0.5985144376754761,-0.6368693709373474,-0.4663550853729248
1759347999012360400,2.4283603515625,-0.5530878305435181,-0.6420643925666809,-0.4911046326160431
1759347999022418400,2.43841845703125,-0.4990308880805969,-0.6404491066932678,-0.518617570400238
1759347999032476400,2.448476318359375,-0.4609825611114502,-0.6399915814399719,-0.5514471530914307
1759347999042534400,2.458534423828125,-0.43218377232551575,-0.622731626033783,-0.5892972946166992
1759347999052593400,2.468593505859375,-0.4193470776081085,-0.6156723499298096,-0.6158032417297363
1759347999062651400,2.4786513671875,-0.41877371072769165,-0.6347768306732178,-0.6169201731681824
1759347999072709600,2.488709716796875,-0.41411343216896057,-0.6434909105300903,-0.5959738492965698
1759347999082768400,2.498768310546875,-0.4149633049964905,-0.6689994931221008,-0.5533715486526489
1759347999092826400,2.508826416015625,-0.4193916320800781,-0.715242862701416,-0.5004766583442688
1759347999102884600,2.518884521484375,-0.40104973316192627,-0.7572833299636841,-0.4573080837726593
1759347999112942300,2.5289423828125,-0.37174561619758606,-0.7837972640991211,-0.42668333649635315
1759347999123001600,2.539001708984375,-0.3409746587276459,-0.8057477474212646,-0.4032028317451477
1759347999133059600,2.5490595703125,-0.306367963552475,-0.8485373258590698,-0.3878433406352997
1759347999143117300,2.559117431640625,-0.28306078910827637,-0.9008587598800659,-0.39288127422332764
1759347999153176600,2.569176513671875,-0.27772223949432373,-0.9675557613372803,-0.4054977595806122
1759347999163234600,2.579234619140625,-0.2714688777923584,-1.062548041343689,-0.41412925720214844
1759347999173292300,2.589292236328125,-0.2557855248451233,-1.1384812593460083,-0.4263864755630493
1759347999183350500,2.5993505859375,-0.22099006175994873,-1.1668908596038818,-0.44081971049308777
1759347999193409500,2.609409423828125,-0.21278727054595947,-1.0948749780654907,-0.47009795904159546
1759347999203467300,2.61946728515625,-0.20211546123027802,-0.9304884672164917,-0.4935445487499237
1759347999213525500,2.629525390625,-0.15499456226825714,-0.7475322484970093,-0.47834348678588867
1759347999223584500,2.63958447265625,-0.11929043382406235,-0.5724477767944336,-0.450562983751297
1759347999233642500,2.649642578125,-0.10320041328668594,-0.4484952390193939,-0.41126057505607605
1759347999243700500,2.659700439453125,-0.10078804194927216,-0.3783600628376007,-0.3731299042701721
1759347999253758500,2.669758544921875,-0.11602425575256348,-0.34088966250419617,-0.36143171787261963
1759347999263817500,2.6798173828125,-0.11127211153507233,-0.3496794104576111,-0.35699841380119324
1759347999273875500,2.68987548828125,-0.08735426515340805,-0.3579149842262268,-0.38164225220680237
1759347999283933400,2.699933349609375,-0.05277650058269501,-0.36568260192871094,-0.4237082302570343
1759347999293992400,2.709992431640625,0.006047935225069523,-0.38321632146835327,-0.46007102727890015
1759347999304050400,2.720050537109375,0.08562525361776352,-0.41113391518592834,-0.4780508875846863
1759347999314108400,2.7301083984375,0.11625107377767563,-0.4454341232776642,-0.4940112233161926
1759347999324166700,2.740166748046875,0.14307281374931335,-0.4667128324508667,-0.49174290895462036
1759347999334225400,2.750225341796875,0.14673013985157013,-0.48291417956352234,-0.47310903668403625
1759347999344283600,2.76028369140625,0.155489981174469,-0.47760501503944397,-0.4470179080963135
1759347999354341600,2.770341552734375,0.16350556910037994,-0.47219720482826233,-0.4070095121860504
1759347999364400400,2.780400390625,0.15216699242591858,-0.4818645417690277,-0.3569694757461548
1759347999374458600,2.790458740234375,0.12182320654392242,-0.4671119749546051,-0.31940293312072754
1759347999384516400,2.800516357421875,0.08177530020475388,-0.43024325370788574,-0.28504326939582825
1759347999394574300,2.81057421875,0.05657007545232773,-0.35515835881233215,-0.25010979175567627
1759347999404633600,2.820633544921875,-0.008336611092090607,-0.2598494291305542,-0.2230517566204071
1759347999414691300,2.83069140625,-0.018560752272605896,-0.12664343416690826,-0.18973134458065033
1759347999424749300,2.840749267578125,-0.0073907822370529175,0.014925716444849968,-0.14971551299095154
1759347999434807600,2.8508076171875,-0.005071168765425682,0.15673211216926575,-0.11261901259422302
1759347999444866300,2.8608662109375,-0.009985985234379768,0.2677914500236511,-0.06669913977384567
1759347999454924500,2.870924560546875,-0.027529291808605194,0.34463778138160706,-0.019545745104551315
1759347999464982500,2.880982421875,-0.04043559730052948,0.3799258768558502,0.038265522569417953
1759347999475041300,2.891041259765625,-0.08319345116615295,0.3783649802207947,0.10484214872121811
1759347999485099500,2.901099609375,-0.14022165536880493,0.3441520929336548,0.17635390162467957
1759347999495157500,2.911157470703125,-0.14234685897827148,0.33308401703834534,0.22771616280078888
1759347999505215700,2.9212158203125,-0.07357244938611984,0.36361929774284363,0.2376427799463272
1759347999515274500,2.9312744140625,-0.006933235097676516,0.36136841773986816,0.19566869735717773
1759347999525332700,2.941332763671875,0.009318157099187374,0.3059551417827606,0.11303061991930008
1759347999535390700,2.951390625,-0.004602452740073204,0.20713776350021362,0.03215042129158974
1759347999545449500,2.961449462890625,-0.0016553755849599838,0.10661547631025314,-0.024698738008737564
1759347999555507700,2.9715078125,0.022101085633039474,0.028406694531440735,-0.04490946978330612
1759347999565565700,2.981565673828125,0.053876351565122604,-0.03313029929995537,-0.03582911193370819
1759347999575623400,2.99162353515625,0.08680926263332367,-0.09422081708908081,-0.013570411130785942
1759347999585682700,3.0016826171875,0.10949630290269852,-0.1617361158132553,-0.0010386467911303043
1759347999595740700,3.01174072265625,0.10037843883037567,-0.23399193584918976,-0.010160239413380623
1759347999605798400,3.02179833984375,0.13193073868751526,-0.27008187770843506,-0.04375408962368965
1759347999615856600,3.031856689453125,0.16905146837234497,-0.2904622554779053,-0.08636199682950974
1759347999625915600,3.04191552734375,0.18154868483543396,-0.2986285984516144,-0.13618889451026917
1759347999635973600,3.0519736328125,0.17084065079689026,-0.29568660259246826,-0.1778300702571869
1759347999646031600,3.062031494140625,0.15182259678840637,-0.2879480719566345,-0.20244982838630676
1759347999656090600,3.072090576171875,0.10198819637298584,-0.28174078464508057,-0.21503299474716187
1759347999666148600,3.082148681640625,0.09336250275373459,-0.23662038147449493,-0.21593162417411804
1759347999676206600,3.09220654296875,0.06951548904180527,-0.17351703345775604,-0.20951740443706512
1759347999686264600,3.1022646484375,0.024406207725405693,-0.10030804574489594,-0.1912907510995865
1759347999696323600,3.112323486328125,-0.021838253363966942,-0.015444022603332996,-0.15323525667190552
1759347999706381600,3.122381591796875,-0.06524735689163208,0.0898270383477211,-0.09394312649965286
1759347999716439600,3.132439453125,-0.09464971721172333,0.20038923621177673,-0.019704578444361687
1759347999726497500,3.14249755859375,-0.11000602692365646,0.2838759422302246,0.05015325918793678
1759347999736556500,3.152556640625,-0.12505528330802917,0.32344546914100647,0.10056796669960022
1759347999746614800,3.16261474609375,-0.13677377998828888,0.3281712830066681,0.12076018750667572
1759347999756672500,3.172672607421875,-0.15090104937553406,0.32370489835739136,0.11420269310474396
1759347999766730500,3.18273046875,-0.15068109333515167,0.33674395084381104,0.09198054671287537
1759347999776789800,3.192789794921875,-0.16806115210056305,0.36263492703437805,0.07927406579256058
1759347999786847500,3.202847412109375,-0.13651688396930695,0.42282015085220337,0.08441786468029022
1759347999796905500,3.212905517578125,-0.09645228832960129,0.48988309502601624,0.09914781153202057
1759347999806964700,3.22296484375,-0.08120112121105194,0.5461307764053345,0.11178801953792572
1759347999817022500,3.2330224609375,-0.09210623800754547,0.5582979917526245,0.12071041017770767
1759347999827080400,3.24308056640625,-0.11531451344490051,0.503722608089447,0.11488354951143265
1759347999837138700,3.253138671875,-0.13971839845180511,0.39699941873550415,0.09520918130874634
1759347999847197400,3.263197509765625,-0.15221989154815674,0.2675236761569977,0.06270045042037964
1759347999857255700,3.273255615234375,-0.1596868634223938,0.13394060730934143,0.021410532295703888
1759347999867313700,3.283313720703125,-0.17486563324928284,0.010691056028008461,-0.009748436510562897
1759347999877371600,3.29337158203125,-0.18703573942184448,-0.05061570927500725,-0.021879401057958603
1759347999887430700,3.3034306640625,-0.166836678981781,-0.04261426627635956,-0.02070470340549946
1759347999897488600,3.313488525390625,-0.180212140083313,-0.04669902101159096,0.008301914669573307
1759347999907546600,3.323546630859375,-0.1542607694864273,-0.003271691268309951,0.043276503682136536
1759347999917604600,3.3336044921875,-0.1359802931547165,0.0049681286327540874,0.08584553748369217
1759347999927663600,3.34366357421875,-0.12891481816768646,-0.008038840256631374,0.12641170620918274
1759347999937721600,3.3537216796875,-0.12333602458238602,-0.02205825224518776,0.15981920063495636
1759347999947779600,3.363779541015625,-0.12082406133413315,-0.015994463115930557,0.1954234540462494
1759347999957838600,3.373838623046875,-0.12390294671058655,0.025653913617134094,0.22812813520431519
1759347999967896600,3.383896484375,-0.12672050297260284,0.07604218274354935,0.2528913915157318
1759347999977954600,3.39395458984375,-0.16851669549942017,0.13831540942192078,0.30942392349243164
1759347999988012500,3.404012451171875,-0.15309207141399384,0.2689833641052246,0.3465694487094879
1759347999998071600,3.414071533203125,-0.12937235832214355,0.4682629108428955,0.362175852060318
1759348000008129500,3.424129638671875,-0.10874436050653458,0.7115262150764465,0.3683788776397705
1759348000018187500,3.4341875,-0.06461258232593536,0.9915746450424194,0.3452208340167999
1759348000028245800,3.444245849609375,-0.07273980975151062,1.1849101781845093,0.32051903009414673
1759348000038304500,3.454304443359375,-0.11060623079538345,1.2773897647857666,0.30185720324516296
1759348000048362500,3.464362548828125,-0.13718749582767487,1.2992628812789917,0.28894877433776855
1759348000058420700,3.474420654296875,-0.14104081690311432,1.2647173404693604,0.27872487902641296
1759348000068478500,3.484478515625,-0.12657731771469116,1.1872403621673584,0.2684934735298157
1759348000078537700,3.494537841796875,-0.09334239363670349,1.0670872926712036,0.250454843044281
1759348000088595700,3.504595703125,-0.05453228950500488,0.9203088283538818,0.2220035195350647
1759348000098653400,3.5146533203125,-0.02333388850092888,0.7711315751075745,0.19261154532432556
1759348000108711400,3.52471142578125,-0.03740263730287552,0.5986498594284058,0.1813875287771225
1759348000118770700,3.534770751953125,-0.04069084674119949,0.4779106676578522,0.1567021608352661
1759348000128828400,3.544828369140625,-0.028940383344888687,0.3645479381084442,0.11815705895423889
1759348000138886700,3.55488671875,-0.022962119430303574,0.27179935574531555,0.08249014616012573
1759348000148944600,3.564944580078125,-0.0492434948682785,0.1709824800491333,0.07744380086660385
1759348000159003400,3.57500341796875,-0.05480284243822098,0.11340707540512085,0.08091096580028534
1759348000169061600,3.5850615234375,-0.054930150508880615,0.09992529451847076,0.07412397861480713
1759348000179119600,3.59511962890625,-0.06984704732894897,0.05631975829601288,0.06653770059347153
1759348000189177600,3.605177490234375,-0.0922670066356659,-0.02417345531284809,0.057098619639873505
1759348000199236600,3.615236572265625,-0.11159409582614899,-0.1361985206604004,0.055402450263500214
1759348000209294600,3.625294677734375,-0.1564655750989914,-0.26105213165283203,0.08530746400356293
1759348000219352600,3.6353525390625,-0.13689586520195007,-0.2916678190231323,0.09531828761100769
1759348000229410600,3.64541064453125,-0.10856914520263672,-0.25470948219299316,0.10045651346445084
1759348000239469600,3.655469482421875,-0.07072722166776657,-0.17064733803272247,0.0824575424194336
1759348000249527800,3.66552783203125,-0.058604687452316284,-0.10246316343545914,0.06363749504089355
1759348000259585500,3.67558544921875,-0.057591356337070465,-0.04497350752353668,0.05056404322385788
1759348000269643500,3.6856435546875,-0.06573932617902756,0.004296180326491594,0.05167815834283829
1759348000279702800,3.695702880859375,-0.08229566365480423,-0.001183805987238884,0.07262738794088364
1759348000289760500,3.705760498046875,-0.10869338363409042,0.02492591366171837,0.10387038439512253
1759348000299818500,3.715818603515625,-0.07270022481679916,0.12471429258584976,0.10343176126480103
1759348000309876700,3.725876708984375,-0.09096187353134155,0.18458914756774902,0.08940067142248154
1759348000319935500,3.735935546875,-0.11831572651863098,0.22456559538841248,0.06673850119113922
1759348000329993500,3.745993408203125,-0.12646129727363586,0.2641027569770813,0.03894003853201866
1759348000340051700,3.7560517578125,-0.1438988745212555,0.3062845766544342,0.02749856561422348
1759348000350109700,3.766109619140625,-0.1591232717037201,0.3077985942363739,0.025704016909003258
1759348000360168700,3.776168701171875,-0.16802142560482025,0.2613128423690796,0.02673838846385479
1759348000370226700,3.786226806640625,-0.16041244566440582,0.2028847634792328,0.021668266505002975
1759348000380284700,3.79628466796875,-0.13302397727966309,0.14587874710559845,0.002747839316725731
1759348000390342400,3.80634228515625,-0.09677038341760635,0.09658192098140717,-0.008886302821338177
1759348000400401700,3.816401611328125,-0.06499940156936646,0.07757493853569031,-0.008434098213911057
1759348000410459400,3.82645947265625,-0.03729139268398285,0.10276710242033005,-0.006619327701628208
1759348000420517600,3.836517578125,-0.027278441935777664,0.13659536838531494,0.008647242560982704
1759348000430575600,3.84657568359375,-0.03009648621082306,0.16251684725284576,0.030504517257213593
1759348000440633600,3.856633544921875,-0.030906885862350464,0.18932528793811798,0.05496618524193764
1759348000450692600,3.866692626953125,-0.03310999274253845,0.20877966284751892,0.07416388392448425
1759348000460750600,3.87675048828125,-0.027634264901280403,0.21399812400341034,0.08742082864046097
1759348000470808600,3.88680859375,-0.01213928870856762,0.20005165040493011,0.09396868944168091
1759348000480866600,3.896866455078125,-0.006056095939129591,0.14830589294433594,0.1066509261727333
1759348000490926600,3.906926513671875,0.007062066346406937,0.08748148381710052,0.11447612196207047
1759348000500984300,3.916984375,0.01808036118745804,0.02884799800813198,0.11680931597948074
1759348000511042300,3.927042236328125,0.024991724640130997,-0.016376646235585213,0.11662988364696503
1759348000521100500,3.9371005859375,0.02265799790620804,-0.04520216956734657,0.11324473470449448
1759348000531159300,3.9471591796875,0.01270995382219553,-0.06039860472083092,0.11567411571741104
1759348000541217500,3.957217529296875,0.0028290925547480583,-0.06883123517036438,0.11940973252058029
1759348000551275500,3.967275634765625,-0.013821684755384922,-0.08093256503343582,0.13580520451068878
1759348000561333500,3.97733349609375,-0.028388377279043198,-0.11391155421733856,0.15470139682292938
1759348000571392500,3.987392578125,-0.03149382770061493,-0.15897291898727417,0.16617831587791443
1759348000581450500,3.997450439453125,-0.017683207988739014,-0.2010633945465088,0.157859668135643
1759348000591508500,4.007508544921875,-0.0009913328103721142,-0.22339436411857605,0.12846224009990692
1759348000601566500,4.01756640625,0.021120093762874603,-0.20625771582126617,0.0748075395822525
1759348000611624400,4.02762451171875,0.022708918899297714,-0.17411082983016968,0.020890915766358376
1759348000621683500,4.037683349609375,-0.00036790361627936363,-0.15643249452114105,-0.015768827870488167
1759348000631741400,4.047741455078125,-0.023887548595666885,-0.15200655162334442,-0.02608470246195793
1759348000641799400,4.05779931640625,-0.037729594856500626,-0.15372854471206665,-0.00828999187797308
1759348000651857400,4.067857421875,-0.037966661155223846,-0.15779884159564972,0.03156312555074692
1759348000661916400,4.07791650390625,-0.028393395245075226,-0.17542071640491486,0.07658626139163971
1759348000671974400,4.087974365234375,-0.018773429095745087,-0.20813097059726715,0.10598228871822357
1759348000682032400,4.098032470703125,-0.020816072821617126,-0.25324225425720215,0.11444741487503052
1759348000692090600,4.108090576171875,-0.02248605713248253,-0.2878336012363434,0.1008087620139122
1759348000702149400,4.1181494140625,-0.02279125526547432,-0.30441737174987793,0.07278911024332047
1759348000712207600,4.12820751953125,-0.017829185351729393,-0.29666388034820557,0.04969753324985504
1759348000722265600,4.138265625,-0.013507673516869545,-0.2812945246696472,0.03465093672275543
1759348000732323300,4.1483232421875,-0.0068736569955945015,-0.25848251581192017,0.03285643085837364
1759348000742381600,4.158381591796875,0.001152843702584505,-0.2314029484987259,0.031199146062135696
1759348000752440600,4.168440673828125,0.015934063121676445,-0.18925966322422028,0.022240430116653442
1759348000762498300,4.178498291015625,0.028989944607019424,-0.14291054010391235,0.007651368156075478
1759348000772556500,4.188556640625,0.03393818438053131,-0.10133121907711029,0.0010783527977764606
1759348000782614500,4.198614501953125,0.041433919221162796,-0.07586021721363068,-0.0028404886834323406
1759348000792673300,4.20867333984375,0.05418424680829048,-0.059189025312662125,0.0022832341492176056
1759348000802731500,4.2187314453125,0.0687599927186966,-0.04641011357307434,0.014251213520765305
1759348000812789500,4.22878955078125,0.07260572910308838,-0.03677988424897194,0.029865095391869545
1759348000822847500,4.238847412109375,0.06208357959985733,-0.01938544772565365,0.046714115887880325
1759348000832905500,4.248905517578125,0.04974702000617981,0.002743291202932596,0.06419350951910019
1759348000842964500,4.258964599609375,0.037538982927799225,0.019219625741243362,0.07788850367069244
1759348000853022500,4.2690224609375,0.030687494203448296,0.0350891649723053,0.08675320446491241
1759348000863080400,4.27908056640625,0.016546642407774925,0.032794851809740067,0.09323321282863617
1759348000873138400,4.289138427734375,-0.00017728330567479134,0.003472333773970604,0.0933355987071991
1759348000883197400,4.299197509765625,-0.009053599089384079,-0.05321944132447243,0.08982767909765244
1759348000893255400,4.30925537109375,-0.016783621162176132,-0.10782036930322647,0.07959389686584473
1759348000903313400,4.3193134765625,-0.02868741750717163,-0.14729321002960205,0.06386979669332504
1759348000913371600,4.32937158203125,-0.041516758501529694,-0.15442003309726715,0.04649966582655907
1759348000923429400,4.339429443359375,-0.04962289333343506,-0.13858115673065186,0.02961309440433979
1759348000933488400,4.34948828125,-0.05234358832240105,-0.12356208264827728,0.016258548945188522
1759348000943546600,4.359546630859375,-0.05585150420665741,-0.13270153105258942,0.0095596332103014
1759348000953604400,4.369604248046875,-0.05874929577112198,-0.17518405616283417,0.006949807517230511
1759348000963662300,4.379662353515625,-0.05515988543629646,-0.24043363332748413,0.006056583486497402
1759348000973720600,4.389720458984375,-0.05325400084257126,-0.3007662296295166,0.003317557740956545
1759348000983779300,4.399779296875,-0.045836031436920166,-0.3358304798603058,-0.002208767458796501
1759348000993837300,4.40983740234375,-0.032503996044397354,-0.3444669842720032,-0.00696442648768425
1759348001003895600,4.4198955078125,-0.03175032138824463,-0.3296603560447693,-0.013958953320980072
1759348001013953500,4.42995361328125,-0.02860017493367195,-0.3034253418445587,-0.022353559732437134
1759348001024012500,4.440012451171875,-0.018380828201770782,-0.26113247871398926,-0.029954221099615097
1759348001034070500,4.450070556640625,-0.005178986582905054,-0.20771755278110504,-0.03181065618991852
1759348001044128500,4.46012841796875,0.006376469507813454,-0.15319545567035675,-0.02513490989804268
1759348001054186500,4.4701865234375,0.00999748520553112,-0.09447967261075974,-0.018591981381177902
1759348001064244500,4.480244384765625,0.011341849341988564,-0.036301590502262115,-0.014553830027580261
1759348001074303500,4.490303466796875,0.013874840922653675,0.02548486553132534,-0.012531215324997902
1759348001084361500,4.500361572265625,0.017291411757469177,0.08296893537044525,-0.006093556061387062
1759348001094419500,4.51041943359375,0.01662757247686386,0.13181887567043304,0.009775495156645775
1759348001104477400,4.5204775390625,0.020069442689418793,0.1536208540201187,0.03622521087527275
1759348001114535700,4.53053564453125,0.02822364866733551,0.1579325795173645,0.0706174373626709
1759348001124594400,4.540594482421875,0.033312950283288956,0.15195724368095398,0.0996490865945816
1759348001134652400,4.55065234375,0.027391687035560608,0.14384667575359344,0.11219509690999985
1759348001144710700,4.560710693359375,0.018101248890161514,0.1333407759666443,0.10419762134552002
1759348001154768400,4.570768310546875,0.016105715185403824,0.11789867281913757,0.0780404806137085
1759348001164826400,4.580826416015625,0.007285859435796738,0.0925041064620018,0.04703010246157646
1759348001174885600,4.5908857421875,-0.0005719149485230446,0.04657406732439995,0.022426504641771317
1759348001184943400,4.600943359375,-0.008169913664460182,-0.0013963875826448202,0.010208187624812126
1759348001195001300,4.61100146484375,-0.008962059393525124,-0.039431530982255936,0.0072548300959169865
1759348001205059600,4.6210595703125,-0.011006301268935204,-0.05983667075634003,0.012175552546977997
1759348001215117600,4.63111767578125,-0.011748131364583969,-0.07815556228160858,0.015145351178944111
1759348001225176600,4.641176513671875,-0.019307248294353485,-0.10188059508800507,0.01366703025996685
1759348001235234600,4.651234619140625,-0.019518693909049034,-0.12601140141487122,0.007006853353232145
1759348001245292500,4.66129248046875,-0.020904071629047394,-0.1452500820159912,-0.00393261294811964
1759348001255350300,4.671350341796875,-0.022336449474096298,-0.15291622281074524,-0.013891274109482765
1759348001265408500,4.681408447265625,-0.02704012393951416,-0.14310194551944733,-0.021238667890429497
1759348001275467500,4.691467529296875,-0.03514203429222107,-0.1319938600063324,-0.02135460078716278
1759348001285525500,4.701525390625,-0.044580549001693726,-0.11538345366716385,-0.016763577237725258
1759348001295583500,4.71158349609375,-0.04740481823682785,-0.10475703328847885,-0.009740237146615982
1759348001305641500,4.721641357421875,-0.04348491132259369,-0.09381090849637985,-0.00124288909137249
1759348001315699500,4.731699462890625,-0.03323943912982941,-0.07702130079269409,0.003133126301690936
1759348001325758500,4.741758544921875,-0.03020370379090309,-0.05927053093910217,0.005007459316402674
1759348001335816400,4.75181640625,-0.03524944931268692,-0.01659511774778366,0.017676737159490585
1759348001345874400,4.76187451171875,-0.038757894188165665,0.11044858396053314,0.08142802119255066
1759348001355932400,4.771932373046875,-0.026344571262598038,0.17124159634113312,0.10830828547477722
1759348001365990400,4.781990478515625,-0.00999009795486927,0.17726513743400574,0.10551862418651581
1759348001376049400,4.79204931640625,0.0022700540721416473,0.10712716728448868,0.0597819909453392
1759348001386107400,4.802107421875,0.004748125560581684,-0.0015998496674001217,-0.012934823520481586
1759348001396165400,4.812165283203125,0.0017188824713230133,-0.09600917249917984,-0.08580847829580307
1759348001406223600,4.8222236328125,-0.007060494273900986,-0.14080406725406647,-0.1356428861618042
1759348001416281300,4.83228125,-0.010260535404086113,-0.10766635835170746,-0.14198002219200134
