seconds_elapsed,acc_z,acc_y,acc_x,grav_z,grav_y,grav_x,gyro_z,gyro_y,gyro_x
0.0800,0.1498,-0.0668,-0.0884,0.4200,-7.0047,-6.8503,-0.0040,0.0325,0.0417
0.0900,0.1517,-0.0680,-0.0837,0.4205,-7.0048,-6.8502,-0.0040,0.0325,0.0417
0.1000,0.1535,-0.0691,-0.0790,0.4211,-7.0049,-6.8501,-0.0040,0.0325,0.0417
0.1100,0.1500,-0.0685,-0.0569,0.4222,-7.0050,-6.8499,-0.0036,0.0186,0.0317
0.1200,0.1272,-0.0580,-0.0164,0.4235,-7.0052,-6.8497,-0.0026,-0.0109,0.0105
0.1300,0.0887,-0.0659,0.0121,0.4252,-7.0053,-6.8495,-0.0032,-0.0180,0.0024
0.1400,0.0418,-0.0800,0.0133,0.4266,-7.0056,-6.8491,-0.0034,-0.0221,-0.0064
0.1500,0.0291,-0.0949,-0.0053,0.4282,-7.0058,-6.8488,-0.0008,-0.0156,-0.0055
0.1600,0.0258,-0.0858,-0.0137,0.4291,-7.0061,-6.8484,-0.0022,-0.0117,-0.0117
0.1700,0.0069,-0.0927,-0.0268,0.4296,-7.0064,-6.8481,-0.0008,-0.0066,-0.0041
0.1800,0.0127,-0.0997,-0.0318,0.4302,-7.0066,-6.8478,-0.0010,-0.0058,-0.0007
0.1900,-0.0031,-0.0915,-0.0345,0.4309,-7.0068,-6.8475,-0.0030,-0.0052,0.0004
0.2000,0.0202,-0.0935,-0.0445,0.4315,-7.0072,-6.8471,-0.0057,0.0013,0.0085
0.2100,0.0641,-0.0818,-0.0731,0.4323,-7.0078,-6.8465,-0.0083,0.0092,0.0203
0.2200,0.1054,-0.0787,-0.0873,0.4333,-7.0084,-6.8458,-0.0108,0.0086,0.0254
0.2300,0.1052,-0.0692,-0.1050,0.4351,-7.0092,-6.8449,-0.0152,-0.0009,0.0258
0.2400,0.0997,-0.0401,-0.1302,0.4374,-7.0103,-6.8436,-0.0212,-0.0130,0.0168
0.2500,0.1099,-0.0179,-0.1351,0.4399,-7.0118,-6.8419,-0.0260,-0.0128,0.0162
0.2600,0.1276,0.0061,-0.1681,0.4423,-7.0134,-6.8400,-0.0297,-0.0123,0.0077
0.2700,0.1424,0.0310,-0.2123,0.4442,-7.0152,-6.8381,-0.0340,-0.0216,-0.0093
0.2800,0.1408,0.0325,-0.2423,0.4457,-7.0167,-6.8365,-0.0346,-0.0331,-0.0222
0.2900,0.1176,0.0381,-0.2644,0.4482,-7.0182,-6.8347,-0.0328,-0.0497,-0.0362
0.3000,0.0907,0.0479,-0.2413,0.4504,-7.0190,-6.8338,-0.0338,-0.0641,-0.0463
0.3100,0.0577,0.0730,-0.2016,0.4538,-7.0197,-6.8329,-0.0337,-0.0787,-0.0612
0.3200,0.0443,0.0789,-0.1697,0.4561,-7.0200,-6.8324,-0.0306,-0.0787,-0.0667
0.3300,0.0444,0.0730,-0.1329,0.4583,-7.0201,-6.8322,-0.0270,-0.0723,-0.0677
0.3400,0.0429,0.0573,-0.0981,0.4599,-7.0200,-6.8322,-0.0224,-0.0659,-0.0673
0.3500,0.0538,0.0427,-0.0513,0.4609,-7.0197,-6.8324,-0.0169,-0.0659,-0.0658
0.3600,0.0552,0.0245,-0.0247,0.4619,-7.0194,-6.8326,-0.0120,-0.0772,-0.0652
0.3700,0.0165,-0.0033,-0.0246,0.4635,-7.0192,-6.8327,-0.0074,-0.0943,-0.0615
0.3800,-0.0402,-0.0215,-0.0233,0.4663,-7.0190,-6.8328,-0.0040,-0.1117,-0.0640
0.3900,-0.0963,-0.0455,-0.0199,0.4698,-7.0189,-6.8326,-0.0010,-0.1123,-0.0683
0.4000,-0.1160,-0.0755,-0.0285,0.4728,-7.0189,-6.8324,0.0030,-0.0967,-0.0683
0.4100,-0.1189,-0.1139,-0.0284,0.4745,-7.0187,-6.8325,0.0066,-0.0824,-0.0664
0.4200,-0.1113,-0.1501,0.0005,0.4752,-7.0185,-6.8327,0.0088,-0.0748,-0.0634
0.4300,-0.0865,-0.1803,0.0356,0.4756,-7.0181,-6.8330,0.0094,-0.0751,-0.0637
0.4400,-0.0963,-0.2069,0.0825,0.4758,-7.0179,-6.8332,0.0097,-0.0760,-0.0612
0.4500,-0.1324,-0.2320,0.1554,0.4760,-7.0179,-6.8332,0.0100,-0.0744,-0.0564
0.4600,-0.1564,-0.2506,0.2016,0.4760,-7.0185,-6.8326,0.0106,-0.0717,-0.0548
0.4700,-0.1808,-0.2709,0.2278,0.4753,-7.0198,-6.8313,0.0109,-0.0625,-0.0502
0.4800,-0.2017,-0.2997,0.2316,0.4734,-7.0221,-6.8291,0.0082,-0.0433,-0.0426
0.4900,-0.2126,-0.3116,0.2101,0.4699,-7.0257,-6.8256,0.0018,-0.0176,-0.0359
0.5000,-0.1890,-0.3292,0.1741,0.4644,-7.0308,-6.8207,0.0015,0.0160,-0.0188
0.5100,-0.1507,-0.3401,0.1386,0.4572,-7.0367,-6.8151,0.0079,0.0422,0.0020
0.5200,-0.1180,-0.3140,0.1247,0.4496,-7.0425,-6.8096,0.0109,0.0514,0.0215
0.5300,-0.0875,-0.2795,0.1049,0.4430,-7.0482,-6.8041,0.0091,0.0572,0.0460
0.5400,-0.0527,-0.2477,0.0731,0.4382,-7.0538,-6.7987,0.0051,0.0630,0.0698
0.5500,-0.0114,-0.1946,0.0344,0.4352,-7.0589,-6.7935,0.0008,0.0685,0.0899
0.5600,0.0029,-0.1351,0.0095,0.4341,-7.0634,-6.7890,-0.0025,0.0685,0.1013
0.5700,0.0025,-0.0896,-0.0170,0.4345,-7.0670,-6.7852,-0.0050,0.0633,0.1037
0.5800,0.0105,-0.0474,-0.0678,0.4360,-7.0697,-6.7823,-0.0074,0.0606,0.0985
0.5900,0.0207,-0.0119,-0.1298,0.4378,-7.0716,-6.7802,-0.0080,0.0636,0.0903
0.6000,0.0456,0.0120,-0.1921,0.4392,-7.0728,-6.7789,-0.0080,0.0630,0.0765
0.6100,0.0771,0.0389,-0.2467,0.4400,-7.0733,-6.7782,-0.0074,0.0535,0.0606
0.6200,0.0873,0.0488,-0.2614,0.4406,-7.0736,-6.7779,-0.0065,0.0370,0.0451
0.6300,0.0854,0.0369,-0.2556,0.4413,-7.0738,-6.7777,-0.0071,0.0221,0.0304
0.6400,0.0822,0.0489,-0.2270,0.4421,-7.0738,-6.7776,-0.0080,0.0123,0.0206
0.6500,0.0646,0.0452,-0.1694,0.4430,-7.0736,-6.7777,-0.0077,0.0022,0.0118
0.6600,0.0408,0.0376,-0.1331,0.4440,-7.0733,-6.7780,-0.0062,-0.0039,0.0084
0.6700,0.0312,0.0311,-0.1255,0.4452,-7.0727,-6.7785,-0.0044,-0.0076,0.0078
0.6800,0.0130,0.0017,-0.1284,0.4467,-7.0721,-6.7791,-0.0040,-0.0103,0.0057
0.6900,0.0116,-0.0002,-0.1410,0.4480,-7.0714,-6.7797,-0.0053,-0.0121,0.0057
0.7000,0.0233,0.0112,-0.1549,0.4495,-7.0708,-6.7802,-0.0050,-0.0146,0.0060
0.7100,0.0253,0.0165,-0.1627,0.4512,-7.0701,-6.7808,-0.0037,-0.0179,0.0032
0.7200,0.0308,0.0026,-0.1584,0.4528,-7.0693,-6.7815,-0.0031,-0.0219,-0.0005
0.7300,0.0339,-0.0246,-0.1097,0.4545,-7.0685,-6.7823,-0.0007,-0.0265,-0.0053
0.7400,0.0227,-0.0422,-0.0455,0.4562,-7.0676,-6.7831,0.0027,-0.0308,-0.0105
0.7500,0.0092,-0.0562,-0.0184,0.4577,-7.0669,-6.7838,0.0033,-0.0347,-0.0170
0.7600,-0.0053,-0.0783,-0.0084,0.4590,-7.0663,-6.7843,0.0024,-0.0375,-0.0221
0.7700,-0.0290,-0.0905,-0.0070,0.4600,-7.0661,-6.7845,0.0021,-0.0344,-0.0228
0.7800,-0.0358,-0.0894,-0.0177,0.4607,-7.0660,-6.7845,0.0008,-0.0280,-0.0228
0.7900,-0.0205,-0.0858,-0.0405,0.4610,-7.0660,-6.7845,-0.0010,-0.0213,-0.0154
0.8000,-0.0101,-0.0689,-0.0586,0.4614,-7.0661,-6.7843,-0.0016,-0.0182,-0.0044
0.8100,-0.0146,-0.0520,-0.0648,0.4623,-7.0662,-6.7842,-0.0037,-0.0195,0.0014
0.8200,-0.0136,-0.0446,-0.0830,0.4637,-7.0665,-6.7838,-0.0053,-0.0146,0.0105
0.8300,0.0051,-0.0443,-0.0883,0.4654,-7.0667,-6.7834,-0.0037,-0.0042,0.0188
0.8400,0.0394,-0.0478,-0.1029,0.4669,-7.0669,-6.7832,-0.0022,-0.0030,0.0176
0.8500,0.0584,-0.0573,-0.1221,0.4684,-7.0669,-6.7830,-0.0022,-0.0112,0.0121
0.8600,0.0651,-0.0645,-0.1163,0.4700,-7.0669,-6.7829,-0.0019,-0.0192,0.0038
0.8700,0.0946,-0.0848,-0.1153,0.4716,-7.0670,-6.7827,-0.0004,-0.0247,-0.0069
0.8800,0.1173,-0.0932,-0.1105,0.4729,-7.0670,-6.7827,-0.0004,-0.0274,-0.0148
0.8900,0.1235,-0.0944,-0.0771,0.4739,-7.0669,-6.7826,0.0011,-0.0296,-0.0185
0.9000,0.1297,-0.1388,-0.0112,0.4749,-7.0669,-6.7826,0.0045,-0.0311,-0.0206
0.9100,0.1166,-0.1713,0.0608,0.4760,-7.0666,-6.7828,0.0057,-0.0292,-0.0212
0.9200,0.0959,-0.1881,0.1253,0.4775,-7.0666,-6.7827,0.0051,-0.0244,-0.0206
0.9300,0.0880,-0.2221,0.1771,0.4794,-7.0673,-6.7818,0.0036,-0.0170,-0.0197
0.9400,0.0645,-0.2443,0.1847,0.4814,-7.0691,-6.7798,0.0008,-0.0100,-0.0166
0.9500,0.0385,-0.2375,0.1393,0.4835,-7.0723,-6.7763,-0.0053,-0.0073,-0.0102
0.9600,0.0099,-0.1936,0.0687,0.4857,-7.0767,-6.7716,-0.0163,-0.0073,0.0038
0.9700,-0.0312,-0.1204,-0.0145,0.4885,-7.0817,-6.7662,-0.0254,-0.0057,0.0218
0.9800,-0.0546,-0.0332,-0.0985,0.4916,-7.0863,-6.7612,-0.0282,-0.0036,0.0371
0.9900,-0.0806,0.0695,-0.1441,0.4948,-7.0896,-6.7575,-0.0270,-0.0033,0.0481
1.0000,-0.1142,0.1434,-0.1573,0.4985,-7.0916,-6.7550,-0.0227,-0.0018,0.0527
1.0100,-0.1335,0.1638,-0.1709,0.5022,-7.0929,-6.7534,-0.0153,0.0019,0.0509
1.0200,-0.1450,0.1667,-0.1657,0.5053,-7.0935,-6.7526,-0.0077,0.0034,0.0444
1.0300,-0.1590,0.1509,-0.1464,0.5074,-7.0932,-6.7528,0.0008,0.0047,0.0325
1.0400,-0.1465,0.0922,-0.1261,0.5080,-7.0920,-6.7539,0.0106,0.0126,0.0170
1.0500,-0.0914,0.0304,-0.1096,0.5068,-7.0900,-6.7561,0.0186,0.0288,0.0041
1.0600,-0.0152,-0.0162,-0.1081,0.5036,-7.0877,-6.7588,0.0237,0.0419,-0.0026
1.0700,0.0356,-0.0486,-0.1004,0.4995,-7.0852,-6.7616,0.0259,0.0383,-0.0005
1.0800,0.0317,-0.0869,-0.0762,0.4962,-7.0829,-6.7644,0.0277,0.0215,0.0072
1.0900,0.0175,-0.1191,-0.0593,0.4949,-7.0806,-6.7669,0.0296,0.0068,0.0151
1.1000,-0.0140,-0.1345,0.0125,0.4953,-7.0783,-6.7692,0.0323,0.0013,0.0249
1.1100,-0.0718,-0.1536,0.1117,0.4968,-7.0760,-6.7715,0.0341,0.0031,0.0304
1.1200,-0.1273,-0.1571,0.1475,0.4984,-7.0737,-6.7738,0.0332,0.0111,0.0304
1.1300,-0.1760,-0.1529,0.1387,0.4992,-7.0719,-6.7757,0.0314,0.0245,0.0322
1.1400,-0.1981,-0.1566,0.1125,0.4986,-7.0706,-6.7771,0.0286,0.0419,0.0359
1.1500,-0.1985,-0.1585,0.0499,0.4965,-7.0699,-6.7779,0.0247,0.0596,0.0420
1.1600,-0.1748,-0.1407,-0.0323,0.4932,-7.0697,-6.7783,0.0192,0.0770,0.0524
1.1700,-0.1145,-0.1095,-0.0860,0.4892,-7.0698,-6.7785,0.0124,0.0911,0.0655
1.1800,-0.0449,-0.0518,-0.1158,0.4854,-7.0700,-6.7786,0.0051,0.0941,0.0780
1.1900,0.0092,0.0118,-0.1505,0.4828,-7.0702,-6.7786,-0.0001,0.0877,0.0838
1.2000,0.0414,0.0429,-0.1936,0.4817,-7.0702,-6.7786,-0.0016,0.0813,0.0808
1.2100,0.0502,0.0499,-0.2077,0.4813,-7.0700,-6.7789,-0.0022,0.0774,0.0670
1.2200,0.1012,0.0592,-0.2313,0.4806,-7.0697,-6.7792,-0.0037,0.0709,0.0472
1.2300,0.1602,0.0637,-0.2655,0.4790,-7.0694,-6.7797,-0.0056,0.0596,0.0295
1.2400,0.1823,0.0476,-0.2709,0.4773,-7.0689,-6.7804,-0.0065,0.0480,0.0133
1.2500,0.2030,0.0239,-0.2698,0.4758,-7.0680,-6.7814,-0.0068,0.0383,0.0005
1.2600,0.2185,-0.0001,-0.2528,0.4746,-7.0667,-6.7829,-0.0077,0.0266,-0.0093
1.2700,0.2440,-0.0233,-0.2212,0.4743,-7.0651,-6.7845,-0.0095,0.0138,-0.0185
1.2800,0.2589,-0.0584,-0.1861,0.4749,-7.0635,-6.7862,-0.0117,0.0001,-0.0261
1.2900,0.2476,-0.0849,-0.1476,0.4766,-7.0621,-6.7875,-0.0147,-0.0137,-0.0322
1.3000,0.2403,-0.0787,-0.1168,0.4792,-7.0611,-6.7883,-0.0181,-0.0237,-0.0380
1.3100,0.2192,-0.0649,-0.0866,0.4823,-7.0606,-6.7886,-0.0199,-0.0296,-0.0432
1.3200,0.1943,-0.0602,-0.0736,0.4857,-7.0605,-6.7885,-0.0202,-0.0329,-0.0454
1.3300,0.1420,-0.0517,-0.0524,0.4889,-7.0606,-6.7881,-0.0190,-0.0387,-0.0426
1.3400,0.0501,-0.0561,-0.0135,0.4922,-7.0609,-6.7876,-0.0153,-0.0460,-0.0389
1.3500,-0.0201,-0.0701,0.0134,0.4953,-7.0614,-6.7869,-0.0105,-0.0467,-0.0350
1.3600,-0.0740,-0.0720,0.0295,0.4978,-7.0618,-6.7862,-0.0065,-0.0424,-0.0295
1.3700,-0.1188,-0.0764,0.0385,0.4994,-7.0622,-6.7857,-0.0019,-0.0396,-0.0246
1.3800,-0.1655,-0.0654,0.0442,0.5007,-7.0625,-6.7854,0.0027,-0.0375,-0.0215
1.3900,-0.2049,-0.0535,0.0430,0.5017,-7.0624,-6.7854,0.0060,-0.0292,-0.0173
1.4000,-0.2234,-0.0585,0.0264,0.5024,-7.0622,-6.7856,0.0097,-0.0112,-0.0081
1.4100,-0.2195,-0.0625,-0.0054,0.5020,-7.0617,-6.7860,0.0128,0.0102,0.0029
1.4200,-0.2157,-0.0679,-0.0466,0.5006,-7.0611,-6.7868,0.0134,0.0245,0.0142
1.4300,-0.2171,-0.0781,-0.0865,0.4984,-7.0605,-6.7876,0.0131,0.0297,0.0252
1.4400,-0.1993,-0.0776,-0.1155,0.4962,-7.0598,-6.7884,0.0128,0.0364,0.0386
1.4500,-0.1768,-0.0676,-0.1182,0.4940,-7.0591,-6.7894,0.0112,0.0493,0.0515
1.4600,-0.1409,-0.0779,-0.1208,0.4917,-7.0583,-6.7904,0.0088,0.0621,0.0582
1.4700,-0.0987,-0.0895,-0.1306,0.4889,-7.0575,-6.7913,0.0051,0.0709,0.0612
1.4800,-0.0707,-0.0984,-0.1418,0.4861,-7.0570,-6.7921,-0.0007,0.0737,0.0612
1.4900,-0.0476,-0.1035,-0.1449,0.4834,-7.0567,-6.7926,-0.0065,0.0703,0.0585
1.5000,-0.0166,-0.0710,-0.1413,0.4811,-7.0568,-6.7926,-0.0117,0.0606,0.0515
1.5100,0.0162,-0.0191,-0.1392,0.4794,-7.0573,-6.7923,-0.0150,0.0438,0.0426
1.5200,0.0422,0.0330,-0.1194,0.4786,-7.0579,-6.7917,-0.0157,0.0239,0.0341
1.5300,0.0432,0.0839,-0.0878,0.4788,-7.0585,-6.7911,-0.0126,0.0083,0.0279
1.5400,0.0182,0.1058,-0.0762,0.4798,-7.0588,-6.7906,-0.0062,-0.0011,0.0234
1.5500,0.0001,0.0829,-0.0893,0.4812,-7.0587,-6.7907,0.0011,-0.0063,0.0185
1.5600,-0.0157,0.0558,-0.0982,0.4826,-7.0579,-6.7914,0.0088,-0.0158,0.0102
1.5700,-0.0495,0.0378,-0.1150,0.4840,-7.0567,-6.7926,0.0146,-0.0280,-0.0005
1.5800,-0.0785,-0.0058,-0.1337,0.4855,-7.0550,-6.7942,0.0186,-0.0347,-0.0084
1.5900,-0.0833,-0.0376,-0.1318,0.4867,-7.0531,-6.7961,0.0216,-0.0363,-0.0142
1.6000,-0.0769,-0.0588,-0.0903,0.4875,-7.0511,-6.7982,0.0213,-0.0369,-0.0179
1.6100,-0.0667,-0.1110,-0.0309,0.4881,-7.0492,-6.8001,0.0170,-0.0409,-0.0212
1.6200,-0.0734,-0.1506,0.0291,0.4888,-7.0478,-6.8014,0.0143,-0.0424,-0.0218
1.6300,-0.0729,-0.1612,0.1103,0.4895,-7.0469,-6.8023,0.0124,-0.0402,-0.0215
1.6400,-0.0663,-0.1797,0.1767,0.4901,-7.0463,-6.8029,0.0103,-0.0402,-0.0228
1.6500,-0.0870,-0.2157,0.1911,0.4904,-7.0462,-6.8030,0.0100,-0.0424,-0.0237
1.6600,-0.1099,-0.2415,0.1642,0.4905,-7.0467,-6.8024,0.0094,-0.0399,-0.0258
1.6700,-0.1236,-0.2582,0.1366,0.4899,-7.0480,-6.8012,0.0063,-0.0320,-0.0276
1.6800,-0.1183,-0.2645,0.1082,0.4882,-7.0500,-6.7991,0.0008,-0.0283,-0.0267
1.6900,-0.1173,-0.2436,0.0946,0.4861,-7.0530,-6.7962,-0.0047,-0.0286,-0.0228
1.7000,-0.1416,-0.2101,0.0969,0.4839,-7.0566,-6.7926,-0.0080,-0.0241,-0.0142
1.7100,-0.1586,-0.1726,0.0870,0.4819,-7.0606,-6.7887,-0.0092,-0.0112,-0.0014
1.7200,-0.1516,-0.1124,0.0627,0.4796,-7.0645,-6.7847,-0.0080,0.0089,0.0151
1.7300,-0.1299,-0.0311,0.0497,0.4771,-7.0680,-6.7813,-0.0031,0.0291,0.0353
1.7400,-0.1373,0.0276,0.0413,0.4749,-7.0704,-6.7789,0.0063,0.0456,0.0579
1.7500,-0.1717,0.0802,0.0163,0.4734,-7.0715,-6.7779,0.0225,0.0630,0.0845
1.7600,-0.2021,0.1299,0.0158,0.4726,-7.0710,-6.7785,0.0442,0.0828,0.1129
1.7700,-0.2102,0.1716,0.0556,0.4723,-7.0684,-6.7812,0.0677,0.1012,0.1397
1.7800,-0.2031,0.2294,0.1273,0.4725,-7.0639,-6.7858,0.0983,0.1079,0.1642
1.7900,-0.1996,0.2729,0.2001,0.4738,-7.0572,-6.7928,0.1264,0.0914,0.1782
1.8000,-0.2316,0.3000,0.2784,0.4770,-7.0484,-6.8017,0.1456,0.0575,0.1794
1.8100,-0.2895,0.3343,0.3865,0.4822,-7.0384,-6.8117,0.1646,0.0218,0.1742
1.8200,-0.3523,0.3616,0.4537,0.4888,-7.0274,-6.8226,0.1841,-0.0027,0.1663
1.8300,-0.4310,0.3724,0.4787,0.4956,-7.0154,-6.8344,0.2058,-0.0054,0.1562
1.8400,-0.5067,0.3259,0.5071,0.5007,-7.0024,-6.8473,0.2293,0.0157,0.1455
1.8500,-0.5419,0.2341,0.4997,0.5024,-6.9884,-6.8614,0.2501,0.0508,0.1397
1.8600,-0.5196,0.1678,0.4826,0.5004,-6.9736,-6.8766,0.2669,0.0847,0.1382
1.8700,-0.4645,0.1164,0.5022,0.4956,-6.9581,-6.8927,0.2821,0.1103,0.1385
1.8800,-0.3847,0.0956,0.5703,0.4889,-6.9421,-6.9093,0.2913,0.1265,0.1416
1.8900,-0.2322,0.1374,0.6845,0.4847,-6.9240,-6.9277,0.2913,0.1326,0.1571
1.9000,-0.0696,0.2000,0.7977,0.4849,-6.9041,-6.9475,0.2849,0.1281,0.2271
1.9100,-0.0308,0.2568,0.8912,0.4905,-6.8842,-6.9668,0.2785,0.1277,0.3404
1.9200,-0.1198,0.2810,0.9927,0.5041,-6.8641,-6.9857,0.2733,0.1473,0.4562
1.9300,-0.2682,0.2928,1.1106,0.5243,-6.8436,-7.0043,0.2620,0.1794,0.5603
1.9400,-0.3735,0.3560,1.2593,0.5495,-6.8230,-7.0224,0.2403,0.2075,0.6263
1.9500,-0.3952,0.4690,1.3924,0.5771,-6.8032,-7.0394,0.2125,0.2087,0.6486
1.9600,-0.4818,0.5186,1.4857,0.6063,-6.7846,-7.0549,0.1905,0.1733,0.6425
1.9700,-0.6879,0.4988,1.5404,0.6376,-6.7671,-7.0689,0.1762,0.1271,0.6119
1.9800,-0.8579,0.4979,1.5603,0.6700,-6.7506,-7.0816,0.1642,0.0996,0.5508
1.9900,-0.9120,0.5435,1.5816,0.7001,-6.7352,-7.0934,0.1551,0.0896,0.4662
2.0000,-0.8843,0.6932,1.5604,0.7251,-6.7209,-7.1045,0.1474,0.0832,0.3792
2.0100,-0.7830,0.9732,1.4452,0.7447,-6.7076,-7.1150,0.1438,0.1229,0.3288
2.0200,-0.5808,1.3436,1.2271,0.7579,-6.6949,-7.1255,0.1612,0.2737,0.3865
2.0300,-0.3943,1.6392,1.0664,0.7642,-6.6805,-7.1384,0.2061,0.5389,0.5728
2.0400,-0.3198,1.7231,1.1417,0.7639,-6.6614,-7.1563,0.2458,0.7905,0.7747
2.0500,-0.2847,1.7115,1.2611,0.7588,-6.6379,-7.1786,0.2434,0.8638,0.8621
2.0600,-0.2259,1.7307,1.2083,0.7538,-6.6139,-7.2013,0.2171,0.7795,0.8349
2.0700,-0.1877,1.7245,0.9604,0.7527,-6.5919,-7.2215,0.2067,0.6717,0.7760
2.0800,-0.1579,1.6210,0.5421,0.7552,-6.5711,-7.2402,0.2217,0.6204,0.7338
2.0900,-0.0665,1.4687,0.0633,0.7584,-6.5495,-7.2594,0.2608,0.6522,0.7216
2.1000,0.0667,1.3617,-0.3002,0.7581,-6.5251,-7.2814,0.3185,0.7597,0.7408
2.1100,0.2331,1.3388,-0.4892,0.7510,-6.4962,-7.3078,0.3799,0.8721,0.7533
2.1200,0.4804,1.4048,-0.5838,0.7359,-6.4628,-7.3389,0.4333,0.8812,0.7078
2.1300,0.7641,1.5594,-0.6740,0.7167,-6.4258,-7.3733,0.4892,0.5893,0.5240
2.1400,0.9440,1.9255,-0.9281,0.7068,-6.3859,-7.4088,0.5717,0.1665,0.3141
2.1500,1.1326,2.3536,-1.1647,0.7145,-6.3411,-7.4464,0.7189,-0.0289,0.2796
2.1600,1.3556,2.4745,-1.0437,0.7346,-6.2849,-7.4919,0.9052,-0.0769,0.3893
2.1700,1.2853,2.3676,-0.6900,0.7653,-6.2127,-7.5488,1.0485,-0.1997,0.5121
2.1800,0.8894,2.1043,-0.2260,0.8129,-6.1278,-7.6129,1.1355,-0.3985,0.5793
2.1900,0.3657,1.7205,0.2403,0.8793,-6.0349,-7.6794,1.1838,-0.5155,0.6125
2.2000,-0.1337,1.3607,0.4793,0.9561,-5.9373,-7.7460,1.2015,-0.4923,0.6257
2.2100,-0.4328,1.0321,0.5380,1.0313,-5.8374,-7.8119,1.2018,-0.3652,0.6101
2.2200,-0.3255,0.7708,0.5331,1.0953,-5.7366,-7.8776,1.1939,-0.2058,0.5692
2.2300,0.0664,0.5634,0.4622,1.1439,-5.6358,-7.9432,1.1798,-0.1019,0.5252
2.2400,0.2264,0.4129,0.3558,1.1814,-5.5356,-8.0080,1.1612,-0.0628,0.5169
2.2500,0.1283,0.3540,0.2560,1.2148,-5.4360,-8.0710,1.1548,-0.0024,0.5374
2.2600,0.1746,0.3327,0.0956,1.2440,-5.3357,-8.1332,1.1609,0.1051,0.5557
2.2700,0.3106,0.2405,-0.1231,1.2648,-5.2339,-8.1959,1.1774,0.2090,0.5762
2.2800,0.3673,0.0585,-0.2677,1.2775,-5.1297,-8.2595,1.2006,0.2850,0.5844
2.2900,0.4819,-0.2266,-0.3338,1.2839,-5.0230,-8.3239,1.2058,0.3287,0.5640
2.3000,0.6695,-0.5838,-0.3937,1.2853,-4.9160,-8.3873,1.1810,0.3012,0.5099
2.3100,0.8694,-0.8335,-0.4980,1.2866,-4.8123,-8.4471,1.1367,0.2249,0.4449
2.3200,1.0080,-0.8373,-0.6086,1.2916,-4.7139,-8.5016,1.0931,0.1387,0.3920
2.3300,0.9598,-0.6152,-0.6545,1.3015,-4.6200,-8.5515,1.0589,0.0108,0.3251
2.3400,0.7055,-0.3290,-0.6253,1.3188,-4.5290,-8.5975,1.0454,-0.1163,0.2466
2.3500,0.4060,-0.0355,-0.5345,1.3430,-4.4393,-8.6404,1.0607,-0.1746,0.1825
2.3600,0.2305,0.2171,-0.4493,1.3688,-4.3483,-8.6825,1.1041,-0.2226,0.1028
2.3700,0.1278,0.3731,-0.3985,1.3949,-4.2541,-8.7249,1.1557,-0.2968,0.0243
2.3800,0.0234,0.4328,-0.3762,1.4239,-4.1557,-8.7675,1.2036,-0.3842,-0.0273
2.3900,-0.0634,0.3758,-0.3963,1.4580,-4.0533,-8.8097,1.2519,-0.4413,-0.0435
2.4000,-0.1817,0.2916,-0.4164,1.4961,-3.9463,-8.8518,1.3002,-0.4153,0.0011
2.4100,-0.3348,0.1804,-0.3998,1.5331,-3.8339,-8.8948,1.3481,-0.3551,0.0588
2.4200,-0.4160,-0.0274,-0.3317,1.5664,-3.7160,-8.9389,1.3820,-0.3225,0.0805
2.4300,-0.4428,-0.2171,-0.2589,1.5968,-3.5945,-8.9831,1.3909,-0.3017,0.0771
2.4400,-0.4719,-0.5103,-0.3057,1.6247,-3.4724,-9.0260,1.3713,-0.2272,0.0857
2.4500,-0.4522,-0.8557,-0.4640,1.6457,-3.3521,-9.0676,1.3267,-0.1071,0.1006
2.4600,-0.3524,-1.0417,-0.7014,1.6561,-3.2355,-9.1080,1.2632,-0.0045,0.0948
2.4700,-0.1391,-1.0980,-1.0159,1.6571,-3.1242,-9.1466,1.1743,0.1198,0.0954
2.4800,0.1760,-1.0192,-1.3023,1.6471,-3.0198,-9.1834,1.0940,0.2065,0.0991
2.4900,0.5595,-0.8990,-1.4816,1.6300,-2.9210,-9.2184,1.0509,0.1879,0.0848
2.5000,0.9232,-0.7248,-1.5243,1.6147,-2.8246,-9.2511,1.0305,0.1305,0.0701
2.5100,1.1644,-0.5634,-1.3897,1.6044,-2.7286,-9.2816,1.0329,0.0447,0.0481
2.5200,1.2283,-0.4722,-1.1973,1.6016,-2.6319,-9.3100,1.0463,-0.0738,0.0084
2.5300,1.0153,-0.3376,-1.2361,1.6087,-2.5342,-9.3358,1.0637,-0.2510,-0.0560
2.5400,0.6053,-0.3081,-1.3981,1.6308,-2.4357,-9.3582,1.1074,-0.4578,-0.1199
2.5500,0.2038,-0.5319,-1.4092,1.6709,-2.3339,-9.3770,1.1734,-0.5891,-0.1180
2.5600,-0.1792,-0.7741,-1.3937,1.7235,-2.2258,-9.3937,1.2168,-0.6487,-0.0496
2.5700,-0.5934,-0.8984,-1.4290,1.7834,-2.1123,-9.4087,1.2235,-0.7128,0.0075
2.5800,-0.8953,-0.9563,-1.4826,1.8506,-1.9969,-9.4209,1.1981,-0.6270,0.0371
2.5900,-0.9073,-0.9850,-1.4939,1.9104,-1.8833,-9.4324,1.1496,-0.3674,0.0475
2.6000,-0.6052,-1.0273,-1.3362,1.9460,-1.7739,-9.4464,1.0821,-0.1316,0.0267
2.6100,-0.1153,-1.0284,-1.1753,1.9589,-1.6711,-9.4625,0.9981,0.0141,-0.0063
2.6200,0.3565,-1.0306,-1.0893,1.9574,-1.5767,-9.4790,0.9321,0.0505,-0.0435
2.6300,0.5978,-1.1242,-0.9424,1.9520,-1.4891,-9.4942,0.9016,0.0157,-0.0753
2.6400,0.6028,-1.2407,-0.6597,1.9494,-1.4049,-9.5076,0.8915,-0.0210,-0.0887
2.6500,0.5505,-1.2316,-0.4121,1.9502,-1.3218,-9.5193,0.8780,-0.0085,-0.0805
2.6600,0.5711,-1.0994,-0.4333,1.9500,-1.2398,-9.5304,0.8557,0.0441,-0.0670
2.6700,0.6563,-0.9988,-0.6198,1.9450,-1.1596,-9.5415,0.8295,0.1067,-0.0576
2.6800,0.8024,-0.9005,-0.9125,1.9342,-1.0819,-9.5529,0.7910,0.1641,-0.0322
2.6900,1.0470,-0.7442,-1.3333,1.9182,-1.0071,-9.5643,0.7415,0.1830,0.0127
2.7000,1.2907,-0.5329,-1.7020,1.9008,-0.9359,-9.5750,0.6798,0.1348,0.0896
2.7100,1.4417,-0.2705,-1.8657,1.8887,-0.8691,-9.5837,0.6230,0.0609,0.1678
2.7200,1.5945,0.0425,-1.8438,1.8842,-0.8062,-9.5900,0.5830,-0.0170,0.2008
2.7300,1.7170,0.3766,-1.7091,1.8874,-0.7465,-9.5942,0.5491,-0.1377,0.2060
2.7400,1.6209,0.6325,-1.5330,1.9021,-0.6899,-9.5956,0.5256,-0.3164,0.2017
2.7500,1.2325,0.8164,-1.3321,1.9338,-0.6356,-9.5930,0.5152,-0.5198,0.1926
2.7600,0.6955,0.9488,-1.1117,1.9848,-0.5825,-9.5859,0.5155,-0.6655,0.1797
2.7700,0.1866,1.0334,-0.8936,2.0496,-0.5295,-9.5753,0.5164,-0.6917,0.1721
2.7800,-0.2025,1.0906,-0.6899,2.1167,-0.4765,-9.5635,0.5057,-0.6169,0.1654
2.7900,-0.4035,1.1033,-0.5405,2.1764,-0.4246,-9.5526,0.4801,-0.5076,0.1547
2.8000,-0.5040,1.0505,-0.4707,2.2255,-0.3753,-9.5434,0.4468,-0.4126,0.1443
2.8100,-0.5977,0.9230,-0.4807,2.2652,-0.3293,-9.5357,0.4061,-0.3420,0.1315
2.8200,-0.6674,0.7622,-0.5087,2.2979,-0.2870,-9.5293,0.3683,-0.2876,0.1193
2.8300,-0.6835,0.6289,-0.5105,2.3247,-0.2482,-9.5238,0.3423,-0.2321,0.1119
2.8400,-0.6397,0.5398,-0.4968,2.3456,-0.2118,-9.5196,0.3234,-0.1716,0.0945
2.8500,-0.5358,0.4815,-0.4566,2.3602,-0.1775,-9.5167,0.3124,-0.1203,0.0545
2.8600,-0.3893,0.4526,-0.3853,2.3693,-0.1449,-9.5150,0.3109,-0.0763,-0.0002
2.8700,-0.2085,0.4370,-0.2855,2.3740,-0.1138,-9.5143,0.3170,-0.0372,-0.0524
2.8800,-0.0393,0.4315,-0.2303,2.3748,-0.0831,-9.5144,0.3246,-0.0204,-0.0906
2.8900,0.0427,0.4452,-0.2539,2.3742,-0.0526,-9.5147,0.3313,-0.0473,-0.1104
2.9000,-0.0061,0.4576,-0.3261,2.3764,-0.0218,-9.5143,0.3362,-0.1123,-0.1132
2.9100,-0.1464,0.4707,-0.4145,2.3849,0.0093,-9.5122,0.3341,-0.1740,-0.1028
2.9200,-0.2589,0.4958,-0.5020,2.3993,0.0405,-9.5085,0.3231,-0.2015,-0.0878
2.9300,-0.3021,0.5180,-0.6034,2.4162,0.0710,-9.5040,0.3029,-0.1887,-0.0848
2.9400,-0.2926,0.5313,-0.7034,2.4318,0.0996,-9.4998,0.2821,-0.1563,-0.0988
2.9500,-0.2428,0.5194,-0.7584,2.4443,0.1259,-9.4963,0.2690,-0.1343,-0.1180
2.9600,-0.1707,0.4590,-0.7638,2.4548,0.1503,-9.4932,0.2614,-0.1303,-0.1348
2.9700,-0.1068,0.3688,-0.7286,2.4651,0.1735,-9.4902,0.2595,-0.1423,-0.1416
2.9800,-0.0646,0.2348,-0.6351,2.4767,0.1961,-9.4867,0.2620,-0.1642,-0.1312
2.9900,-0.0341,0.0731,-0.5195,2.4906,0.2190,-9.4826,0.2660,-0.1887,-0.1089
3.0000,-0.0383,-0.0379,-0.4094,2.5067,0.2426,-9.4777,0.2666,-0.2110,-0.0814
3.0100,-0.0517,-0.1061,-0.2832,2.5250,0.2665,-9.4723,0.2620,-0.2305,-0.0551
3.0200,-0.0454,-0.1395,-0.1708,2.5450,0.2904,-9.4662,0.2498,-0.2473,-0.0368
3.0300,-0.0239,-0.1336,-0.0851,2.5665,0.3131,-9.4596,0.2311,-0.2586,-0.0243
3.0400,0.0061,-0.0911,-0.0190,2.5892,0.3341,-9.4527,0.2052,-0.2580,-0.0105
3.0500,0.0218,-0.0380,0.0243,2.6118,0.3529,-9.4458,0.1792,-0.2476,0.0029
3.0600,0.0431,-0.0067,0.0416,2.6336,0.3694,-9.4392,0.1612,-0.2388,0.0118
3.0700,0.0591,0.0154,0.0231,2.6547,0.3844,-9.4327,0.1468,-0.2360,0.0170
3.0800,0.0692,0.0387,-0.0265,2.6757,0.3982,-9.4261,0.1404,-0.2342,0.0212
3.0900,0.0644,0.0548,-0.0756,2.6949,0.4109,-9.4201,0.1438,-0.2345,0.0243
3.1000,0.0478,0.0351,-0.0860,2.7127,0.4234,-9.4145,0.1526,-0.2372,0.0249
3.1100,0.0497,0.0181,-0.0896,2.7312,0.4368,-9.4085,0.1612,-0.2366,0.0212
3.1200,0.0944,0.0255,-0.0921,2.7499,0.4510,-9.4024,0.1667,-0.2324,0.0102
3.1300,0.1258,0.0230,-0.0876,2.7688,0.4654,-9.3961,0.1685,-0.2287,-0.0057
3.1400,0.1351,0.0385,-0.0570,2.7882,0.4799,-9.3897,0.1704,-0.2226,-0.0197
3.1500,0.1408,0.0755,-0.0180,2.8076,0.4943,-9.3831,0.1734,-0.2143,-0.0267
3.1600,0.0965,0.1038,-0.0186,2.8268,0.5091,-9.3766,0.1734,-0.2153,-0.0270
3.1700,0.0496,0.1212,-0.0636,2.8462,0.5241,-9.3699,0.1697,-0.2189,-0.0237
3.1800,0.0263,0.1243,-0.1482,2.8659,0.5389,-9.3630,0.1636,-0.2113,-0.0200
3.1900,0.0195,0.1266,-0.2829,2.8846,0.5533,-9.3564,0.1533,-0.1917,-0.0194
3.2000,0.0353,0.1107,-0.4481,2.9012,0.5669,-9.3505,0.1410,-0.1624,-0.0224
3.2100,0.0721,0.0660,-0.5883,2.9147,0.5792,-9.3456,0.1325,-0.1297,-0.0325
3.2200,0.0893,0.0345,-0.6545,2.9250,0.5904,-9.3416,0.1273,-0.1032,-0.0536
3.2300,0.1231,0.0210,-0.6289,2.9331,0.6003,-9.3385,0.1242,-0.0845,-0.0838
3.2400,0.1737,0.0088,-0.5358,2.9399,0.6089,-9.3357,0.1221,-0.0690,-0.1147
3.2500,0.1750,0.0025,-0.3670,2.9459,0.6164,-9.3334,0.1203,-0.0534,-0.1367
3.2600,0.1521,0.0197,-0.1751,2.9508,0.6232,-9.3314,0.1200,-0.0381,-0.1480
3.2700,0.1313,0.0419,-0.0200,2.9548,0.6296,-9.3297,0.1230,-0.0241,-0.1498
3.2800,0.1056,0.0794,0.1079,2.9578,0.6364,-9.3283,0.1261,-0.0170,-0.1483
3.2900,0.0864,0.1260,0.1988,2.9602,0.6437,-9.3270,0.1230,-0.0140,-0.1468
3.3000,0.0757,0.1668,0.2191,2.9625,0.6508,-9.3258,0.1145,-0.0100,-0.1437
3.3100,0.0797,0.1986,0.1977,2.9645,0.6573,-9.3247,0.1035,-0.0079,-0.1394
3.3200,0.1064,0.1952,0.1655,2.9665,0.6632,-9.3236,0.0894,-0.0069,-0.1321
3.3300,0.1390,0.1996,0.1142,2.9687,0.6683,-9.3226,0.0741,-0.0088,-0.1217
3.3400,0.1663,0.2095,0.0400,2.9713,0.6727,-9.3214,0.0619,-0.0152,-0.1086
3.3500,0.1940,0.1945,-0.0177,2.9748,0.6769,-9.3200,0.0518,-0.0253,-0.0930
3.3600,0.2012,0.1844,-0.0530,2.9795,0.6811,-9.3182,0.0399,-0.0363,-0.0719
3.3700,0.1942,0.1864,-0.0683,2.9853,0.6851,-9.3160,0.0277,-0.0430,-0.0490
3.3800,0.2056,0.1826,-0.0707,2.9918,0.6889,-9.3137,0.0161,-0.0470,-0.0301
3.3900,0.2214,0.1503,-0.0600,2.9988,0.6924,-9.3112,0.0024,-0.0506,-0.0163
3.4000,0.2523,0.1093,-0.0351,3.0062,0.6952,-9.3086,-0.0089,-0.0454,-0.0087
3.4100,0.2978,0.0703,-0.0280,3.0134,0.6971,-9.3061,-0.0163,-0.0299,-0.0020
3.4200,0.3466,0.0032,-0.0373,3.0196,0.6983,-9.3040,-0.0215,-0.0112,0.0075
3.4300,0.3712,-0.0586,-0.0666,3.0249,0.6990,-9.3022,-0.0239,-0.0008,0.0157
3.4400,0.3458,-0.1078,-0.1006,3.0301,0.6991,-9.3005,-0.0242,-0.0039,0.0176
3.4500,0.2921,-0.1454,-0.1240,3.0359,0.6985,-9.2987,-0.0236,-0.0097,0.0154
3.4600,0.2463,-0.1630,-0.1355,3.0421,0.6969,-9.2968,-0.0233,-0.0082,0.0121
3.4700,0.2215,-0.1726,-0.1240,3.0478,0.6945,-9.2951,-0.0230,0.0013,0.0108
3.4800,0.1990,-0.1696,-0.1145,3.0523,0.6915,-9.2938,-0.0230,0.0126,0.0121
3.4900,0.1658,-0.1674,-0.1332,3.0556,0.6881,-9.2930,-0.0212,0.0199,0.0136
3.5000,0.1242,-0.1363,-0.1576,3.0577,0.6846,-9.2926,-0.0166,0.0166,0.0157
3.5100,0.0842,-0.0877,-0.1664,3.0594,0.6815,-9.2922,-0.0114,0.0077,0.0139
3.5200,0.0572,-0.0697,-0.1644,3.0612,0.6790,-9.2918,-0.0089,0.0037,0.0108
3.5300,0.0366,-0.0425,-0.1599,3.0627,0.6770,-9.2915,-0.0099,0.0059,0.0130
3.5400,0.0323,-0.0144,-0.1433,3.0634,0.6752,-9.2914,-0.0123,0.0080,0.0182
3.5500,0.0215,0.0182,-0.1216,3.0635,0.6737,-9.2915,-0.0141,0.0056,0.0240
3.5600,-0.0156,0.0457,-0.1215,3.0634,0.6726,-9.2916,-0.0160,0.0013,0.0298
3.5700,-0.0395,0.0430,-0.1322,3.0634,0.6717,-9.2916,-0.0193,-0.0018,0.0353
3.5800,-0.0419,0.0438,-0.1238,3.0634,0.6709,-9.2917,-0.0224,-0.0011,0.0383
3.5900,-0.0226,0.0459,-0.1117,3.0633,0.6699,-9.2918,-0.0263,0.0025,0.0386
3.6000,0.0162,0.0304,-0.1079,3.0628,0.6687,-9.2921,-0.0303,0.0065,0.0353
3.6100,0.0493,0.0094,-0.1063,3.0619,0.6669,-9.2925,-0.0318,0.0095,0.0267
3.6200,0.0659,-0.0064,-0.1357,3.0609,0.6648,-9.2930,-0.0300,0.0099,0.0160
3.6300,0.0694,-0.0005,-0.1891,3.0599,0.6625,-9.2935,-0.0263,0.0053,0.0041
3.6400,0.0435,0.0054,-0.2318,3.0594,0.6602,-9.2938,-0.0230,-0.0021,-0.0084
3.6500,-0.0058,0.0030,-0.2605,3.0596,0.6578,-9.2939,-0.0199,-0.0069,-0.0206
3.6600,-0.0568,0.0247,-0.2510,3.0603,0.6553,-9.2938,-0.0184,-0.0042,-0.0316
3.6700,-0.0908,0.0500,-0.2270,3.0608,0.6527,-9.2939,-0.0172,0.0053,-0.0383
3.6800,-0.1117,0.0671,-0.1919,3.0601,0.6500,-9.2943,-0.0135,0.0157,-0.0408
3.6900,-0.1230,0.0705,-0.1528,3.0583,0.6477,-9.2950,-0.0086,0.0227,-0.0396
3.7000,-0.1537,0.0566,-0.1290,3.0555,0.6461,-9.2961,-0.0050,0.0318,-0.0286
