time,seconds_elapsed,z,y,x
1759486400404763400,0.021763427734375,0.005391037091612816,-0.35214605927467346,-0.26054316759109497
1759486400414820400,0.0318203125,-0.011781292036175728,-0.2166404277086258,-0.1907779425382614
1759486400424877600,0.041877685546875,-0.01537549402564764,-0.04827725142240524,-0.10057028383016586
1759486400434934500,0.0519345703125,-0.005537244491279125,0.12430837005376816,-0.0033457293175160885
1759486400444991500,0.061991455078125,0.009017995558679104,0.28571856021881104,0.08121496438980103
1759486400455048400,0.07204833984375,0.022012358531355858,0.41015422344207764,0.14734391868114471
1759486400465105400,0.08210546875,0.020141754299402237,0.4751337766647339,0.19007566571235657
1759486400475162600,0.09216259765625,0.010521883144974709,0.49546754360198975,0.20189131796360016
1759486400485218600,0.102218505859375,-0.006881874520331621,0.4808014929294586,0.18489661812782288
1759486400495275500,0.112275634765625,-0.02449868433177471,0.4239440858364105,0.14613111317157745
1759486400505332500,0.12233251953125,-0.03123248741030693,0.3162919282913208,0.09506978839635849
1759486400515389400,0.132389404296875,-0.02195989340543747,0.1952725499868393,0.031063644215464592
1759486400525446400,0.1424462890625,-0.009697901085019112,0.09873349964618683,-0.031070834025740623
1759486400535503600,0.152503662109375,-0.0024232103023678064,0.03766908124089241,-0.08372551947832108
1759486400545560600,0.162560546875,0.0062280683778226376,0.004293548408895731,-0.11729519814252853
1759486400555617500,0.172617431640625,0.010118680074810982,-0.007194529753178358,-0.13031166791915894
1759486400565674500,0.182674560546875,0.0028703550342470407,0.0000125168571685208,-0.13021978735923767
1759486400575731500,0.1927314453125,0.0007531419396400452,0.032407473772764206,-0.11583045870065689
1759486400585788400,0.202788330078125,0.0006543386843986809,0.0820501297712326,-0.09591614454984665
1759486400595845400,0.212845458984375,0.0019563580863177776,0.13664093613624573,-0.06773590296506882
1759486400605902300,0.22290234375,0.007949003018438816,0.1979205310344696,-0.03574974089860916
1759486400615959600,0.23295947265625,0.03199734911322594,0.2865915596485138,-0.01284522470086813
1759486400626016500,0.2430166015625,0.04779655113816261,0.3792913854122162,-0.0035428032279014587
1759486400636073500,0.253073486328125,0.055264588445425034,0.45855265855789185,-0.007506918627768755
1759486400646130700,0.263130615234375,0.048520930111408234,0.5178964138031006,-0.017230119556188583
1759486400656187600,0.273187744140625,0.051350273191928864,0.558072566986084,-0.0314500667154789
1759486400666244600,0.28324462890625,0.05301501601934433,0.5899966955184937,-0.05320729315280914
1759486400676301600,0.293301513671875,0.053893592208623886,0.6020166277885437,-0.06845176219940186
1759486400686358500,0.303358642578125,0.05193670094013214,0.592731237411499,-0.08797859400510788
1759486400696414500,0.31341455078125,0.05278225615620613,0.5680086016654968,-0.12171497941017151
1759486400706471000,0.323470947265625,0.05662652850151062,0.5314550995826721,-0.16101285815238953
1759486400716527900,0.33352783203125,0.058935221284627914,0.5006244778633118,-0.19245412945747375
1759486400726584800,0.343584716796875,0.044679854065179825,0.46163925528526306,-0.21344277262687683
1759486400736641800,0.353641845703125,0.031743016093969345,0.4076519310474396,-0.21572190523147583
1759486400746699000,0.363698974609375,0.027876904234290123,0.3607078492641449,-0.22007350623607635
1759486400756756000,0.373755859375,0.017829863354563713,0.2894435226917267,-0.2155410796403885
1759486400766813000,0.38381298828125,0.029030852019786835,0.2610792815685272,-0.20528018474578857
1759486400776870000,0.393869873046875,0.056408148258924484,0.22622062265872955,-0.18785777688026428
1759486400786927000,0.403927001953125,0.06261411309242249,0.2071976661682129,-0.16111351549625397
1759486400796984000,0.413984130859375,0.0707966759800911,0.17442587018013,-0.13822658360004425
1759486400807041000,0.424041015625,0.07780478149652481,0.13071300089359283,-0.12635314464569092
1759486400817098000,0.434097900390625,0.10725348442792892,0.16224749386310577,-0.14643870294094086
1759486400827155000,0.444155029296875,0.14576305449008942,0.20034481585025787,-0.18756936490535736
1759486400837212200,0.454212158203125,0.20837317407131195,0.19997276365756989,-0.22252069413661957
1759486400847269000,0.46426904296875,0.25212252140045166,0.16310955584049225,-0.26345160603523254
1759486400857326000,0.474326171875,0.2591673731803894,0.10109732300043106,-0.32085683941841125
1759486400867383000,0.484383056640625,0.24318788945674896,0.002228799508884549,-0.3801156282424927
1759486400877440000,0.49443994140625,0.2302931249141693,-0.10936004668474197,-0.43042275309562683
1759486400887497000,0.5044970703125,0.2239350974559784,-0.19758178293704987,-0.4768693447113037
1759486400897554000,0.514553955078125,0.22546294331550598,-0.23355762660503387,-0.5224048495292664
1759486400907611000,0.52461083984375,0.2274235635995865,-0.22185969352722168,-0.5570507645606995
1759486400917668000,0.534668212890625,0.21574799716472626,-0.16745291650295258,-0.5695894360542297
1759486400927725000,0.54472509765625,0.19718071818351746,-0.0758737251162529,-0.5554890632629395
1759486400937782000,0.554781982421875,0.17175151407718658,0.014670289121568203,-0.5072115659713745
1759486400947839000,0.5648388671875,0.1490323543548584,0.0875098779797554,-0.4246809780597687
1759486400957896000,0.57489599609375,0.12106384336948395,0.11852611601352692,-0.31121301651000977
1759486400967953000,0.584952880859375,0.10465291142463684,0.15276478230953217,-0.19105863571166992
1759486400978009900,0.595009765625,0.08752239495515823,0.20635849237442017,-0.0842411145567894
1759486400988066800,0.60506689453125,0.05747927352786064,0.21781913936138153,0.00021678130724467337
1759486400998123800,0.615123779296875,0.03081170842051506,0.23136238753795624,0.04900083318352699
1759486401008181000,0.625180908203125,0.00202320353128016,0.20122897624969482,0.07444946467876434
1759486401018238000,0.635238037109375,-0.004580636974424124,0.14720942080020905,0.07126698642969131
1759486401028295200,0.645295166015625,-0.007522897329181433,0.060021791607141495,0.05411303788423538
1759486401038352100,0.65535205078125,-0.01209794171154499,-0.03293691202998161,0.028423652052879333
1759486401048409000,0.6654091796875,0.00378994457423687,-0.09163910895586014,-0.010202836245298386
1759486401058466000,0.675466064453125,0.03315022960305214,-0.10348724573850632,-0.053951915353536606
1759486401068523000,0.68552294921875,0.060799434781074524,-0.0741538554430008,-0.0970810130238533
1759486401078580000,0.695580078125,0.07512351125478745,-0.017735853791236877,-0.13172447681427002
1759486401088637000,0.705636962890625,0.07201240956783295,0.05919461324810982,-0.15030747652053833
1759486401098694100,0.715694091796875,0.060633786022663116,0.05925959348678589,-0.12912122905254364
1759486401108751000,0.725751220703125,0.07192905247211456,0.04138738662004471,-0.08687631040811539
1759486401118808000,0.73580810546875,0.0848429873585701,0.006958839949220419,-0.03557131066918373
1759486401128865000,0.745864990234375,0.1044318675994873,-0.013904630206525326,0.01992976665496826
1759486401138922000,0.755921875,0.12068913131952286,-0.00905368197709322,0.06402212381362915
1759486401148979000,0.76597900390625,0.11895701289176941,0.005365204066038132,0.09506978839635849
1759486401159036000,0.776035888671875,0.11437930911779404,0.017728397622704506,0.11535322666168213
1759486401169092900,0.7860927734375,0.08854185044765472,-0.021318338811397552,0.13987986743450165
1759486401179150000,0.796150146484375,0.07170294970273972,-0.087493896484375,0.16447123885154724
1759486401189207000,0.80620703125,0.06366020441055298,-0.1743297278881073,0.18552325665950775
1759486401199264000,0.816263916015625,0.06100023537874222,-0.27315109968185425,0.20033469796180725
1759486401209321000,0.826321044921875,0.08629094809293747,-0.3465270698070526,0.19950005412101746
1759486401219378000,0.8363779296875,0.12146304547786713,-0.36348313093185425,0.17814816534519196
1759486401229435000,0.846434814453125,0.12345216423273087,-0.3338850438594818,0.13193832337856293
1759486401239491800,0.856491943359375,0.08301286399364471,-0.29406705498695374,0.08530957251787186
1759486401249548800,0.866548828125,0.03249109908938408,-0.3008202910423279,0.05800764262676239
1759486401259605800,0.876605712890625,0.005630987696349621,-0.3548845946788788,0.061043113470077515
1759486401269663000,0.8866630859375,0.005346828605979681,-0.44698283076286316,0.08925637602806091
1759486401279720200,0.89672021484375,0.032886043190956116,-0.5412677526473999,0.11510554701089859
1759486401289777200,0.906777099609375,0.059899020940065384,-0.5927054286003113,0.1262359619140625
1759486401299834000,0.916834228515625,0.08378784358501434,-0.5777009129524231,0.11433056741952896
1759486401309891800,0.926891845703125,0.09255550056695938,-0.5189694166183472,0.0847519040107727
1759486401319948800,0.93694873046875,0.08654847741127014,-0.4550822973251343,0.056196428835392
1759486401330005800,0.947005859375,0.086290143430233,-0.39754363894462585,0.03719663619995117
1759486401340063000,0.95706298828125,0.067573182284832,-0.3796122968196869,0.04074343666434288
1759486401350120200,0.9671201171875,0.043472643941640854,-0.41268476843833923,0.05969448760151863
1759486401360177200,0.97717724609375,0.03843394294381142,-0.4671781063079834,0.08598894625902176
1759486401370234000,0.987234130859375,0.0536951869726181,-0.504426121711731,0.10048346221446991
1759486401380291000,0.997291015625,0.09243006259202957,-0.4740639626979828,0.08591011166572571
1759486401390348000,1.00734814453125,0.12803280353546143,-0.37400075793266296,0.049969159066677094
1759486401400405000,1.017405029296875,0.12168408930301666,-0.26230165362358093,0.015193067491054535
1759486401410462000,1.0274619140625,0.07945754379034042,-0.19328716397285461,0.0004218447138555348
1759486401420519000,1.037518798828125,0.04904370754957199,-0.1788824051618576,0.015895076096057892
1759486401430576000,1.047576171875,0.03363785520195961,-0.20537179708480835,0.047684431076049805
1759486401440633000,1.057633056640625,0.01593875326216221,-0.24910809099674225,0.08804143965244293
1759486401450690000,1.06768994140625,0.01323750801384449,-0.24736398458480835,0.11763368546962738
1759486401460747000,1.0777470703125,0.027940021827816963,-0.1712159514427185,0.1256447434425354
1759486401470804000,1.087803955078125,0.03449779003858566,-0.06506768614053726,0.11621369421482086
1759486401480861000,1.09786083984375,0.030915837734937668,0.017489511519670486,0.11093530803918839
1759486401490918000,1.10791796875,0.025436384603381157,0.04561781883239746,0.11362483352422714
1759486401500976000,1.11797607421875,0.03266420215368271,0.02882871776819229,0.12386788427829742
1759486401511033000,1.128033203125,0.045688923448324203,-0.0008096009842120111,0.13734427094459534
1759486401521090000,1.138090087890625,0.04796512797474861,-0.029980536550283432,0.15441301465034485
1759486401531147000,1.14814697265625,0.03816123306751251,-0.05248238146305084,0.17218028008937836
1759486401541204000,1.158203857421875,0.015247396193444729,-0.05811816453933716,0.19141364097595215
1759486401551261000,1.168260986328125,-0.015555789694190025,-0.043831635266542435,0.20851458609104156
1759486401561318000,1.17831787109375,-0.046066559851169586,-0.02261955849826336,0.22584804892539978
1759486401571374800,1.188374755859375,-0.06769968569278717,-0.023621972650289536,0.25185301899909973
1759486401581432000,1.19843212890625,-0.0727921798825264,-0.048687644302845,0.2918510138988495
1759486401591489000,1.208489013671875,-0.05314284563064575,-0.09379865974187851,0.3387588858604431
1759486401601546000,1.2185458984375,-0.018255703151226044,-0.1397954523563385,0.3820996880531311
1759486401611603000,1.22860302734375,0.027781030163168907,-0.17495796084403992,0.4009658098220825
1759486401621660000,1.238659912109375,0.07205715030431747,-0.20115095376968384,0.3889978229999542
1759486401631716900,1.248716796875,0.122022844851017,-0.22321976721286774,0.3455246388912201
1759486401641774800,1.25877490234375,0.15496188402175903,-0.2273751050233841,0.29493311047554016
1759486401651832000,1.26883203125,0.17947441339492798,-0.16303499042987823,0.252207487821579
1759486401661889000,1.278888916015625,0.1735912263393402,-0.0754215195775032,0.230017751455307
1759486401671946000,1.288946044921875,0.15077540278434753,-0.03790104389190674,0.24695013463497162
1759486401682003000,1.2990029296875,0.1284051090478897,-0.03099546581506729,0.2951067388057709
1759486401692060000,1.309059814453125,0.11706936359405518,0.03791356086730957,0.35977840423583984
1759486401702116900,1.319116943359375,0.11824701726436615,0.1618695855140686,0.42460107803344727
1759486401712174800,1.3291748046875,0.15231949090957642,0.3063705861568451,0.4875582158565521
1759486401722231800,1.339231689453125,0.20904536545276642,0.4336734116077423,0.5417964458465576
1759486401732288800,1.349288818359375,0.25753912329673767,0.5254528522491455,0.6130514144897461
1759486401742345700,1.359345703125,0.2809019684791565,0.5992106795310974,0.7210652232170105
1759486401752404000,1.369404052734375,0.30166956782341003,0.6468866467475891,0.8455363512039185
1759486401762461000,1.3794609375,0.32513707876205444,0.6253789067268372,0.9300698637962341
1759486401772518000,1.389517822265625,0.3857194781303406,0.4994034171104431,0.9629005193710327
1759486401782574800,1.399574951171875,0.45459839701652527,0.3242577016353607,0.9522113800048828
1759486401792631800,1.4096318359375,0.48103800415992737,0.16762948036193848,0.9089621901512146
1759486401802688800,1.419688720703125,0.46363797783851624,0.08933281153440475,0.820854127407074
1759486401812745700,1.429745849609375,0.41680362820625305,0.15496134757995605,0.7221680283546448
1759486401822802700,1.439802734375,0.36720010638237,0.31453344225883484,0.6415413618087769
1759486401832859600,1.449859619140625,0.3303518295288086,0.49244457483291626,0.6057589054107666
1759486401842918000,1.45991796875,0.3383559584617615,0.6221293210983276,0.6114301085472107
1759486401852974800,1.469974853515625,0.3680965304374695,0.6893003582954407,0.6521708369255066
1759486401863031800,1.48003173828125,0.3766591250896454,0.7024678587913513,0.7326643466949463
1759486401873088800,1.4900888671875,0.37223881483078003,0.7218343615531921,0.8164809942245483
1759486401883145700,1.500145751953125,0.36220693588256836,0.7898666858673096,0.8644484877586365
1759486401893202700,1.51020263671875,0.3728894293308258,0.9639889597892761,0.8442505598068237
1759486401903259600,1.520259765625,0.40185075998306274,1.1523388624191284,0.7931210398674011
1759486401913316900,1.53031689453125,0.4390157163143158,1.2155628204345703,0.7776909470558167
1759486401923373800,1.540373779296875,0.481778621673584,1.0497297048568726,0.7997919917106628
1759486401933431800,1.550431884765625,0.5461059212684631,0.7532719373703003,0.8397037386894226
1759486401943488800,1.56048876953125,0.592201292514801,0.4708902835845947,0.8801742196083069
1759486401953545700,1.570545654296875,0.6029511094093323,0.31731724739074707,0.8848142027854919
1759486401963602700,1.580602783203125,0.5761932730674744,0.29867032170295715,0.8506098985671997
1759486401973659600,1.59065966796875,0.5427029728889465,0.33883291482925415,0.7830066680908203
1759486401983716900,1.600716796875,0.49932166934013367,0.36542484164237976,0.7311980128288269
1759486401993773800,1.61077392578125,0.48714277148246765,0.29635655879974365,0.7150046825408936
1759486402003830800,1.620830810546875,0.48353657126426697,0.24934671819210052,0.7060295939445496
1759486402013888800,1.630888671875,0.4515022039413452,0.2802359163761139,0.6738252639770508
1759486402023945700,1.64094580078125,0.42961981892585754,0.3274476230144501,0.6392593383789062
1759486402034002700,1.651002685546875,0.4238346219062805,0.3920553922653198,0.5911362767219543
1759486402044059600,1.6610595703125,0.4171213209629059,0.5015504360198975,0.5439178943634033
1759486402054116900,1.671116943359375,0.404702752828598,0.6024357676506042,0.5281873941421509
1759486402064173800,1.681173828125,0.40954703092575073,0.6641374826431274,0.536926805973053
1759486402074230800,1.691230712890625,0.4300011694431305,0.6258665323257446,0.5539537668228149
1759486402084288800,1.701288818359375,0.44134703278541565,0.49459242820739746,0.5864365696907043
1759486402094345700,1.711345703125,0.4517512023448944,0.3918338119983673,0.607599675655365
1759486402104402700,1.721402587890625,0.4605034291744232,0.34170007705688477,0.6173692345619202
1759486402114459600,1.731459716796875,0.4892498552799225,0.3285640478134155,0.5846317410469055
1759486402124516900,1.741516845703125,0.512046217918396,0.3788301348686218,0.5225100517272949
1759486402134573800,1.75157373046875,0.47409912943840027,0.5054919123649597,0.518096387386322
1759486402144630800,1.761630859375,0.424318790435791,0.6136255860328674,0.5563287734985352
1759486402154688800,1.771688720703125,0.38202565908432007,0.6285190582275391,0.6034270524978638
1759486402164745700,1.781745849609375,0.3781544864177704,0.565093994140625,0.6142122745513916
1759486402174802700,1.791802734375,0.3329033851623535,0.3733789026737213,0.6242952942848206
1759486402184859600,1.801859619140625,0.28694334626197815,0.1804371476173401,0.6077232360839844
1759486402194916900,1.811916748046875,0.2621314823627472,0.14460858702659607,0.5585317015647888
1759486402204973800,1.821973876953125,0.22511248290538788,0.21415996551513672,0.5266454219818115
1759486402215030800,1.83203076171875,0.22727203369140625,0.28697532415390015,0.5684682130813599
1759486402225088800,1.8420888671875,0.25916099548339844,0.3800109922885895,0.6258449554443359
1759486402235145700,1.852145751953125,0.2841677963733673,0.4977780878543854,0.6496986746788025
1759486402245202700,1.86220263671875,0.3078864514827728,0.5047979354858398,0.6395978331565857
1759486402255259600,1.872259765625,0.3385186791419983,0.391970694065094,0.6107594966888428
1759486402265316900,1.88231689453125,0.3417765200138092,0.26306599378585815,0.5663480758666992
1759486402275373800,1.892373779296875,0.33836686611175537,0.2145828753709793,0.518689751625061
1759486402285431800,1.902431884765625,0.34278663992881775,0.22733116149902344,0.4982958137989044
1759486402295488800,1.91248876953125,0.3521479368209839,0.2632928788661957,0.5216258764266968
1759486402305545700,1.922545654296875,0.3668839931488037,0.3199670910835266,0.5827382802963257
1759486402315602700,1.932602783203125,0.4047197997570038,0.3664075434207916,0.6192065477371216
1759486402325659600,1.94265966796875,0.4144693613052368,0.3656597435474396,0.6451702117919922
1759486402335718000,1.9527177734375,0.40369659662246704,0.3125930726528168,0.6272114515304565
1759486402345774800,1.96277490234375,0.4020046889781952,0.24974991381168365,0.6054720878601074
1759486402355831800,1.972831787109375,0.3800000548362732,0.2556498944759369,0.586311936378479
1759486402365888800,1.982888671875,0.3499838411808014,0.28391745686531067,0.5823992490768433
1759486402375945700,1.99294580078125,0.32573896646499634,0.25901612639427185,0.6381391882896423
1759486402386002700,2.003002685546875,0.3328075110912323,0.2465919405221939,0.686123251914978
1759486402396061000,2.01306103515625,0.35086721181869507,0.2692487835884094,0.6993911266326904
1759486402406118000,2.023117919921875,0.3706406354904175,0.2800534963607788,0.6975154280662537
1759486402416174800,2.0331748046875,0.375673770904541,0.2540588974952698,0.7045400738716125
1759486402426231800,2.043231689453125,0.3774458169937134,0.24950863420963287,0.7052870988845825
1759486402436288800,2.053288818359375,0.36881932616233826,0.29733848571777344,0.6569933295249939
1759486402446345700,2.063345703125,0.36312335729599,0.3616551458835602,0.6197031736373901
1759486402456404000,2.073404052734375,0.36462298035621643,0.388493150472641,0.6165140867233276
1759486402466461000,2.0834609375,0.3927675187587738,0.42499175667762756,0.6376765966415405
1759486402476518000,2.093517822265625,0.4096066951751709,0.3790128231048584,0.6985641717910767
1759486402486574800,2.103574951171875,0.46982261538505554,0.3533324897289276,0.7306451797485352
1759486402496631800,2.1136318359375,0.49479854106903076,0.3153377175331116,0.7428650856018066
1759486402506689800,2.123689697265625,0.5141408443450928,0.3125685453414917,0.7403920888900757
1759486402516746800,2.133746826171875,0.5152106285095215,0.37035515904426575,0.7079574465751648
1759486402526804000,2.143803955078125,0.5220394730567932,0.4007287621498108,0.6760104298591614
1759486402536861000,2.15386083984375,0.5099338293075562,0.42150595784187317,0.6701056361198425
1759486402546918000,2.16391796875,0.51689612865448,0.40142306685447693,0.6980720162391663
1759486402556975900,2.173975830078125,0.5014551281929016,0.3880302906036377,0.7111856937408447
1759486402567032800,2.18403271484375,0.4715297222137451,0.48195067048072815,0.6724135279655457
1759486402577089800,2.19408984375,0.43464601039886475,0.5786311030387878,0.6501995921134949
1759486402587146800,2.204146728515625,0.3917858898639679,0.6636456251144409,0.6301766037940979
1759486402597204000,2.214203857421875,0.40238285064697266,0.6248180866241455,0.6428857445716858
1759486402607262000,2.224261962890625,0.4174422323703766,0.41441211104393005,0.7332976460456848
1759486402617319000,2.23431884765625,0.3986440598964691,0.33038589358329773,0.7430248856544495
1759486402627375900,2.2443759765625,0.34690603613853455,0.4504220187664032,0.6404630541801453
1759486402637432800,2.254432861328125,0.3854198753833771,0.34288784861564636,0.6526979207992554
1759486402647489800,2.26448974609375,0.35936084389686584,0.22771917283535004,0.657440721988678
1759486402657548000,2.274548095703125,0.2993052303791046,0.1906362622976303,0.5990123152732849
1759486402667605000,2.28460498046875,0.26988768577575684,0.21801835298538208,0.5192745923995972
1759486402677662000,2.294661865234375,0.28988534212112427,-0.10074072331190109,0.6346589922904968
1759486402687719000,2.304718994140625,0.25890132784843445,-0.3406310975551605,0.710565984249115
1759486402697775900,2.31477587890625,0.1979711353778839,-0.38742122054100037,0.712283730506897
1759486402707833300,2.324833251953125,0.1316128820180893,-0.2504021227359772,0.6527093648910522
1759486402717890300,2.334890380859375,0.09101459383964539,-0.1045282706618309,0.5493331551551819
1759486402727947300,2.344947265625,0.08380115777254105,-0.12097328901290894,0.5047649145126343
1759486402738004200,2.355004150390625,0.03712180256843567,-0.08377239108085632,0.4564881920814514
1759486402748062200,2.365062255859375,-0.03062422201037407,0.11244398355484009,0.3330320119857788
1759486402758119400,2.375119384765625,-0.045695848762989044,0.1172211617231369,0.2891561686992645
1759486402768176400,2.38517626953125,-0.07860825955867767,0.16382434964179993,0.24994325637817383
1759486402778233300,2.3952333984375,-0.048533715307712555,0.0385146364569664,0.2909088134765625
1759486402788290300,2.405290283203125,-0.020266389474272728,-0.1653575301170349,0.3772711157798767
1759486402798348300,2.415348388671875,-0.01956438086926937,-0.22473777830600739,0.39073580503463745
1759486402808405200,2.4254052734375,-0.011390605941414833,-0.17854498326778412,0.3478855490684509
1759486402818462200,2.435462158203125,-0.00700944010168314,-0.1531568020582199,0.3152405023574829
1759486402828519400,2.44551953125,-0.027709923684597015,-0.15413391590118408,0.30572929978370667
1759486402838577200,2.4555771484375,-0.05559109151363373,-0.13235218822956085,0.30829310417175293
1759486402848634400,2.46563427734375,-0.07691262662410736,-0.09006251394748688,0.31118157505989075
1759486402858691300,2.47569140625,-0.07596161216497421,-0.0496479794383049,0.3359484374523163
1759486402868748300,2.485748291015625,-0.06739342212677002,-0.019571304321289062,0.37624314427375793
1759486402878805200,2.49580517578125,-0.10482495278120041,-0.02496633678674698,0.3959851562976837
1759486402888863200,2.50586328125,-0.10527848452329636,-0.03756095841526985,0.3839718997478485
1759486402898920200,2.515920166015625,-0.1104213148355484,-0.02028077095746994,0.3618799149990082
1759486402908977200,2.52597705078125,-0.1141476109623909,0.05083548277616501,0.31712469458580017
1759486402919034400,2.536034423828125,-0.08489358425140381,0.10320974141359329,0.27479109168052673
1759486402929092000,2.546092041015625,-0.08889099210500717,0.19604167342185974,0.21633124351501465
1759486402939149000,2.556149169921875,-0.03573828935623169,0.22298754751682281,0.14954155683517456
1759486402949206300,2.566206298828125,0.01461782492697239,0.10649927705526352,0.15128831565380096
1759486402959263200,2.57626318359375,0.017423199489712715,-0.0038333539851009846,0.14849093556404114
1759486402969321200,2.5863212890625,0.03434492275118828,-0.05302460119128227,0.13188426196575165
1759486402979378200,2.596378173828125,0.03315422311425209,-0.06197575107216835,0.11073796451091766
1759486402989435100,2.60643505859375,0.041728004813194275,-0.011179417371749878,0.08312178403139114
1759486402999492000,2.6164921875,0.04716245085000992,0.04219112917780876,0.07132530957460403
1759486403009550300,2.62655029296875,0.046426355838775635,0.0883820578455925,0.07012129575014114
1759486403019607300,2.636607177734375,0.06948613375425339,0.15192082524299622,0.06739768385887146
1759486403029664300,2.646664306640625,0.0865657851099968,0.18132132291793823,0.05877649784088135
1759486403039721200,2.65672119140625,0.0742340162396431,0.10313863307237625,0.05488082394003868
1759486403049779200,2.666779296875,0.0370488315820694,-0.0044320328161120415,0.0594332329928875
1759486403059836200,2.676836181640625,0.05964841693639755,-0.03795137628912926,0.07888389378786087
1759486403069893400,2.686893310546875,-0.0018064221367239952,-0.05474846810102463,0.06016666814684868
1759486403079950300,2.696950439453125,0.009470201097428799,-0.007924501784145832,0.013491041027009487
1759486403090008300,2.70700830078125,0.024275245144963264,0.04753848910331726,-0.03223996236920357
1759486403100065300,2.717065185546875,0.00830932892858982,0.07735950499773026,-0.07258045673370361
1759486403110122200,2.727122314453125,0.018987806513905525,0.12166544795036316,-0.10285048186779022
1759486403120179200,2.73717919921875,0.02580816112458706,0.14089959859848022,-0.1050257533788681
1759486403130237400,2.747237548828125,0.03849306330084801,0.12149633467197418,-0.07761010527610779
1759486403140294400,2.75729443359375,0.11144929379224777,0.1176091879606247,-0.03965393453836441
1759486403150351400,2.767351318359375,0.14115606248378754,0.1295500099658966,-0.0036975329276174307
1759486403160408300,2.777408203125,0.21086056530475616,0.1776839792728424,0.03894313797354698
1759486403170466300,2.78746630859375,0.15243534743785858,0.14429086446762085,0.0403229221701622
1759486403180523300,2.797523193359375,0.09553371369838715,0.10571204870939255,0.019711652770638466
1759486403190580200,2.807580322265625,0.10349389910697937,0.08138912916183472,-0.014151238836348057
1759486403200637400,2.817637451171875,0.09577818959951401,0.016943296417593956,-0.03833114355802536
1759486403210695200,2.827695068359375,0.05469733476638794,0.004723116289824247,-0.02414128929376602
1759486403220752100,2.837752197265625,0.02485315129160881,-0.01715954579412937,0.014784006401896477
1759486403230809000,2.84780908203125,0.030884413048624992,-0.002801911672577262,0.05612718313932419
1759486403240867000,2.8578671875,0.02990223839879036,0.07363373786211014,0.08632183820009232
1759486403250924300,2.86792431640625,0.01347452960908413,0.12765835225582123,0.07815659046173096
1759486403260981200,2.877981201171875,-0.015173093415796757,0.15001720190048218,0.06634706258773804
1759486403271038200,2.8880380859375,-0.01050483901053667,0.118754081428051,0.062133677303791046
1759486403281096200,2.89809619140625,0.023567112162709236,0.10524013638496399,0.0649864599108696
1759486403291153200,2.908153076171875,-0.007001183927059174,0.09668286889791489,0.0678834393620491
1759486403301210000,2.918210205078125,-0.02448270656168461,0.10886869579553604,0.06208787113428116
1759486403311268400,2.928268310546875,-0.02346697635948658,0.15581542253494263,0.04679733142256737
1759486403321325300,2.9383251953125,0.017488712444901466,0.1690760999917984,0.0401759147644043
1759486403331382300,2.94838232421875,0.009851565584540367,0.08024849742650986,0.056297894567251205
1759486403341439200,2.958439208984375,0.037700507789850235,-0.012018047273159027,0.07483988255262375
1759486403351497200,2.968497314453125,0.06871993839740753,-0.013323262333869934,0.08506589382886887
1759486403361554200,2.97855419921875,0.0660349428653717,0.006149771623313427,0.09012217074632645
1759486403371611400,2.988611328125,0.048218127340078354,-0.0062554990872740746,0.10214634239673615
1759486403381668400,2.99866845703125,0.05204722285270691,-0.032340895384550095,0.10995100438594818
1759486403391726300,3.008726318359375,0.07780691236257553,0.018159030005335808,0.0829998105764389
1759486403401783300,3.018783203125,0.04788763076066971,0.0037907434161752462,0.055926114320755005
1759486403411840300,3.02884033203125,0.0038807583041489124,-0.08755674958229065,0.06417924910783768
1759486403421898200,3.038898193359375,-0.018312694504857063,-0.08302538096904755,0.08002346009016037
1759486403431955500,3.04895556640625,-0.018727082759141922,0.018156632781028748,0.0924292653799057
1759486403442012400,3.059012451171875,-0.008670187555253506,0.13640178740024567,0.10550937801599503
1759486403452069400,3.0690693359375,0.007955927401781082,0.15800747275352478,0.12393312901258469
1759486403462127000,3.079127197265625,0.015139005146920681,0.12379917502403259,0.11454948037862778
1759486403472184000,3.08918408203125,0.007938883267343044,0.06597422063350677,0.07212106138467789
1759486403482241300,3.0992412109375,-0.009049421176314354,-0.0020847225096076727,0.020191021263599396
1759486403492299300,3.10929931640625,-0.016271114349365234,-0.03599501773715019,-0.021086376160383224
1759486403502356200,3.119356201171875,-0.022999059408903122,-0.05932511016726494,-0.03485545143485069
1759486403512413200,3.1294130859375,-0.04024515673518181,-0.05681721121072769,-0.04288887605071068
1759486403522470100,3.13947021484375,-0.07043129205703735,-0.07499461621046066,-0.015720639377832413
1759486403532528000,3.149528076171875,-0.09476964920759201,-0.09437576681375504,0.049913231283426285
1759486403542585000,3.159585205078125,-0.09777209907770157,-0.08077580481767654,0.12420903146266937
1759486403552642300,3.169642333984375,-0.07675523310899734,-0.009434248320758343,0.1600101739168167
1759486403562700300,3.1797001953125,-0.042399123311042786,0.060205549001693726,0.16687633097171783
1759486403572757200,3.18975732421875,-0.0295533649623394,0.06498991698026657,0.1503748595714569
1759486403582814200,3.199814208984375,-0.028169851750135422,-0.033434655517339706,0.11791731417179108
1759486403592872200,3.2098720703125,-0.024169517681002617,-0.07506811618804932,0.0899093821644783
1759486403602929400,3.219929443359375,-0.019873838871717453,-0.06325593590736389,0.07035272568464279
1759486403612986400,3.229986328125,-0.015449530445039272,-0.02165895700454712,0.05026184022426605
1759486403623043300,3.240043212890625,-0.0234624482691288,0.028620192781090736,0.03281014412641525
1759486403633101300,3.250101318359375,-0.038650188595056534,0.06183726713061333,0.0138966403901577
1759486403643158300,3.260158203125,-0.0418209508061409,0.0710613951086998,-0.014129667542874813
1759486403653215200,3.27021533203125,-0.04053890332579613,0.04566069692373276,-0.03428393602371216
1759486403663273200,3.280273193359375,-0.03773672506213188,-0.01528734341263771,-0.03928828239440918
1759486403673330400,3.290330322265625,-0.032114528119564056,-0.06461121886968613,-0.03749357908964157
1759486403683387400,3.300387451171875,-0.03301893547177315,-0.07237113267183304,-0.03600673750042915
1759486403693445000,3.310445068359375,-0.03693431615829468,-0.06364662200212479,-0.03207138180732727
1759486403703502800,3.3205029296875,-0.042395927011966705,-0.06337923556566238,-0.008785502053797245
1759486403713559800,3.330559814453125,-0.03587810695171356,-0.06907095015048981,0.013714480213820934
1759486403723617800,3.34061767578125,-0.03159760683774948,-0.0840911716222763,0.047325704246759415
1759486403733675000,3.350675048828125,-0.023628629744052887,-0.09899049252271652,0.0863223746418953
1759486403743732000,3.36073193359375,-0.01967862993478775,-0.1346997618675232,0.1384870409965515
1759486403753789000,3.370788818359375,-0.00401737866923213,-0.16434259712696075,0.1764373481273651
1759486403763847000,3.380846923828125,-0.001291100517846644,-0.17216883599758148,0.18231335282325745
1759486403773904000,3.39090380859375,-0.01095438003540039,-0.15073224902153015,0.16805797815322876
1759486403783960800,3.4009609375,-0.029148297384381294,-0.11390393227338791,0.13053163886070251
1759486403794019000,3.41101904296875,-0.07328672707080841,-0.10704682767391205,0.0975758284330368
1759486403804076000,3.421075927734375,-0.1123071014881134,-0.10151810199022293,0.0679769217967987
1759486403814133000,3.431133056640625,-0.15344016253948212,-0.08898526430130005,0.047498010098934174
1759486403824191000,3.44119091796875,-0.17364315688610077,-0.06902513653039932,0.03413320332765579
1759486403834248000,3.451248046875,-0.16909874975681305,-0.04511528089642525,0.027729365974664688
1759486403844305000,3.461304931640625,-0.1506957709789276,-0.02936055138707161,0.03200720250606537
1759486403854363000,3.47136279296875,-0.12951777875423431,-0.031062046065926552,0.035176895558834076
1759486403864419800,3.481419921875,-0.10601352155208588,-0.05964149162173271,0.04778163880109787
1759486403874476800,3.491476806640625,-0.08335507661104202,-0.08571889996528625,0.05830724909901619
1759486403884534800,3.50153466796875,-0.06682749837636948,-0.08045942336320877,0.05620095506310463
1759486403894591700,3.511591796875,-0.056358881294727325,-0.06382238864898682,0.04753875732421875
1759486403904649000,3.52164892578125,-0.049560096114873886,-0.04195171222090721,0.039749544113874435
1759486403914706000,3.531705810546875,-0.031551800668239594,-0.024644892662763596,0.03717346861958504
1759486403924764000,3.541763916015625,-0.011913650669157505,-0.03304290398955345,0.043893154710531235
1759486403934820900,3.55182080078125,-0.007092530373483896,-0.05720443278551102,0.06101621687412262
1759486403944877800,3.5618779296875,-0.0010604707058519125,-0.0811566412448883,0.07569928467273712
1759486403954936000,3.57193603515625,-0.005320196971297264,-0.08783265203237534,0.07580315321683884
1759486403964993000,3.581992919921875,-0.020142287015914917,-0.07297460734844208,0.06687303632497787
1759486403975050000,3.592050048828125,-0.03803473338484764,-0.04163772612810135,0.04483671486377716
1759486403985108000,3.60210791015625,-0.056050751358270645,-0.015301192179322243,0.02316710352897644
1759486403995165000,3.6121650390625,-0.06788796931505203,-0.0017417073249816895,0.008497081696987152
1759486404005222000,3.622221923828125,-0.06403064727783203,0.0008378304773941636,0.0007454187725670636
1759486404015280000,3.632280029296875,-0.0508570559322834,-0.006514891050755978,-0.0021198762115091085
1759486404025337000,3.642337158203125,-0.03597504645586014,-0.015519038774073124,0.009499229490756989
1759486404035394000,3.65239404296875,-0.0020865867845714092,-0.004653607495129108,0.029046032577753067
1759486404045451800,3.66245166015625,0.030241258442401886,0.008127967827022076,0.06111901253461838
1759486404055508700,3.6725087890625,0.034089259803295135,-0.009849168360233307,0.07954063266515732
1759486404065566000,3.68256591796875,0.021249894052743912,-0.05934854596853256,0.07919495552778244
1759486404075624000,3.6926240234375,0.01515897922217846,-0.07751130312681198,0.0714387595653534
1759486404085681000,3.702680908203125,0.013455620966851711,-0.058276887983083725,0.06713589280843735
1759486404095737900,3.71273779296875,0.02406965009868145,-0.02780739590525627,0.061944592744112015
1759486404105795800,3.7227958984375,0.03653191030025482,0.003337739733979106,0.06009422987699509
1759486404115852800,3.732852783203125,0.05311275273561478,0.03079945780336857,0.04978353530168533
1759486404125909800,3.74290966796875,0.060212474316358566,0.04872386157512665,0.032036762684583664
1759486404135968000,3.752968017578125,0.060136307030916214,0.04318475350737572,0.012271846644580364
1759486404146025000,3.76302490234375,0.05981965735554695,0.027160247787833214,-0.0013353090034797788
1759486404156082000,3.77308203125,0.05663584917783737,0.011654258705675602,-0.007813181728124619
1759486404166140000,3.783139892578125,0.05237079784274101,0.009349559433758259,0.0006985471700318158
1759486404176196900,3.79319677734375,0.04556775093078613,0.009349559433758259,0.012766394764184952
1759486404186254000,3.803254150390625,0.04110535979270935,0.00830826349556446,0.02570323273539543
1759486404196312000,3.81331201171875,0.031135281547904015,0.010457701049745083,0.02875441685318947
1759486404206369000,3.823369140625,0.023988956585526466,0.018213357776403427,0.018184330314397812
1759486404216426000,3.833426025390625,0.021312745288014412,0.034081004559993744,-0.0031276163645088673
1759486404226483700,3.843483642578125,0.016696421429514885,0.04852226376533508,-0.026566097512841225
1759486404236540700,3.853540771484375,0.02261423133313656,0.05389119312167168,-0.05260595306754112
1759486404246598000,3.863597900390625,0.032951027154922485,0.054302651435136795,-0.06283941864967346
1759486404256656000,3.87365576171875,0.036619264632463455,0.04586176574230194,-0.06145244091749191
1759486404266712800,3.883712890625,0.03954208269715309,0.024207334965467453,-0.04680319130420685
1759486404276769800,3.893769775390625,0.03942250832915306,-0.005142830312252045,-0.025775671005249023
1759486404286827800,3.903827880859375,0.03690049424767494,-0.013251623138785362,-0.008331965655088425
1759486404296885000,3.913885009765625,0.03190493583679199,0.005682653281837702,0.00035606464371085167
1759486404306942000,3.92394189453125,0.02160116657614708,0.02883324585855007,0.0033217607997357845
1759486404317000000,3.934,0.012680907733738422,0.04055594652891159,0.0028186896815896034
1759486404327057000,3.944056884765625,0.023387348279356956,0.04990124702453613,-0.003919640555977821
1759486404337113900,3.95411376953125,0.03232491761445999,0.05065039545297623,-0.008348210714757442
1759486404347172000,3.964172119140625,0.04370380565524101,0.04168965667486191,-0.012764797545969486
1759486404357229000,3.97422900390625,0.05552104860544205,0.0351601168513298,-0.00452897185459733
1759486404367287000,3.984287109375,0.06524797528982162,0.039261918514966965,0.014549913816154003
1759486404377344000,3.994343994140625,0.06998760998249054,0.05259689688682556,0.029700903221964836
1759486404387401000,4.00440087890625,0.05969741940498352,0.03935885801911354,0.04246223717927933
1759486404397458700,4.014458740234375,0.043174367398023605,0.04344521090388298,0.051218181848526
1759486404407516000,4.024515869140625,0.03585946559906006,0.071476049721241,0.06126255914568901
1759486404417572900,4.03457275390625,0.040943972766399384,0.1256074607372284,0.08184879273176193
1759486404427630800,4.044630859375,0.03982358053326607,0.15196077525615692,0.107500359416008
1759486404437687800,4.054687744140625,0.04595364257693291,0.09739872813224792,0.09488896280527115
1759486404447744800,4.064744873046875,0.0238970760256052,-0.037276532500982285,0.03449565917253494
1759486404457803000,4.074802978515625,-0.01630387268960476,-0.23493501543998718,-0.10168694704771042
1759486404467860000,4.08485986328125,-0.03508954495191574,-0.22917965054512024,-0.2087942212820053
