time,seconds_elapsed,z,y,x
1759347771148308700,0.030308837890625,1.2565069587707518,-9.002946430206299,3.553444176483154
1759347771158365700,0.04036572265625,1.2687772422790526,-8.990825784301757,3.569605037689209
1759347771168421600,0.050421630859375,1.2841899154663086,-8.987982669830322,3.589806114196777
1759347771178478600,0.060478515625,1.254561669921875,-8.971522533416747,3.628113340759277
1759347771188535800,0.070535888671875,1.1894693122863769,-8.936656971740723,3.6215292861938475
1759347771198592800,0.0805927734375,1.171512799835205,-8.91974792251587,3.6309564552307125
1759347771208650000,0.09064990234375,1.1764508407592773,-8.914211331176757,3.5990836456298827
1759347771218707000,0.10070703125,1.2170026313781737,-8.932766394042968,3.5426702690124507
1759347771228764000,0.110763916015625,1.267280866241455,-8.962095364379882,3.484161965942383
1759347771238820900,0.12082080078125,1.336263801574707,-9.03422068939209,3.464260164642334
1759347771248877800,0.1308779296875,1.3654431343078612,-9.073725016784667,3.4554315460205074
1759347771258934800,0.140934814453125,1.4112322410583495,-9.149740919494628,3.5007717399597165
1759347771268991700,0.15099169921875,1.3780126930236816,-9.13642317276001,3.554641277313232
1759347771279048700,0.161048583984375,1.3198036651611327,-9.054870678710937,3.6070144386291503
1759347771289106400,0.1711064453125,1.2951134605407715,-9.02658917160034,3.676147011566162
1759347771299163400,0.181163330078125,1.2448352256774902,-9.049184449768067,3.684975630187988
1759347771309220600,0.191220703125,1.195754091644287,-9.084199649047852,3.6725557090759273
1759347771319276300,0.2012763671875,1.1819874320983885,-9.056965605163574,3.6750995483398436
1759347771329333500,0.21133349609375,1.2268787132263184,-9.006537732696533,3.649361880493164
1759347771339390500,0.221390380859375,1.2400468223571777,-9.003844255828858,3.6399347114562985
1759347771349447400,0.231447509765625,1.2514192802429198,-9.006687370300293,3.693355335998535
1759347771359504400,0.24150439453125,1.2633902885437012,-8.980351152038574,3.6381390602111816
1759347771369561300,0.251561279296875,1.209820026397705,-8.973318184661865,3.537582590484619
1759347771379618300,0.261618408203125,1.1984475685119629,-8.934711682891844,3.501968840789795
1759347771389675300,0.27167529296875,1.207276187133789,-8.955810585021972,3.5321956367492673
1759347771399732200,0.281732177734375,1.243039574432373,-8.949076892852784,3.5250130317687987
1759347771409789400,0.29178955078125,1.2554594955444336,-8.961945726776122,3.50496159286499
1759347771419846700,0.3018466796875,1.2587515228271484,-9.005190994262694,3.5148376747131347
1759347771429903600,0.311903564453125,1.2636895637512207,-9.056067779541015,3.5263597702026366
1759347771439960600,0.321960693359375,1.2609960868835448,-9.062651834106445,3.529801435089111
1759347771450017500,0.332017578125,1.228973639678955,-9.022698593902588,3.499125726318359
1759347771460074500,0.342074462890625,1.2455834136962889,-9.00249751739502,3.519626078033447
1759347771470131500,0.35213134765625,1.2856862915039062,-8.986336656188964,3.5386300537109374
1759347771480188400,0.3621884765625,1.2837410026550293,-8.9631428276062,3.5691561248779293
1759347771490245400,0.372245361328125,1.2606968116760253,-8.983493541717529,3.56242243270874
1759347771500302600,0.382302490234375,1.2288240020751953,-8.999804040527343,3.586813362121582
1759347771510359600,0.392359619140625,1.2297218276977537,-9.058162705993652,3.6330513816833494
1759347771520416500,0.40241650390625,1.2810475257873535,-9.11023659210205,3.6632781776428223
1759347771530473500,0.412473388671875,1.2597989860534666,-9.123853614044188,3.698443014526367
1759347771540529400,0.422529296875,1.2741641960144041,-9.121459412384032,3.7186440910339353
1759347771550586400,0.43258642578125,1.214907704925537,-9.047987348937987,3.6381390602111816
1759347771560643300,0.442643310546875,1.2228384979248046,-9.008483021545409,3.564816634368896
1759347771570700300,0.4527001953125,1.281945351409912,-8.966135579681396,3.554790914916992
1759347771580757500,0.462757568359375,1.2994529510498045,-8.938452622985839,3.5576340293884274
1759347771590814500,0.472814453125,1.3269862701416015,-8.914510606384276,3.5748423538208005
1759347771600871400,0.482871337890625,1.3498808235168456,-8.960000437927246,3.6182372589111327
1759347771610928600,0.4929287109375,1.312621060180664,-8.982446078491211,3.6282629783630367
1759347771620985600,0.502985595703125,1.2343605934143065,-9.004742081451415,3.6305075424194335
1759347771631042600,0.51304248046875,1.1837830833435057,-9.056516692352295,3.596390168762207
1759347771641099500,0.523099609375,1.1685200477600097,-9.034968877410888,3.569455400085449
1759347771651156500,0.533156494140625,1.1988964813232421,-9.028833735656738,3.5615246070861812
1759347771661213400,0.54321337890625,1.2324153045654296,-9.044545684051513,3.5098996337890624
1759347771671270400,0.5532705078125,1.2267290756225586,-9.036315615844726,3.4548329956054684
1759347771681327400,0.563327392578125,1.2421417488098143,-9.038260904693603,3.4421137992858886
1759347771691384600,0.573384521484375,1.2431892120361328,-9.051429013824462,3.4489971290588377
1759347771701441500,0.583441650390625,1.2469301521301268,-9.094075730895996,3.4931402221679684
1759347771711498500,0.59349853515625,1.265335577392578,-9.14255831451416,3.573794890594482
1759347771721555500,0.603555419921875,1.286434479522705,-9.120411949157715,3.620481822967529
1759347771731612400,0.6136123046875,1.2211924842834472,-9.085097474670409,3.669862232208252
1759347771741669400,0.62366943359375,1.1360486877441405,-9.019107291412354,3.6394857986450195
1759347771751726300,0.633726318359375,1.099387474822998,-8.965237754058837,3.6002807464599607
1759347771761783300,0.643783203125,1.0931026954650878,-8.957755873870848,3.58142640838623
1759347771771840300,0.65384033203125,1.1668740341186523,-8.989479045867919,3.5887586509704588
1759347771781897500,0.6638974609375,1.1869254730224608,-9.024793520355225,3.623175299835205
1759347771791954400,0.673954345703125,1.2217910346984862,-9.049783000183105,3.591003215026855
1759347771802011400,0.684011474609375,1.2565069587707518,-9.055469229125976,3.5954923431396484
1759347771812068400,0.694068359375,1.2674305038452147,-9.047239160919188,3.544615557861328
1759347771822125300,0.704125244140625,1.273116732788086,-9.044545684051513,3.4729391456604004
1759347771832182500,0.7141826171875,1.3205518531799316,-9.048585899353027,3.4563293716430663
1759347771842239500,0.724239501953125,1.3479355346679687,-9.087491676330567,3.386149335479736
1759347771852296400,0.73429638671875,1.389834063720703,-9.167248519134521,3.3527801498413083
1759347771862353400,0.744353515625,1.4031518104553222,-9.214683639526367,3.3467946456909177
1759347771872410600,0.75441064453125,1.3884873252868652,-9.226056097412108,3.324349005126953
1759347771882467600,0.764467529296875,1.3808558074951172,-9.214234726715087,3.282749751281738
1759347771892524500,0.774524658203125,1.390582251739502,-9.16141265258789,3.303848653411865
1759347771902581500,0.78458154296875,1.375917766571045,-9.075371030426025,3.3289877708435056
1759347771912638500,0.794638427734375,1.3284826461791992,-8.994117811584472,3.3762732536315916
1759347771922695400,0.8046953125,1.2575544219970702,-8.958803337097168,3.4274493141174314
1759347771932752400,0.81475244140625,1.163133094024658,-8.932916031646728,3.49239203414917
1759347771942809300,0.824809326171875,1.1149497856140136,-8.958354424285888,3.527257595825195
1759347771952866600,0.834866455078125,1.127519344329834,-8.998457302093506,3.573944528198242
1759347771962923500,0.844923583984375,1.1279682571411132,-9.044695321655272,3.5755905418395995
1759347771972980500,0.85498046875,1.11734398727417,-9.113977532196044,3.5519478004455562
1759347771983037400,0.865037353515625,1.1584943283081055,-9.161263014984131,3.4956840614318847
1759347771993094400,0.875094482421875,1.1713631622314453,-9.145551066589356,3.446303652191162
1759347772003151400,0.8851513671875,1.2125135032653809,-9.118017747497557,3.3879449867248534
1759347772013208300,0.895208251953125,1.2880804931640624,-9.137470635986327,3.3270424819946287
1759347772023265300,0.905265380859375,1.405845287322998,-9.175927500152588,3.340210591125488
1759347772033322200,0.915322265625,1.4040496360778807,-9.199121328735352,3.397072880554199
1759347772043379500,0.92537939453125,1.3781623306274413,-9.188646696472167,3.404554760742187
1759347772053436400,0.9354365234375,1.2987047630310058,-9.141361213684082,3.3940801284790036
1759347772063494400,0.945494384765625,1.1828852577209472,-9.140463388061523,3.364900795745849
1759347772073551400,0.95555126953125,1.1724106254577635,-9.120711224365234,3.321805165863037
1759347772083608300,0.9656083984375,1.207276187133789,-9.220369868469238,3.3194109642028806
1759347772093665300,0.975665283203125,1.3920786277770996,-9.420884257507323,3.380014193725586
1759347772103722200,0.98572216796875,1.5414169563293456,-9.595960253906249,3.413682654571533
1759347772113779500,0.995779541015625,1.541716231536865,-9.655216744995117,3.389591000366211
1759347772123836400,1.00583642578125,1.5644611473083496,-9.579200842285156,3.337666751861572
1759347772133893400,1.015893310546875,1.5285481224060058,-9.395445864868163,3.1919197257995604
1759347772143950300,1.025950439453125,1.4707880073547361,-9.13552534713745,3.067570877075195
1759347772154007600,1.036007568359375,1.4598644622802734,-8.928277265930175,3.020435031890869
1759347772164064500,1.046064453125,1.4655506912231444,-8.832060286712647,3.1112650573730467
1759347772174121500,1.05612158203125,1.4962263999938965,-8.937405159759521,3.2236428977966307
1759347772184178400,1.066178466796875,1.1424831047058104,-9.075221392822264,3.344250806427002
1759347772194235400,1.0762353515625,1.1532570121765136,-9.178620977020262,3.346495370483398
1759347772204292600,1.086292724609375,1.2345102310180662,-9.28246947402954,3.285293590545654
1759347772214349600,1.096349609375,0.9937433265686034,-9.335740460968017,3.309684519958496
1759347772224406500,1.106406494140625,0.8325836273193359,-9.349806395721435,3.279008811187744
1759347772234463500,1.11646337890625,0.7134720947265625,-9.23174232635498,3.2474352767944334
1759347772244520400,1.1265205078125,0.8203133438110352,-9.050830463409424,3.2179566688537595
1759347772254577400,1.136577392578125,0.9642647186279296,-8.812308123016356,3.1714193740844725
1759347772264634400,1.14663427734375,1.1097124694824219,-8.58725316696167,3.1669302459716797
1759347772274692600,1.156692626953125,1.285087741088867,-8.486995972442626,3.124433166503906
1759347772284748500,1.16674853515625,1.4181155708312987,-8.438663026428221,3.0162451789855957
1759347772294805800,1.1768056640625,1.534832901763916,-8.5034561088562,2.8730419921875
1759347772304862700,1.18686279296875,1.62147307434082,-8.687809636688232,2.762459803009033
1759347772314919700,1.196919677734375,1.71739077835083,-8.923039949798584,2.6791116577148437
1759347772324976600,1.2069765625,1.8365023109436034,-9.099013771820069,2.634220376586914
1759347772335033600,1.21703369140625,2.05572140045166,-8.994267449188232,2.6795605705261227
1759347772345090600,1.227090576171875,2.157175695800781,-8.783428065490723,2.6828525978088376
1759347772355147500,1.2371474609375,1.9422960968017577,-8.711302740478516,2.736871772766113
1759347772365204500,1.24720458984375,1.8688240333557127,-8.725967225646972,2.868253588867187
1759347772375261400,1.257261474609375,1.8596961395263671,-8.762478800964354,2.8878561149597166
1759347772385318700,1.267318603515625,1.9060837966918944,-8.91914937210083,2.690334477996826
1759347772395375600,1.277375732421875,2.085948196411133,-9.182212279510498,2.431760698699951
1759347772405432600,1.2874326171875,2.436249826812744,-9.5124624710083,2.1817162628173827
1759347772415490600,1.297490478515625,2.7602152389526364,-9.690531219482422,2.0094833808898924
1759347772425547500,1.307547607421875,2.620752992248535,-9.57695627822876,1.8773533767700195
1759347772435604500,1.3176044921875,2.4200889656066895,-9.207800309753418,1.7348983779907226
1759347772445661400,1.327661376953125,2.089539498901367,-8.853159188842772,1.8073229782104492
1759347772455718700,1.33771875,1.9342156661987304,-8.538321670532227,2.0542250244140625
1759347772465775600,1.347775634765625,2.0337246726989746,-8.437316287994385,2.2258593559265134
1759347772475832600,1.35783251953125,2.503137835693359,-8.711302740478516,2.261473105621338
1759347772485889800,1.367889892578125,2.93065246963501,-9.127594554138183,2.121561946105957
1759347772495946800,1.37794677734375,3.008314385986328,-9.36566798171997,2.042104378509521
1759347772506003700,1.388003662109375,2.91748436050415,-9.447968663787842,2.0214543891906738
1759347772516060700,1.398060791015625,2.6939257804870604,-9.50632732925415,1.8709189598083495
1759347772526117600,1.40811767578125,2.4630349578857422,-9.59625952911377,1.1727099006652832
1759347772536175600,1.418175537109375,2.497451606750488,-9.654318919372558,0.8258499351501465
1759347772546232600,1.428232666015625,2.3407810356140137,-9.632022916412353,0.5229834251403809
1759347772556289800,1.438289794921875,2.0232500404357907,-9.549422959136962,0.1710357810974121
1759347772566346800,1.4483466796875,1.894860976409912,-9.444078086090087,0.03366846084594726
1759347772576403700,1.45840380859375,1.9642928245544433,-9.350404946136473,0.1479915901184082
1759347772586460700,1.468460693359375,2.2819734573364254,-9.26989991531372,0.29089550170898437
1759347772596517600,1.478517578125,2.7781717514038085,-9.15497823562622,0.5695207199096679
1759347772606574600,1.48857470703125,3.151816847991943,-8.909722203063964,0.891241567993164
1759347772616631800,1.4986318359375,3.3647511581420897,-8.499565531158447,0.9687538467407226
1759347772626688800,1.508688720703125,3.5672108360290524,-8.364891687774657,1.2307692909240722
1759347772636746800,1.518746826171875,3.938312093353271,-8.515876029968261,1.4990695144653319
1759347772646803700,1.5288037109375,3.985148663330078,-8.729259252929687,1.3447931449890136
1759347772656860700,1.538860595703125,3.8789059646606443,-8.919448647308348,1.1882722114562987
1759347772666917600,1.548917724609375,3.665223466491699,-8.953416383361816,0.9368810371398926
1759347772676974600,1.558974609375,3.4112884529113767,-8.955810585021972,0.6293757614135742
1759347772687031800,1.56903173828125,3.3372178390502927,-8.977358399963379,0.6634931350708008
1759347772697088800,1.5790888671875,3.337068201446533,-9.039607643127441,0.5722141967773438
1759347772707145700,1.589145751953125,3.417573232269287,-9.157970987701415,0.4607341819763183
1759347772717202700,1.59920263671875,3.6935049736022947,-9.294739757537842,0.37289690856933594
1759347772727260700,1.6092607421875,4.04141240234375,-9.35324806060791,0.24824878463745115
1759347772737317600,1.619317626953125,4.169352553558349,-9.244012609863281,0.10743979949951171
1759347772747374600,1.62937451171875,4.095730852508544,-9.090035515594481,0.13901333389282225
1759347772757431800,1.639431884765625,4.012083432006835,-9.12415288925171,-0.036361937713623046
1759347772767488800,1.64948876953125,3.962254109954834,-9.144802878570555,-0.1740285331726074
1759347772777545700,1.659545654296875,3.867832781982422,-8.91780263366699,-0.14993687896728514
1759347772787602700,1.669602783203125,3.8250364273071287,-8.736741133117675,-0.09636661682128905
1759347772797659600,1.67965966796875,3.9734769302368163,-8.685565072631835,0.08604162216186523
1759347772807717600,1.689717529296875,3.8982092155456542,-8.635286837768554,0.20530279235839843
1759347772817774600,1.699774658203125,3.7647324729919434,-8.839392529296875,0.31259295425415035
1759347772827831800,1.709831787109375,3.783287535858154,-8.930821105194092,0.33788170928955075
1759347772837888800,1.719888671875,3.7644331977844234,-9.04050546875,0.181959326171875
1759347772847945700,1.72994580078125,3.7126585868835447,-9.23249051437378,-0.22056582794189453
1759347772858002700,1.740002685546875,3.7400422683715817,-9.307309316253662,-0.3464110527038574
1759347772868059600,1.7500595703125,3.639785073852539,-9.353696973419188,-0.5930138236999511
1759347772878117600,1.76011767578125,3.8590041633605954,-9.630526540374754,-0.7507318580627441
1759347772888174600,1.770174560546875,3.9636008483886718,-9.64653776397705,-0.3642179275512695
1759347772898231800,1.780231689453125,3.9344215156555173,-9.443329898071289,-0.3687070556640625
1759347772908288800,1.790288818359375,4.2968437919616695,-9.303119463348388,-0.7161655715942382
1759347772918345700,1.800345703125,4.344129274749756,-9.133131145477295,-0.7582137382507323
1759347772928402700,1.810402587890625,4.076427601623535,-8.953715658569335,-0.7606079399108886
1759347772938459600,1.820459716796875,3.856909236907959,-8.819341090393065,-0.7330746208190918
1759347772948517600,1.830517578125,3.6688147689819335,-8.694842604064942,-0.6344634399414062
1759347772958574600,1.84057470703125,3.643526013946533,-8.661473418426514,-0.6398503936767578
1759347772968631800,1.8506318359375,3.819649473571777,-8.598625624847411,-0.6036380935668945
1759347772978688800,1.860688720703125,4.233696723175049,-8.479065179443358,-0.6444891593933105
1759347772988745700,1.870745849609375,4.573673358917236,-8.403498189544678,-0.704194563293457
1759347772998802700,1.880802734375,4.438700240325928,-8.41412245941162,-0.8369231178283691
1759347773008859600,1.890859619140625,4.030937770080566,-8.359654371643066,-0.8705915786743164
1759347773018917600,1.900917724609375,3.8914755233764646,-8.38913297958374,-0.8863035270690918
1759347773028974600,1.910974609375,3.810222304534912,-8.460959029388427,-0.9654618194580078
1759347773039031800,1.92103173828125,3.950732014465332,-8.493430389404296,-1.038784245300293
1759347773049088800,1.9310888671875,4.0252515411376955,-8.394071020507813,-1.1842319961547851
1759347773059145700,1.941145751953125,4.356848471069336,-8.250418920898436,-1.2669815910339355
1759347773069202700,1.95120263671875,4.807856208801269,-8.031050193786621,-1.3564648780822752
1759347773079260700,1.9612607421875,5.211279188537597,-8.097938202667235,-1.6328455322265625
1759347773089317600,1.971317626953125,5.285649077606201,-8.345289161682128,-1.777395457458496
1759347773099374600,1.98137451171875,4.755034134674072,-8.556727095794677,-1.9274819740295408
1759347773109431800,1.991431884765625,4.693233804321289,-8.598625624847411,-2.0491373458862303
1759347773119488800,2.00148876953125,4.782417816162109,-8.549843766021729,-2.0952257278442383
1759347773129545700,2.011545654296875,4.632032024383545,-8.501361182403564,-2.190544881439209
1759347773139603700,2.021603759765625,4.544793301391601,-8.353668867492676,-2.2495020973205566
1759347773149660700,2.03166064453125,4.663455921173095,-8.118288916778564,-2.3671172538757324
1759347773159717600,2.041717529296875,4.887912326812744,-7.920168729400634,-2.4307132354736325
1759347773169774600,2.051774658203125,4.953154322052002,-7.8821607780456535,-2.553116795349121
1759347773179831800,2.061831787109375,4.803367080688476,-7.950994075775146,-2.6110265480041503
1759347773189888800,2.071888671875,4.758775074768066,-8.013841869354248,-2.570175482177734
1759347773199946800,2.08194677734375,4.885667762756348,-8.061875540161132,-2.4377462028503416
1759347773210003700,2.092003662109375,5.223100559234619,-7.883058603668212,-2.2278046447753903
1759347773220060700,2.102060791015625,5.423166035461425,-7.829637979125976,-2.287510048675537
1759347773230117600,2.11211767578125,5.341463903808593,-7.793575316619872,-2.333897705841064
1759347773240174600,2.122174560546875,5.46461565170288,-7.727884408569335,-2.261473105621338
1759347773250232600,2.132232666015625,5.176263989257812,-7.735515926361083,-2.3401824851989743
1759347773260289800,2.142289794921875,5.221454545593262,-7.698106525421142,-2.2104466827392577
1759347773270346800,2.1523466796875,5.2162172294616695,-7.675511247253418,-2.1531354804992673
1759347773280403700,2.16240380859375,5.426906975555419,-7.811082916259765,-2.348113278198242
1759347773290461400,2.17246142578125,5.849483568572998,-8.060678439331054,-2.467673723602295
1759347773300518400,2.182518310546875,6.003011750030518,-8.106467546081543,-2.5291747787475582
1759347773310576400,2.192576416015625,5.728426747131348,-7.987804926300049,-2.800168479156494
1759347773320633300,2.20263330078125,5.680093801116943,-7.845349927520751,-2.8781296707153317
1759347773330690600,2.212690673828125,5.284302339172363,-7.652766331481933,-2.947112606048584
1759347773340747500,2.22274755859375,5.319018263244629,-7.526472193908691,-3.1076737548828124
1759347773350804500,2.232804443359375,5.5823804458618165,-7.574505864715576,-3.254767519378662
1759347773360862500,2.242862548828125,5.654805046081543,-7.572410938262939,-3.1350574363708494
1759347773370919400,2.25291943359375,5.562777919769287,-7.556250077056884,-3.320308789825439
1759347773380976400,2.262976318359375,5.824194813537598,-7.634809819030761,-3.3295863212585446
1759347773391033300,2.273033447265625,6.260388428497314,-7.5923127395629875,-3.254019331359863
1759347773401090600,2.283090576171875,6.241234815216064,-7.653215244293213,-3.385550785064697
1759347773411148500,2.2931484375,6.10985299911499,-7.677157260894775,-3.4549826332092284
1759347773421205500,2.30320556640625,6.009446166992187,-7.601590270996093,-3.450044592285156
1759347773431262500,2.313262451171875,6.2207344635009765,-7.38686030960083,-3.395277229309082
1759347773441319400,2.3233193359375,6.35870033416748,-7.221361119842529,-3.4006641830444333
1759347773451377700,2.333377685546875,6.400598863220215,-7.257573419952392,-3.480121750640869
1759347773461434600,2.3434345703125,6.5756748596191406,-7.145494854736327,-3.686322368621826
1759347773471491600,2.35349169921875,6.778882725524902,-7.052869178009033,-3.7671266746520993
1759347773481548500,2.363548583984375,6.9253779396057125,-6.975356899261474,-3.8920740737915036
1759347773491605500,2.37360546875,6.872555865478515,-6.933757645416259,-3.9401077445983885
1759347773501663500,2.38366357421875,6.687304512023926,-6.995408338165283,-4.073584487152099
1759347773511720400,2.393720458984375,6.593930647277832,-6.938695686340331,-4.011035968780518
1759347773521777700,2.403777587890625,6.458807891082763,-6.925677214813232,-4.024503353118896
1759347773531834600,2.413834716796875,6.459107166290283,-6.841431243896484,-4.162020310974121
1759347773541891600,2.4238916015625,6.247818869781494,-6.662763945007324,-4.196586597442627
1759347773551949600,2.433949462890625,6.073790336608886,-6.374113007354736,-3.95192911529541
1759347773562006500,2.444006591796875,6.008099428558349,-6.209810918426514,-3.8413469261169433
1759347773572063500,2.4540634765625,6.057180562591553,-6.018424423217773,-3.968538889312744
1759347773582120400,2.464120361328125,6.349871715545654,-6.028599780273437,-4.069095359039307
1759347773592178700,2.4741787109375,6.399701037597656,-6.3521162796020505,-4.026448641967773
1759347773602235600,2.484235595703125,6.36513475112915,-6.612336072540283,-4.00909067993164
1759347773612292600,2.494292724609375,6.432022760009765,-6.579715074920654,-3.9956232955932616
1759347773622349600,2.504349609375,6.500407144927978,-6.401945601654052,-3.990834892272949
1759347773632406500,2.514406494140625,6.571485006713867,-6.193350782012939,-3.9463925239562987
1759347773642464500,2.524464599609375,6.521356409454345,-6.049698682403564,-3.77954659576416
1759347773652521700,2.534521728515625,6.488885049438476,-5.957821193695068,-3.5787329315185543
1759347773662578700,2.54457861328125,6.439953553009032,-5.974580605316162,-3.4109891777038572
1759347773672635600,2.5546357421875,6.431573847198486,-6.0622682411193844,-3.277662072753906
1759347773682693400,2.564693359375,6.519261483001708,-6.026504853820801,-3.2109237014770504
1759347773692750300,2.574750244140625,6.607846944427489,-5.98221212310791,-3.210774063873291
1759347773702807600,2.5848076171875,6.670994013214111,-5.813570543670654,-3.2972645988464353
1759347773712864500,2.594864501953125,6.751947956848144,-5.756109703826904,-3.2332197044372557
1759347773722922500,2.604922607421875,6.859836669158935,-5.919214691925048,-3.2728736694335936
1759347773732979500,2.6149794921875,6.929567792510986,-6.170306591033935,-3.269432004547119
1759347773743036400,2.625036376953125,6.978948201751709,-6.379051048278808,-3.257161721038818
1759347773753093400,2.63509326171875,7.043292371368408,-6.520757859039306,-3.123236065673828
1759347773763151400,2.6451513671875,7.040598894500732,-6.552481031036376,-3.149123371124267
1759347773773208600,2.65520849609375,7.005882970428466,-6.428581095123291,-3.1747114013671873
1759347773783265500,2.665265625,6.931961994171142,-6.274903276062012,-3.1769559654235837
1759347773793322500,2.675322509765625,6.8785413696289055,-6.1270613235473625,-3.1221886024475096
1759347773803380500,2.68538037109375,6.889464914703368,-6.146364574432373,-3.0879215911865234
1759347773813437400,2.6954375,6.9588967628479,-6.288819573211669,-3.072209642791748
1759347773823494400,2.705494384765625,7.056310842895507,-6.41631081161499,-3.1452327934265134
1759347773833551400,2.71555126953125,7.145045941925049,-6.517016918945312,-3.1227871528625486
1759347773843609600,2.725609619140625,7.082796698760986,-6.540809297943115,-3.143137866973877
1759347773853666600,2.73566650390625,7.032668101501464,-6.497863305664062,-3.195810303497314
1759347773863723500,2.7457236328125,7.020846730804443,-6.289567761230469,-3.2609026611328122
1759347773873780500,2.755780517578125,7.070676052856445,-6.048950494384766,-3.322254078674316
1759347773883838500,2.76583837890625,7.025784771728516,-6.024858840179443,-3.336320013427734
1759347773893895700,2.775895751953125,6.97805037612915,-6.200832662200927,-3.3240497299194334
1759347773903952600,2.78595263671875,6.932111631774902,-6.389675318145752,-3.4509424179077146
1759347773914009600,2.796009521484375,6.9984010902404785,-6.408529656219482,-3.4913445709228514
1759347773924067600,2.806067626953125,7.004087319183349,-6.298695655059814,-3.6318542808532714
1759347773934124500,2.81612451171875,7.010970648956299,-6.088754096984863,-3.655497022247314
1759347773944181500,2.826181396484375,6.947673942565918,-5.849034655761718,-3.6831799789428707
1759347773954238500,2.836238525390625,6.900089184570312,-5.6574985229492185,-3.742436470031738
1759347773964296700,2.846296630859375,6.987477545166016,-5.56083263092041,-3.6604350631713864
1759347773974353700,2.856353759765625,7.028478248596191,-5.5638253829956055,-3.495384786224365
1759347773984410600,2.86641064453125,6.97790073852539,-5.711368060302734,-3.636493046569824
1759347773994467600,2.876467529296875,7.023689845275879,-5.783643022918701,-3.61359849319458
1759347774004525300,2.886525390625,6.997802539825439,-5.750722750091552,-3.7343560394287105
1759347774014582500,2.89658251953125,6.928520329284668,-5.596147105407715,-3.857507787322998
1759347774024639500,2.906639404296875,6.887818901062011,-5.356876576995849,-3.943699047088623
1759347774034696700,2.91669677734375,6.935852571868896,-5.135712198638916,-3.9586628074645995
1759347774044754400,2.92675439453125,6.987178269958496,-5.102193375396729,-3.8777088638305663
1759347774054811400,2.936811279296875,7.071424240875244,-5.114463658905029,-3.965097224426269
1759347774064868400,2.946868408203125,7.082048510742187,-4.978443077087402,-4.117428305053711
1759347774074926600,2.956926513671875,7.150881808471679,-4.88417138671875,-4.036324723815918
1759347774084983600,2.966983642578125,7.1686886833190915,-4.748898992919922,-4.014627271270752
1759347774095040500,2.97704052734375,7.153425647735595,-4.599710301971435,-3.926939635467529
1759347774105097500,2.987097412109375,7.0275804229736325,-4.605695806121826,-3.9076363845825193
1759347774115155500,2.997155517578125,7.034613390350342,-4.838232642364502,-3.9317280387878415
1759347774125212400,3.00721240234375,7.199514029693603,-5.115062209320068,-3.954472954559326
1759347774135269600,3.01726953125,7.307103466796875,-5.242104534912109,-3.9604584587097165
1759347774145327600,3.02732763671875,7.363816118621826,-5.24794040145874,-3.949983826446533
1759347774155384600,3.037384521484375,7.3012676002502435,-5.229534976196288,-4.044554792022705
1759347774165441500,3.047441650390625,7.283460725402832,-5.20948353729248,-4.220378976440429
1759347774175498500,3.05749853515625,7.231237201690673,-5.197213253784179,-4.375253896331787
1759347774185556500,3.067556396484375,7.154024198150634,-5.20349803314209,-4.396203160858154
1759347774195613700,3.07761376953125,7.117512622833251,-5.181351667785644,-4.323778560638427
1759347774205670700,3.087670654296875,7.068581126403808,-5.117606048583984,-4.289062636566162
1759347774215727600,3.0977275390625,7.058555406951904,-4.963778591918945,-4.204517390441894
1759347774225785600,3.10778564453125,7.024438033294677,-4.777330137634277,-4.04126276473999
1759347774235842600,3.117842529296875,6.994360874938964,-4.705803363037109,-3.9426515838623044
1759347774245899500,3.1278994140625,7.068880401611327,-4.715679444885254,-3.8907273353576657
1759347774255957500,3.13795751953125,7.097760459136962,-4.740519287109374,-3.9324762268066404
1759347774266014500,3.148014404296875,7.115268058776855,-4.855889879608154,-3.9330747772216794
1759347774276071400,3.158071533203125,7.209539749145508,-5.027973123931885,-3.8832454551696776
1759347774286128400,3.16812841796875,7.213430326843262,-5.105934315490722,-3.9290345619201656
1759347774296186000,3.17818603515625,7.20145931854248,-5.136909299468994,-3.8989574035644528
1759347774306243000,3.1882431640625,7.1686886833190915,-5.185990433502197,-3.9178117416381832
1759347774316300300,3.19830029296875,7.123198851776123,-5.130774157714844,-4.033032696533203
1759347774326358300,3.208358154296875,7.165247018432617,-5.203946945953369,-3.9873932273864745
1759347774336415200,3.218415283203125,7.321019763946532,-5.5461681457519525,-3.6893151206970214
1759347774346472200,3.22847216796875,7.434145792388915,-5.9132291877746574,-3.630657180023193
1759347774356530200,3.2385302734375,7.5080667686462395,-6.028599780273437,-3.7925650672912594
1759347774366587100,3.248587158203125,7.516446474456787,-5.884199492645263,-3.929333837127685
1759347774376644400,3.258644287109375,7.3100962188720695,-5.697601400756835,-3.9586628074645995
1759347774386701300,3.268701416015625,7.097311546325683,-5.578340230560302,-3.997718222045898
1759347774396759300,3.27875927734375,6.9618895149230955,-5.4601265235900875,-4.127902937316894
1759347774406816300,3.288816162109375,6.941688438415527,-5.361964255523682,-4.21394455947876
1759347774416873200,3.298873291015625,6.996006888580322,-5.308842906188964,-4.135833730316162
1759347774426931500,3.308931396484375,7.142502102661132,-5.3293432579040525,-4.018517848968505
1759347774436988400,3.318988525390625,7.231087564086914,-5.382913520050049,-4.013130895233154
1759347774447045400,3.32904541015625,7.177367664337158,-5.425709874725341,-4.028992481231689
1759347774457103400,3.339103271484375,7.119008998870849,-5.460874711608886,-4.04739790649414
1759347774467160300,3.349160400390625,7.100154660797119,-5.37573091506958,-3.930830213165283
1759347774477217300,3.35921728515625,6.9810431282043455,-5.315277323150634,-3.9969700340270995
1759347774487274200,3.369274169921875,7.04194563293457,-5.326649781036377,-4.081365642547607
1759347774497332200,3.379332275390625,7.034613390350342,-5.315277323150634,-4.132691340637207
1759347774507389200,3.38938916015625,7.1121256690979,-5.383362432861328,-4.140472496032714
1759347774517446400,3.3994462890625,7.120505374908447,-5.364208819580078,-4.094384114074707
1759347774527504100,3.409504150390625,7.193678163146973,-5.464017101287841,-4.042609503173828
1759347774537561000,3.41956103515625,7.24635059967041,-5.563077194976806,-4.010587055969238
1759347774547618300,3.429618408203125,7.292438981628417,-5.849184293365478,-3.8654385803222655
1759347774557676300,3.43967626953125,7.314734984588623,-5.929539686584472,-3.7761049308776853
1759347774567733200,3.449733154296875,7.124246315002441,-5.84170241317749,-3.7784991325378416
1759347774577790200,3.459790283203125,7.081449960327148,-5.742193406677246,-3.930680575561523
1759347774587848200,3.46984814453125,7.123797402191162,-5.567715960693359,-4.004152639007568
1759347774597905200,3.4799052734375,7.110330017852783,-5.355080925750732,-3.7343560394287105
1759347774607962400,3.48996240234375,7.099107197570801,-5.20918426208496,-3.6487633300781246
1759347774618020400,3.500020263671875,7.151031446075439,-5.256020832061767,-3.725826696014404
1759347774628077300,3.510077392578125,7.267599139404297,-5.406256986236572,-3.693953886413574
1759347774638134300,3.52013427734375,7.311143682098388,-5.3585225906372065,-3.642927463531494
1759347774648191200,3.530191162109375,7.467215702819824,-5.502025052642822,-3.864989667510986
1759347774658249500,3.54024951171875,7.456292157745361,-5.336675500488281,-3.7970541954040526
1759347774668306400,3.550306396484375,7.24021545791626,-5.157110375976562,-3.801992236328125
1759347774678363400,3.56036328125,7.1778165771484375,-4.939088387298583,-4.000262061309814
1759347774688421400,3.57042138671875,7.285406014251708,-4.78151999053955,-4.25225178604126
1759347774698478300,3.580478271484375,7.240963645935058,-4.599111751556396,-4.1115924385070795
1759347774708535300,3.590535400390625,7.055712292480468,-4.5021465843200685,-3.9778164207458495
1759347774718593300,3.60059326171875,6.979397114562988,-4.569782781219482,-4.211101445007324
1759347774728650200,3.610650146484375,7.047182949066162,-4.7370776222229,-4.249259033966064
1759347774738707200,3.620707275390625,7.097161908721923,-5.0471267372131345,-4.044854067230224
1759347774748765200,3.63076513671875,7.159710427093505,-5.377227291107177,-4.061912754058838
1759347774758822100,3.640822265625,7.199813304901123,-5.477035572814941,-3.892522986602783
1759347774768879000,3.650879150390625,7.179013677978515,-5.544372494506836,-3.761739720916748
1759347774778937300,3.660937255859375,7.143399928283691,-5.563975020599365,-3.7409400939941406
1759347774788994300,3.670994384765625,7.1495350700378415,-5.521029028320312,-3.771765440368652
1759347774799051300,3.68105126953125,7.1775173019409175,-5.556343502807617,-3.7318122001647946
1759347774809109200,3.691109130859375,7.20789373550415,-5.62472788772583,-3.6351463081359863
1759347774819166200,3.701166259765625,7.266252400970458,-5.612906517028808,-3.569455400085449
1759347774829223200,3.71122314453125,7.338677001190185,-5.483918902587891,-3.5728970649719236
1759347774839281400,3.721281494140625,7.352443660736084,-5.3287447074890135,-3.5423709938049313
1759347774849338400,3.73133837890625,7.306205641174316,-5.172523049163818,-3.5922003158569336
1759347774859395300,3.741395263671875,7.302015788269043,-5.086331789398193,-3.6557962974548337
1759347774869453300,3.751453369140625,7.305008540344238,-5.044283622741699,-3.74767378616333
1759347774879510300,3.76151025390625,7.340472652435302,-5.096357508850097,-3.833715408325195
1759347774889567500,3.7715673828125,7.340472652435302,-5.253028079986572,-3.793612530517578
1759347774899625200,3.781625244140625,7.278971597290039,-5.372438887786865,-3.775207105255127
1759347774909682200,3.79168212890625,7.2258502479553215,-5.400271482086182,-3.820996212005615
1759347774919739100,3.8017392578125,7.189637947845458,-5.401767858123779,-3.8208465744018554
1759347774929797000,3.811797119140625,7.112873857116699,-5.349394696807861,-3.824737152099609
1759347774939854300,3.821854248046875,7.0844427124023435,-5.307047254943847,-3.8295255554199215
1759347774949911300,3.831911376953125,7.082796698760986,-5.361814617919921,-3.844040402984619
1759347774959969300,3.84196923828125,7.115866609191894,-5.4153848800659175,-3.888782046508789
1759347774970026200,3.852026123046875,7.161805353546142,-5.390096125030517,-4.0732852119445795
1759347774980083200,3.862083251953125,7.191882511901855,-5.384260258483886,-4.1109938880920405
1759347774990141400,3.872141357421875,7.215974166107177,-5.41403814163208,-4.10485874633789
1759347775000198400,3.882198486328125,7.181557517242431,-5.417629444122314,-4.134636629486084
1759347775010255400,3.89225537109375,7.147440143585205,-5.4236149482727045,-4.102763819885253
1759347775020313300,3.902313232421875,7.162703179168701,-5.373785626220703,-4.106055847167968
1759347775030370300,3.912370361328125,7.142651740264892,-5.298517911529541,-4.084956945037842
1759347775040427300,3.92242724609375,7.147739418792725,-5.20963317489624,-4.089446073150635
1759347775050485200,3.9324853515625,7.14369920349121,-5.092317293548584,-4.056675437927246
1759347775060542500,3.94254248046875,7.122001750946045,-5.0179474044799806,-3.980060984802246
1759347775070599400,3.952599365234375,7.101501399230957,-5.041889421081542,-3.915716815185547
1759347775080657200,3.9626572265625,7.116465159606933,-5.129726694488525,-3.854215760040283
1759347775090714000,3.972714111328125,7.151629996490478,-5.261407785797119,-3.8564603240966795
1759347775100771000,3.98277099609375,7.144597029113769,-5.377975479125976,-3.866934956359863
1759347775110829300,3.992829345703125,7.16958650894165,-5.4321442916870115,-3.845237503814697
1759347775120886300,4.00288623046875,7.173626724243164,-5.4424692863464355,-3.851073370361328
1759347775130943200,4.012943115234375,7.224503509521484,-5.390545037841797,-3.893121537017822
1759347775141001200,4.023001220703125,7.270142978668212,-5.317072974395751,-3.829974468231201
1759347775151058200,4.03305810546875,7.322366502380371,-5.297919361114501,-3.7671266746520993
1759347775161115100,4.043115234375,7.338078450775146,-5.33068999633789,-3.778199857330322
1759347775171173400,4.05317333984375,7.3283520065307615,-5.325153404998779,-3.8177041847229
1759347775181230300,4.063230224609375,7.320271575927734,-5.314678772735595,-3.8673838691711424
1759347775191288300,4.073288330078125,7.312789695739745,-5.3028574020385735,-3.8147114326477047
1759347775201345300,4.08334521484375,7.277924134063721,-5.270984592437744,-3.7419875572204586
1759347775211402200,4.09340234375,7.259668346405029,-5.251980616760253,-3.716249889373779
1759347775221460200,4.103460205078125,7.325359254455566,-5.195567240142822,-3.731662562561035
1759347775231517400,4.113517333984375,7.357232064056396,-5.147683206939697,-3.690961134338379
1759347775241574400,4.123574462890625,7.336881349945068,-5.181800580596923,-3.671657883453369
1759347775251632000,4.133632080078125,7.316979548645019,-5.228487512969971,-3.681982878112793
1759347775261689000,4.143689208984375,7.302763976287841,-5.239859970855712,-3.6366426841735837
1759347775271746000,4.15374609375,7.297825935363769,-5.219060343933105,-3.7147535133361815
1759347775281804300,4.16380419921875,7.343914317321777,-5.181202030181884,-3.684825992584228
1759347775291861200,4.173861328125,7.289895142364501,-5.315127685546875,-3.7134067749023436
1759347775301918200,4.183918212890625,7.3265563552856445,-5.3095910942077635,-3.9035961692810055
1759347775311976400,4.1939765625,7.34825380783081,-5.247341851043701,-3.825335702514648
1759347775322033400,4.204033447265625,7.272836455535888,-5.238962145233154,-3.842693664550781
1759347775332091400,4.21409130859375,7.2249524223327635,-5.2730795188903805,-3.8777088638305663
1759347775342148400,4.2241484375,7.2343795913696285,-5.325452680206299,-3.8748657493591305
1759347775352205300,4.234205322265625,7.231386839294434,-5.331438184356689,-3.9012019676208496
1759347775362263300,4.24426318359375,7.224204234313964,-5.345803394317627,-3.943549409484863
1759347775372320500,4.254320556640625,7.216871991729736,-5.278765747833251,-3.9516298400878904
1759347775382377500,4.26437744140625,7.2063973594665525,-5.200206005859375,-3.946093248748779
1759347775392435200,4.274435302734375,7.21447779006958,-5.178508553314209,-3.9285856491088866
1759347775402492200,4.2844921875,7.18275461807251,-5.227589687347412,-3.9228994201660154
1759347775412549400,4.29454931640625,7.191134323883056,-5.3095910942077635,-3.9324762268066404
1759347775422607400,4.304607421875,7.221211482238769,-5.340117165374756,-3.950582376861572
1759347775432664300,4.314664306640625,7.263409286499023,-5.322609565734863,-3.980659535217285
1759347775442722300,4.324722412109375,7.314884622192382,-5.269787491607666,-3.9829040992736813
1759347775452779300,4.334779296875,7.300369774627685,-5.214571215820312,-3.9728783798217773
1759347775462836200,4.344836181640625,7.323114690399169,-5.178658190917968,-3.9824551864624023
1759347775472894500,4.35489453125,7.289895142364501,-5.189282460784912,-3.931578401184082
1759347775482951400,4.364951416015625,7.244854223632812,-5.250334603118896,-3.877259951019287
1759347775493008400,4.37500830078125,7.20774409790039,-5.284302339172363,-3.820996212005615
1759347775503066400,4.38506640625,7.1954738143920896,-5.327547606658936,-3.7734114540100094
1759347775513123300,4.395123291015625,7.17632020111084,-5.328894345092773,-3.785232824707031
1759347775523180300,4.40518017578125,7.21432815246582,-5.338920064544677,-3.7855320999145508
1759347775533238500,4.415238525390625,7.264307112121582,-5.331438184356689,-3.8400001876831054
1759347775543295500,4.42529541015625,7.259967621612549,-5.3490954216003415,-3.8896798721313472
1759347775553353200,4.435353271484375,7.250390814971923,-5.312284571075439,-3.8818987167358396
1759347775563410200,4.44541015625,7.282562899780273,-5.288641829681396,-3.8578070625305174
1759347775573467100,4.455467041015625,7.296479196929932,-5.278765747833251,-3.8251860649108886
1759347775583525400,4.465525390625,7.266252400970458,-5.270236404418945,-3.793612530517578
1759347775593582300,4.475582275390625,7.3085998428344725,-5.286995816040038,-3.803338974761963
1759347775603639300,4.485639404296875,7.4314523155212395,-5.370343961334228,-3.8329672203063962
1759347775613697300,4.495697265625,7.465270413970947,-5.376329465484619,-3.9709330909729004
1759347775623754200,4.505754150390625,7.357980252075195,-5.347000495147705,-3.9906852546691893
1759347775633812500,4.5158125,7.256525956726073,-5.2922331321716305,-3.855412860870361
1759347775643869400,4.525869384765625,7.108833641815185,-5.102193375396729,-3.6545991966247557
1759347775653926400,4.535926513671875,7.065438736724853,-5.148431394958496,-3.5329438247680662
1759347775663984400,4.545984375,7.060051782989501,-5.224297660064697,-3.566911560821533
1759347775674041300,4.556041259765625,7.146542317962646,-5.289240380096436,-3.74123936920166
1759347775684098300,4.566098388671875,7.298424485778808,-5.312134933471679,-3.8193501983642575
1759347775694156300,4.57615625,7.419481307220458,-5.306897617340088,-3.8694787956237793
1759347775704213500,4.586213623046875,7.426514274597167,-5.28011248626709,-3.9044939949035644
1759347775714271200,4.596271240234375,7.315632810211182,-5.239560695648193,-3.8922237113952636
1759347775724328200,4.606328125,7.174524549865723,-5.214720853424072,-3.8480806182861325
1759347775734385200,4.61638525390625,7.177966214752197,-5.243600910949707,-3.791816879272461
1759347775744443400,4.626443359375,7.234828504180908,-5.325003767395019,-3.7672763122558592
1759347775754500400,4.636500244140625,7.315034259796142,-5.411793577575684,-3.8467338798522945
1759347775764557300,4.646557373046875,7.359177352905273,-5.395782353973388,-3.9395091941833495
1759347775774615300,4.656615234375,7.375338214111328,-5.307496167755127,-3.929483474731445
1759347775784672300,4.66667236328125,7.334636785888671,-5.2067900604248045,-3.9031472564697265
1759347775794730500,4.67673046875,7.222707858276367,-5.162347692108154,-3.871872997283935
1759347775804787500,4.686787353515625,7.16330172958374,-5.157409651184082,-3.8531682968139647
1759347775814844400,4.696844482421875,7.1422028274536125,-5.205443321990966,-3.788225576782226
1759347775824902400,4.70690234375,7.130531094360351,-5.270984592437744,-3.782688985443115
1759347775834959400,4.71695947265625,7.147739418792725,-5.2919338569641114,-3.765480661010742
1759347775845016300,4.727016357421875,7.176469838714599,-5.35657730178833,-3.6988919273376464
1759347775855074300,4.73707421875,7.200262217712402,-5.378424391937256,-3.8358103347778316
1759347775865131300,4.74713134765625,7.286453477478027,-5.257217932891845,-3.9565678810119627
1759347775875189200,4.757189208984375,7.302614338684082,-5.372289250183105,-3.8685809700012204
1759347775885246200,4.76724609375,7.343764679718017,-5.350292522430419,-4.011035968780518
1759347775895303200,4.77730322265625,7.358578802490234,-5.297320810699462,-3.8271313537597655
1759347775905361400,4.787361328125,7.279420510101318,-5.250783515930175,-3.834313958740234
1759347775915418400,4.79741845703125,7.184101356506347,-5.275772995758056,-3.8893805969238278
1759347775925476400,4.807476318359375,7.126640516662597,-5.27981321105957,-3.9104794990539546
1759347775935533300,4.817533203125,7.13726478652954,-5.288342554473877,-3.864989667510986
1759347775945590300,4.82759033203125,7.193378887939453,-5.3116860206604,-3.7783494949340817
1759347775955648500,4.8376484375,7.20759446029663,-5.307346530151367,-3.7653310234069823
1759347775965705500,4.84770556640625,7.247697338104247,-5.366303746032714,-3.7114614860534667
1759347775975763200,4.85776318359375,7.2714897171020505,-5.466560940551758,-3.727921622467041
1759347775985820400,4.8678203125,7.323862878417969,-5.5921068901062005,-3.784634274291992
1759347775995877400,4.87787744140625,7.439233470916748,-5.650465555572509,-3.790470140838623
1759347776005935400,4.887935302734375,7.405415372467041,-5.537788439941406,-3.8697780708312988
1759347776015992300,4.897992431640625,7.1303814567565915,-5.234173741912842,-3.966593600463867
1759347776026049300,4.90804931640625,6.820481979370117,-5.061940859985351,-3.9386113685607906
1759347776036107300,4.918107177734375,6.98433515548706,-4.912303256225585,-3.723133219146728
1759347776046164200,4.928164306640625,7.538443202209472,-4.841973582458496,-3.717147714996338
1759347776056222200,4.93822216796875,7.784148147583007,-4.916493109130859,-3.859303438568115
1759347776066279400,4.948279541015625,7.636006919860839,-5.050568402099609,-3.7653310234069823
1759347776076336400,4.95833642578125,7.372195824432373,-5.132120896148681,-3.695150987243652
1759347776086394400,4.968394287109375,7.35438894958496,-5.2073886108398435,-3.731662562561035
