time,seconds_elapsed,z,y,x
1759335460213301500,0.175301513671875,0.0035888333804905415,0.022907447069883347,0.01970040425658226
1759335460243329000,0.2053291015625,0.0035888333804905415,0.022907447069883347,0.01970040425658226
1759335460253329000,0.215328857421875,0.0035888333804905415,0.022907447069883347,0.01970040425658226
1759335460263329000,0.2253291015625,-0.019624045118689537,-0.009468411095440388,-0.0780380368232727
1759335460273329000,0.235328857421875,-0.010461067780852318,-0.016798794269561768,-0.08597928285598755
1759335460283324700,0.24532470703125,-0.00007635815563844517,-0.02229658141732216,-0.0731511116027832
1759335460293324500,0.255324462890625,-0.0006872233934700489,-0.013744467869400978,-0.020005837082862854
1759335460303324700,0.26532470703125,-0.00557414535433054,-0.010079276748001575,0.01114829070866108
1759335460313324500,0.275324462890625,-0.00618501054123044,-0.007635815534740686,0.02886338345706463
1759335460323324700,0.28532470703125,-0.006795875728130341,-0.017409659922122955,0.030695978552103043
1759335460333324500,0.295324462890625,-0.007406740915030241,-0.019853120669722557,0.021532999351620674
1759335460343324700,0.30532470703125,-0.006795875728130341,-0.012522737495601177,0.010537425056099892
1759335460353324500,0.315324462890625,-0.008017606101930141,-0.008857546374201775,0.00015271631127689034
1759335460363324700,0.32532470703125,-0.0037415495608001947,-0.01618792861700058,-0.022449297830462456
1759335460373324500,0.335324462890625,-0.0012980886967852712,-0.014966198243200779,-0.016340645030140877
1759335460383324700,0.34532470703125,-0.002519819187000394,-0.012522737495601177,-0.015118914656341076
1759335460393324500,0.355324462890625,-0.004352414980530739,-0.011301007121801376,-0.016340645030140877
1759335460403324700,0.36532470703125,-0.007406740915030241,0.008857546374201775,-0.02122756652534008
1759335460413324500,0.375324462890625,-0.004963280167430639,0.01618792861700058,-0.028557950630784035
1759335460423324700,0.38532470703125,-0.00007635815563844517,0.02474004216492176,-0.031612277030944824
1759335460433324500,0.395324462890625,-0.004352414980530739,0.007635815534740686,-0.04749477282166481
1759335460443324700,0.40532470703125,0.0011453722836449742,-0.01618792861700058,-0.04932736977934837
1759335460453324500,0.415324462890625,0.008475755341351032,-0.01863138936460018,-0.02977968007326126
1759335460463324700,0.42532470703125,0.012140946462750435,-0.021074850112199783,-0.022449297830462456
1759335460473324500,0.435324462890625,0.015806138515472412,0.0039706239476799965,-0.004734205547720194
1759335460483323600,0.44532373046875,0.010308351367712021,0.02779436856508255,0.01237002108246088
1759335460493323800,0.45532373046875,0.002367102773860097,0.02168571576476097,0.014202617108821869
1759335460503323600,0.46532373046875,0.0029779679607599974,0.007024950347840786,0.021532999351620674
1759335460513323800,0.47532373046875,0.0005345070967450738,0.010079276748001575,0.017867809161543846
1759335460523323600,0.48532373046875,-0.008017606101930141,0.005803219974040985,0.011759156361222267
1759335460533323800,0.49532373046875,-0.012293662875890732,-0.004581489134579897,0.01114829070866108
1759335460543323600,0.50532373046875,-0.008017606101930141,-0.014355333521962166,0.0007635815418325365
1759335460553323500,0.515323486328125,-0.0006872233934700489,-0.005192354787141085,0.0025961773935705423
1759335460563323600,0.52532373046875,-0.0012980886967852712,-0.010690141469240189,-0.0029016099870204926
1759335460573323500,0.535323486328125,-0.0031306843739002943,-0.03451388701796532,-0.012675453908741474
1759335460583324400,0.545324462890625,-0.0006872233934700489,-0.04306599870324135,-0.0022907445672899485
1759335460593324500,0.555324462890625,0.004810563754290342,-0.04489859566092491,-0.009010262787342072
1759335460603324400,0.565324462890625,0.007254024967551231,-0.020463986322283745,-0.011453723534941673
1759335460613324500,0.575324462890625,0.004199698567390442,0.025961773470044136,-0.013286318629980087
1759335460623324400,0.585324462890625,-0.010461067780852318,0.043676864355802536,-0.03527746722102165
1759335460633324500,0.595324462890625,-0.017791450023651123,-0.013744467869400978,-0.04932736977934837
1759335460643325000,0.605324951171875,-0.0019089538836851716,-0.0503963828086853,-0.054825156927108765
1759335460653324800,0.61532470703125,0.014584408141672611,-0.04795292019844055,-0.04138612002134323
1759335460663325000,0.625324951171875,0.015806138515472412,-0.04184427112340927,-0.03039054572582245
1759335460673324800,0.63532470703125,0.006643159314990044,-0.029626963660120964,-0.034666601568460464
1759335460683324000,0.645323974609375,-0.0006872233934700489,-0.015577063895761967,-0.03527746722102165
1759335460693324000,0.655323974609375,0.0017562375869601965,0.017409659922122955,-0.02428189292550087
1759335460703324000,0.665323974609375,-0.0019089538836851716,0.03390302136540413,-0.01878410577774048
1759335460713324000,0.675323974609375,-0.007406740915030241,0.018020525574684143,-0.001679879380390048
1759335460723324000,0.685323974609375,-0.008017606101930141,0.001527163083665073,0.02580905705690384
1759335460733324000,0.695323974609375,-0.004352414980530739,-0.018020525574684143,0.04841107130050659
1759335460743324000,0.705323974609375,-0.007406740915030241,-0.049785517156124115,0.05513058975338936
1759335460753324000,0.715323974609375,0.004199698567390442,-0.07483099400997162,0.03130684420466423
1759335460763324000,0.725323974609375,0.009086620062589645,-0.055283304303884506,0.017867809161543846
1759335460773324000,0.735323974609375,0.008475755341351032,-0.040622539818286896,-0.009621127508580685
1759335460783324700,0.74532470703125,0.006032294128090143,-0.030237829312682152,-0.02428189292550087
1759335460793324800,0.75532470703125,0.009086620062589645,-0.03145955875515938,-0.029168816283345222
1759335460803324700,0.76532470703125,0.012140946462750435,-0.03940080851316452,-0.027947084978222847
1759335460813324800,0.77532470703125,0.012751812115311623,-0.025961773470044136,-0.0065668015740811825
1759335460823324700,0.78532470703125,0.011530081741511822,-0.02229658141732216,0.0032070425804704428
1759335460833324800,0.79532470703125,0.006032294128090143,-0.013744467869400978,0.010537425056099892
1759335460843324700,0.80532470703125,-0.0012980886967852712,0.001527163083665073,0.027641652151942253
1759335460853324800,0.81532470703125,-0.007406740915030241,0.02168571576476097,0.038026362657547
1759335460863324700,0.82532470703125,-0.015347989276051521,0.008857546374201775,0.039248090237379074
1759335460873324800,0.83532470703125,-0.011682798154652119,0.003359758760780096,0.03680463135242462
1759335460883324200,0.84532421875,-0.009239336475729942,-0.001527163083665073,0.027030786499381065
1759335460893324300,0.85532421875,-0.0031306843739002943,0.007635815534740686,0.01970040425658226
1759335460903324200,0.86532421875,-0.0012980886967852712,0.01618792861700058,-0.0022907445672899485
1759335460913324300,0.87532421875,-0.0006872233934700489,0.01863138936460018,-0.015118914656341076
1759335460923324200,0.88532421875,0.002367102773860097,0.02229658141732216,-0.021838432177901268
1759335460933324300,0.89532421875,0.004810563754290342,0.01191187184303999,-0.02367102913558483
1759335460943324000,0.905323974609375,0.007864889688789845,-0.009468411095440388,-0.01572977937757969
1759335460953323800,0.91532373046875,0.013362676836550236,-0.030237829312682152,0.0013744467869400978
1759335460963324000,0.925323974609375,0.012751812115311623,-0.04795292019844055,0.018478672951459885
1759335460973323800,0.93532373046875,0.007864889688789845,-0.05100724846124649,0.0429132841527462
1759335460983324700,0.94532470703125,-0.004963280167430639,-0.049785517156124115,0.039248090237379074
1759335460993324800,0.95532470703125,-0.007406740915030241,-0.03756821155548096,0.036193765699863434
1759335461003324700,0.96532470703125,-0.009239336475729942,-0.029626963660120964,0.022143865004181862
1759335461013324800,0.97532470703125,-0.008017606101930141,-0.024129176512360573,0.012980886735022068
1759335461023324700,0.98532470703125,-0.012293662875890732,-0.010079276748001575,0.020311269909143448
1759335461033324800,0.99532470703125,-0.013515393249690533,0.017409659922122955,0.024587325751781464
1759335461043324700,1.00532470703125,-0.007406740915030241,0.04306599870324135,0.01970040425658226
1759335461053324800,1.01532470703125,-0.0006872233934700489,0.06688974797725677,0.005650503560900688
1759335461063324700,1.02532470703125,0.002367102773860097,0.06200282275676727,-0.020005837082862854
1759335461073324800,1.03532470703125,0.004810563754290342,0.05772676691412926,-0.0328340083360672
1759335461083324000,1.045323974609375,0.0029779679607599974,0.052228979766368866,-0.02672535367310047
1759335461093323800,1.05532373046875,-0.009239336475729942,0.010079276748001575,-0.007788531947880983
1759335461103324000,1.065323974609375,-0.00985020212829113,-0.01863138936460018,0.021532999351620674
1759335461113323800,1.07532373046875,-0.008017606101930141,-0.020463986322283745,0.04108068719506264
1759335461123324000,1.085323974609375,-0.0037415495608001947,-0.002138028386980295,0.06001751124858856
1759335461133323800,1.09532373046875,0.0005345070967450738,0.014966198243200779,0.056352317333221436
1759335461143324000,1.105323974609375,0.006643159314990044,0.021074850112199783,0.04535674303770065
1759335461153323800,1.11532373046875,0.015195272862911224,0.024129176512360573,0.03191770985722542
1759335461163324000,1.125323974609375,0.01702786795794964,0.025961773470044136,0.021532999351620674
1759335461173323800,1.13532373046875,0.010919216088950634,0.017409659922122955,0.01970040425658226
1759335461183324400,1.145324462890625,0.006032294128090143,-0.007024950347840786,0.02275473065674305
1759335461193324500,1.155324462890625,0.010308351367712021,-0.02779436856508255,0.02580905705690384
1759335461203324400,1.165324462890625,0.004810563754290342,-0.029016099870204926,0.0019853119738399982
1759335461213324500,1.175324462890625,0.007864889688789845,-0.0039706239476799965,-0.011453723534941673
1759335461223324400,1.185324462890625,0.013973542489111423,0.030237829312682152,-0.026114489883184433
1759335461233324500,1.195324462890625,0.012140946462750435,0.040622539818286896,-0.03222314268350601
1759335461243324400,1.205324462890625,0.004810563754290342,0.02168571576476097,-0.03222314268350601
1759335461253324500,1.215324462890625,-0.0006872233934700489,-0.008857546374201775,-0.02122756652534008
1759335461263324400,1.225324462890625,-0.0031306843739002943,-0.043676864355802536,0.0007635815418325365
1759335461273324500,1.235324462890625,-0.0037415495608001947,-0.04612032696604729,0.029474247246980667
1759335461283323600,1.24532373046875,-0.002519819187000394,-0.01618792861700058,0.06123924255371094
1759335461293323500,1.255323486328125,-0.002519819187000394,0.02779436856508255,0.07712173461914062
1759335461303323600,1.26532373046875,-0.0037415495608001947,0.05772676691412926,0.07223481684923172
1759335461313323500,1.275323486328125,0.0011453722836449742,0.06505715101957321,0.04596760869026184
1759335461323323600,1.28532373046875,0.006643159314990044,0.043676864355802536,-0.013897184282541275
1759335461333323300,1.2953232421875,0.007864889688789845,0.013744467869400978,-0.046273041516542435
1759335461343323100,1.3053232421875,0.006032294128090143,0.014966198243200779,-0.06948592513799667
1759335461353323300,1.3153232421875,-0.002519819187000394,0.013744467869400978,-0.08292495459318161
1759335461363323100,1.3253232421875,-0.0031306843739002943,0.007024950347840786,-0.08597928285598755
1759335461373323300,1.3353232421875,-0.00007635815563844517,-0.021074850112199783,-0.08170322328805923
1759335461383324200,1.34532421875,0.004199698567390442,-0.032681290060281754,-0.06154467165470123
1759335461393324000,1.355323974609375,0.0005345070967450738,-0.01191187184303999,-0.031001411378383636
1759335461403324200,1.36532421875,0.0005345070967450738,0.010690141469240189,0.0074830991216003895
1759335461413324000,1.375323974609375,0.0035888333804905415,0.01863138936460018,0.041691552847623825
1759335461423324200,1.38532421875,0.0005345070967450738,0.005803219974040985,0.0630718395113945
1759335461433324000,1.395323974609375,-0.0019089538836851716,-0.032681290060281754,0.058184914290905
1759335461443324200,1.40532421875,0.0005345070967450738,-0.038179077208042145,0.047189339995384216
1759335461453324000,1.415323974609375,0.0011453722836449742,-0.03084869496524334,0.02519819140434265
1759335461463324200,1.42532421875,0.0011453722836449742,-0.01191187184303999,-0.001679879380390048
1759335461473324000,1.435323974609375,-0.0012980886967852712,0.02535090781748295,-0.02733621932566166
1759335461483323100,1.4453232421875,-0.00557414535433054,0.06383541971445084,-0.05726861581206322
1759335461493323300,1.4553232421875,-0.006795875728130341,0.0705549344420433,-0.0835358202457428
1759335461503323100,1.4653232421875,-0.00557414535433054,0.05955936014652252,-0.09269879758358002
1759335461513323300,1.4753232421875,-0.007406740915030241,0.052839845418930054,-0.0780380368232727
1759335461523323100,1.4853232421875,-0.00862847175449133,0.032070424407720566,-0.03527746722102165
1759335461533323300,1.4953232421875,-0.00862847175449133,0.0064140851609408855,0.018478672951459885
1759335461543323100,1.5053232421875,-0.00618501054123044,-0.024129176512360573,0.06368270516395569
1759335461553322800,1.51532275390625,-0.0006872233934700489,-0.043676864355802536,0.09972374886274338
1759335461563323100,1.5253232421875,0.004199698567390442,-0.020463986322283745,0.098502017557621
1759335461573323300,1.5353232421875,0.008475755341351032,0.005803219974040985,0.08017606288194656
1759335461583324200,1.54532421875,0.008475755341351032,0.021074850112199783,0.050854530185461044
1759335461593324000,1.555323974609375,0.0035888333804905415,0.012522737495601177,0.02580905705690384
1759335461603324200,1.56532421875,0.0017562375869601965,0.028405234217643738,0.023365596309304237
1759335461613324000,1.575323974609375,-0.0037415495608001947,0.03390302136540413,0.021532999351620674
1759335461623324200,1.58532421875,-0.00618501054123044,0.032070424407720566,0.014813481830060482
1759335461633324500,1.595324462890625,-0.00618501054123044,0.022907447069883347,0.006872233934700489
1759335461643324700,1.60532470703125,-0.00618501054123044,0.018020525574684143,-0.009010262787342072
1759335461653324500,1.615324462890625,-0.006795875728130341,0.01863138936460018,-0.01817324012517929
1759335461666475500,1.6284755859375,-0.006795875728130341,0.022907447069883347,-0.010231993161141872
1759335461676475600,1.6384755859375,-0.0037415495608001947,0.024129176512360573,0.006261368747800589
1759335461686474800,1.648474853515625,0.0035888333804905415,0.02474004216492176,0.02519819140434265
1759335461696475000,1.658474853515625,0.009086620062589645,0.007024950347840786,0.03497203439474106
1759335461706474800,1.668474853515625,0.013362676836550236,0.009468411095440388,0.04841107130050659
1759335461716475000,1.678474853515625,0.010308351367712021,0.023518312722444534,0.04841107130050659
1759335461726474800,1.688474853515625,0.0011453722836449742,0.03756821155548096,0.02825251780450344
1759335461736475000,1.698474853515625,-0.006795875728130341,0.06017022579908371,0.006261368747800589
1759335461746474800,1.708474853515625,-0.012293662875890732,0.07788532227277756,-0.020005837082862854
1759335461756475000,1.718474853515625,-0.009239336475729942,0.055283304303884506,-0.04260785132646561
1759335461766474800,1.728474853515625,0.0035888333804905415,0.02229658141732216,-0.051770828664302826
1759335461776475000,1.738474853515625,0.010919216088950634,0.003359758760780096,-0.04688390716910362
1759335461786475500,1.7484755859375,0.006032294128090143,-0.027183502912521362,-0.034666601568460464
1759335461796475600,1.7584755859375,0.007254024967551231,-0.04734205827116966,-0.023060163483023643
1759335461806475500,1.7684755859375,0.006643159314990044,-0.040622539818286896,-0.004123340360820293
1759335461816475600,1.7784755859375,-0.0006872233934700489,-0.019853120669722557,0.00931569468230009
1759335461826475500,1.7884755859375,-0.004352414980530739,0.0039706239476799965,0.01725694350898266
1759335461836475600,1.7984755859375,-0.007406740915030241,0.022907447069883347,0.027030786499381065
1759335461846475500,1.8084755859375,-0.00618501054123044,0.03329215571284294,0.03130684420466423
1759335461856476200,1.81847607421875,-0.004352414980530739,0.029626963660120964,0.02825251780450344
1759335461866475500,1.8284755859375,-0.0037415495608001947,0.019853120669722557,0.022143865004181862
1759335461876475600,1.8384755859375,-0.0037415495608001947,-0.003359758760780096,0.00931569468230009
1759335461886474800,1.848474853515625,-0.00007635815563844517,-0.021074850112199783,-0.007177666760981083
1759335461896474600,1.858474609375,-0.0037415495608001947,-0.02168571576476097,-0.020616702735424042
1759335461906474800,1.868474853515625,-0.0031306843739002943,-0.007635815534740686,-0.024892758578062057
1759335461916474600,1.878474609375,-0.002519819187000394,0.0003054326225537807,-0.01817324012517929
1759335461926474800,1.888474853515625,-0.0031306843739002943,-0.001527163083665073,-0.008399397134780884
1759335461936474600,1.898474609375,0.0035888333804905415,0.002138028386980295,0.00015271631127689034
1759335461946474800,1.908474853515625,0.007254024967551231,-0.0027488935738801956,0.014202617108821869
1759335461956474600,1.918474609375,0.007864889688789845,-0.018020525574684143,0.01970040425658226
1759335461966474800,1.928474853515625,0.010919216088950634,-0.022907447069883347,0.01542434748262167
1759335461976474600,1.938474609375,0.009697485715150833,-0.022907447069883347,0.009926560334861279
1759335461986475500,1.9484755859375,0.004199698567390442,-0.025961773470044136,-0.008399397134780884
1759335461996475400,1.958475341796875,0.0035888333804905415,-0.015577063895761967,-0.017562376335263252
1759335462006475500,1.9684755859375,0.0035888333804905415,0.003359758760780096,-0.025503624230623245
1759335462016475400,1.978475341796875,-0.0019089538836851716,0.022907447069883347,-0.02672535367310047
1759335462026475500,1.9884755859375,-0.004963280167430639,0.03390302136540413,-0.020005837082862854
1759335462036475400,1.998475341796875,-0.0031306843739002943,0.032070424407720566,-0.008399397134780884
1759335462046475500,2.0084755859375,0.0005345070967450738,0.016798794269561768,0.0013744467869400978
1759335462056475400,2.018475341796875,0.002367102773860097,-0.007635815534740686,0.00931569468230009
1759335462066475500,2.0284755859375,0.010308351367712021,-0.018020525574684143,0.014202617108821869
1759335462076475400,2.038475341796875,0.013973542489111423,-0.014966198243200779,0.022143865004181862
1759335462086474800,2.048474853515625,0.010308351367712021,-0.017409659922122955,0.021532999351620674
1759335462096474600,2.058474609375,0.004810563754290342,-0.013133603148162365,0.01664607785642147
1759335462106474800,2.068474853515625,0.0035888333804905415,-0.0009162978967651725,0.010537425056099892
1759335462116474600,2.078474609375,0.004810563754290342,0.007024950347840786,-0.001679879380390048
1759335462126474800,2.088474853515625,-0.0006872233934700489,-0.0003054326225537807,-0.02672535367310047
1759335462136474600,2.098474609375,-0.006795875728130341,-0.014355333521962166,-0.04382958263158798
1759335462146474800,2.108474853515625,-0.007406740915030241,-0.02535090781748295,-0.04993823543190956
1759335462156474600,2.118474609375,-0.002519819187000394,-0.013133603148162365,-0.03955352306365967
1759335462166474500,2.128474609375,0.0011453722836449742,-0.008857546374201775,-0.011453723534941673
1759335462176474600,2.138474609375,0.0035888333804905415,-0.008857546374201775,0.020311269909143448
1759335462186475500,2.1484755859375,0.0011453722836449742,-0.005192354787141085,0.04535674303770065
1759335462196475400,2.158475341796875,-0.002519819187000394,0.005192354787141085,0.06123924255371094
1759335462206475500,2.1684755859375,-0.002519819187000394,0.0027488935738801956,0.041691552847623825
1759335462216475400,2.178475341796875,0.0029779679607599974,-0.0009162978967651725,0.01114829070866108
1759335462226475500,2.1884755859375,0.0035888333804905415,0.007635815534740686,-0.020005837082862854
1759335462236475400,2.198475341796875,-0.0031306843739002943,0.012522737495601177,-0.04932736977934837
1759335462256475600,2.2184755859375,-0.00862847175449133,0.010690141469240189,-0.05849034711718559
1759335462266475500,2.2284755859375,-0.0019089538836851716,-0.010079276748001575,-0.048716504126787186
1759335462276475600,2.2384755859375,0.007254024967551231,-0.016798794269561768,-0.03527746722102165
1759335462286474800,2.248474853515625,0.011530081741511822,-0.005803219974040985,0.0007635815418325365
1759335462296474600,2.258474609375,0.007254024967551231,-0.011301007121801376,0.02519819140434265
1759335462306474800,2.268474853515625,0.0011453722836449742,-0.02229658141732216,0.041691552847623825
1759335462316474600,2.278474609375,-0.0019089538836851716,-0.01618792861700058,0.05268712714314461
1759335462326474800,2.288474853515625,-0.0031306843739002943,0.009468411095440388,0.0630718395113945
1759335462336474600,2.298474609375,-0.00618501054123044,0.024129176512360573,0.053297992795705795
1759335462346474800,2.308474853515625,-0.00985020212829113,0.027183502912521362,0.03375030308961868
1759335462356474600,2.318474609375,-0.00618501054123044,0.024129176512360573,0.004428773187100887
1759335462366474800,2.328474853515625,-0.00007635815563844517,0.013133603148162365,-0.013897184282541275
1759335462376474600,2.338474609375,0.004810563754290342,-0.005192354787141085,-0.022449297830462456
1759335462386475500,2.3484755859375,0.008475755341351032,-0.017409659922122955,-0.031612277030944824
1759335462396475600,2.3584755859375,0.004199698567390442,-0.03695734590291977,-0.0328340083360672
1759335462406475500,2.3684755859375,0.0029779679607599974,-0.038179077208042145,-0.009010262787342072
1759335462416475600,2.3784755859375,-0.00007635815563844517,-0.038179077208042145,-0.003512475173920393
1759335462426475500,2.3884755859375,-0.00007635815563844517,-0.017409659922122955,0.016035212203860283
1759335462436475600,2.3984755859375,-0.0006872233934700489,-0.003359758760780096,0.027030786499381065
1759335462446475500,2.4084755859375,0.0017562375869601965,-0.0009162978967651725,0.009926560334861279
1759335462456475600,2.4184755859375,0.0029779679607599974,0.013744467869400978,0.011759156361222267
1759335462466475500,2.4284755859375,0.0029779679607599974,0.0027488935738801956,-0.005955935921519995
1759335462476475600,2.4384755859375,0.006643159314990044,0.003359758760780096,-0.00045814894838258624
1759335462486474800,2.448474853515625,0.007254024967551231,0.004581489134579897,0.0025961773935705423
1759335462496474600,2.458474609375,0.002367102773860097,-0.005803219974040985,-0.00045814894838258624
1759335462506474800,2.468474853515625,0.0017562375869601965,-0.005803219974040985,0.0025961773935705423
1759335462516474600,2.478474609375,0.0011453722836449742,0.0003054326225537807,-0.009621127508580685
1759335462526474800,2.488474853515625,-0.0006872233934700489,0.008246680721640587,-0.023060163483023643
1759335462536474600,2.498474609375,-0.004352414980530739,0.011301007121801376,-0.03405573591589928
1759335462546474500,2.508474609375,-0.0037415495608001947,0.013744467869400978,-0.03405573591589928
1759335462556474600,2.518474609375,0.004810563754290342,0.0064140851609408855,-0.027947084978222847
1759335462566474500,2.528474609375,0.013973542489111423,-0.010690141469240189,-0.007788531947880983
1759335462576474600,2.538474609375,0.013973542489111423,-0.032070424407720566,0.0025961773935705423
1759335462586475500,2.5484755859375,0.017638733610510826,-0.03573561832308769,0.03130684420466423
1759335462596475400,2.558475341796875,0.011530081741511822,-0.03940080851316452,0.02825251780450344
1759335462606475500,2.5684755859375,0.007254024967551231,-0.03390302136540413,0.020922135561704636
1759335462616475400,2.578475341796875,0.0011453722836449742,-0.013133603148162365,0.009926560334861279
1759335462626475500,2.5884755859375,-0.010461067780852318,-0.003359758760780096,-0.020005837082862854
1759335462636475600,2.5984755859375,-0.01412625890225172,0.005192354787141085,-0.04688390716910362
1759335462646475500,2.6084755859375,-0.007406740915030241,-0.005192354787141085,-0.07009678333997726
1759335462656475600,2.6184755859375,0.0011453722836449742,-0.05467243865132332,-0.08903361111879349
1759335462666475500,2.6284755859375,0.013362676836550236,-0.1108720451593399,-0.09269879758358002
1759335462676475600,2.6384755859375,0.026801712810993195,-0.1371392458677292,-0.07987063378095627
1759335462686474800,2.648474853515625,0.035353824496269226,-0.1310305893421173,-0.06276640295982361
1759335462696474600,2.658474609375,0.03962988406419754,-0.09315694868564606,-0.020616702735424042
1759335462706474800,2.668474853515625,0.046960264444351196,-0.06261368840932846,-0.00045814894838258624
1759335462716474600,2.678474609375,0.04024074971675873,-0.014355333521962166,0.004428773187100887
1759335462726474800,2.688474853515625,0.04024074971675873,0.04306599870324135,-0.0029016099870204926
1759335462736474600,2.698474609375,0.043905939906835556,0.09437867999076843,-0.03222314268350601
1759335462746474800,2.708474853515625,0.03901901841163635,0.1212567538022995,-0.07437284290790558
1759335462756474600,2.718474609375,0.03352123126387596,0.11209376901388168,-0.14034628868103027
1759335462766474800,2.728474853515625,0.0365755558013916,0.076052725315094,-0.204487144947052
1759335462776474600,2.738474609375,0.03107776865363121,-0.0003054326225537807,-0.2710714638233185
1759335462786475500,2.7484755859375,0.02252565510571003,-0.09193521738052368,-0.3168863356113434
1759335462796475400,2.758475341796875,0.013362676836550236,-0.1817324161529541,-0.34437528252601624
1759335462806475500,2.7684755859375,-0.002519819187000394,-0.24342979490756989,-0.33887749910354614
1759335462816475400,2.778475341796875,-0.03550654277205467,-0.3124575614929199,-0.3052799105644226
1759335462826475500,2.7884755859375,-0.04161519557237625,-0.2874121069908142,-0.25763240456581116
1759335462836475400,2.798475341796875,-0.0391717329621315,-0.22021691501140594,-0.21365012228488922
1759335462846475500,2.8084755859375,-0.01595885492861271,-0.1212567538022995,-0.18860463798046112
1759335462856475400,2.818475341796875,0.011530081741511822,0.007635815534740686,-0.15806138515472412
1759335462866475500,2.8284755859375,0.02496911771595478,0.1463022232055664,-0.15195272862911224
1759335462876475400,2.838475341796875,0.043905939906835556,0.26969701051712036,-0.15256360173225403
1759335462886474800,2.848474853515625,0.06650795042514801,0.33567044138908386,-0.16844609379768372
1759335462896474600,2.858474609375,0.08544477820396423,0.3222314119338989,-0.20754146575927734
1759335462906474800,2.868474853515625,0.09949467331171036,0.2519819140434265,-0.2356412708759308
1759335462916474600,2.878474609375,0.10010553896427155,0.1621847152709961,-0.2515237629413605
1759335462926474800,2.888474853515625,0.07750352472066879,0.0607810914516449,-0.22098049521446228
1759335462936474600,2.898474609375,0.03779728710651398,0.08032877743244171,-0.1647808998823166
1759335462946474800,2.908474853515625,-0.020845776423811913,0.19089539349079132,-0.11102475970983505
1759335462956474600,2.918474609375,-0.09109527617692947,0.33628132939338684,-0.07376197725534439
1759335462966474800,2.928474853515625,-0.15829046070575714,0.4499022662639618,-0.06643159687519073
1759335462976474600,2.938474609375,-0.2114357352256775,0.45784351229667664,-0.09392052888870239
1759335462986475500,2.9484755859375,-0.2511419653892517,0.3491095006465912,-0.16661348938941956
1759335462996475600,2.9584755859375,-0.2859613001346588,0.1621847152709961,-0.3449861407279968
1759335463006475500,2.9684755859375,-0.2914590835571289,-0.0913243517279625,-0.6113234162330627
1759335463016475600,2.9784755859375,-0.2560288906097412,-0.38637226819992065,-0.8739954233169556
1759335463026475500,2.9884755859375,-0.1753946840763092,-0.6325509548187256,-1.0645854473114014
1759335463036475600,2.9984755859375,-0.09170614182949066,-0.7870998978614807,-1.1537717580795288
1759335463046475500,3.0084755859375,0.07078400999307632,-0.9929614663124084,-1.0877982378005981
1759335463056475600,3.0184755859375,0.18135061860084534,-1.1340713500976562,-0.879493236541748
1759335463066475500,3.0284755859375,0.24549147486686707,-1.061989188194275,-0.5166392922401428
1759335463076475600,3.0384755859375,0.22655464708805084,-0.7816020846366882,-0.052381694316864014
1759335463086474800,3.048474853515625,0.13125966489315033,-0.3344487249851227,0.39965859055519104
1759335463096475000,3.058474853515625,-0.03061962127685547,0.17379115521907806,0.7392996549606323
1759335463106474800,3.068474853515625,-0.20227275788784027,0.46150869131088257,0.9024006724357605
1759335463116475000,3.078474853515625,-0.29023733735084534,0.6117815375328064,0.9280570149421692
1759335463126474800,3.088474853515625,-0.2853504419326782,0.6362161636352539,0.8462010622024536
1759335463136475000,3.098474853515625,-0.2205987125635147,0.5152648091316223,0.6598871946334839
1759335463146474800,3.108474853515625,-0.13874277472496033,0.28496864438056946,0.4216497242450714
1759335463156475000,3.118474853515625,-0.0037415495608001947,-0.14508049190044403,0.04841107130050659
1759335463166474800,3.128474853515625,0.0872773751616478,-0.3326161205768585,-0.1495092660188675
1759335463176475000,3.138474853515625,0.13920091092586517,-0.3833179473876953,-0.26801711320877075
1759335463196475600,3.1584755859375,0.11537717282772064,-0.2330450862646103,-0.30405816435813904
1759335463206475500,3.1684755859375,0.07750352472066879,-0.013744467869400978,-0.3107776939868927
1759335463216475600,3.1784755859375,0.005421428941190243,0.16462817788124084,-0.32788193225860596
1759335463236475600,3.1984755859375,-0.10819950699806213,0.318566232919693,-0.3150537610054016
1759335463246475500,3.2084755859375,-0.15645785629749298,0.4205807149410248,-0.28328874707221985
1759335463256475600,3.2184755859375,-0.2010510265827179,0.4889976382255554,-0.26190847158432007
1759335463266475500,3.2284755859375,-0.2157117873430252,0.46150869131088257,-0.2557998299598694
1759335463276475600,3.2384755859375,-0.19433151185512543,0.31673362851142883,-0.2050980031490326
1759335463286474800,3.248474853515625,-0.17783814668655396,0.21533000469207764,-0.12507465481758118
1759335463296475000,3.258474853515625,-0.15218180418014526,0.14446963369846344,0.013591751456260681
1759335463306474800,3.268474853515625,-0.0996473953127861,0.14019356667995453,0.19135354459285736
1759335463316475000,3.278474853515625,-0.04589125141501427,0.17379115521907806,0.4008803069591522
1759335463326474800,3.288474853515625,-0.004963280167430639,0.22632557153701782,0.6012440919876099
1759335463336475000,3.298474853515625,0.02557998150587082,0.26969701051712036,0.7484626173973083
1759335463356475000,3.318474853515625,0.06101016700267792,0.29046642780303955,0.8382598161697388
1759335463366474800,3.328474853515625,0.0671188160777092,0.2220495194196701,0.7704538106918335
1759335463376475000,3.338474853515625,0.05490151420235634,0.11209376901388168,0.6843217611312866
1759335463386475500,3.3484755859375,0.02252565510571003,-0.02779436856508255,0.5401576161384583
1759335463396475600,3.3584755859375,-0.0037415495608001947,-0.06688974797725677,0.4534147381782532
1759335463406475500,3.3684755859375,-0.04528038576245308,-0.04489859566092491,0.3904955983161926
1759335463416475600,3.3784755859375,-0.09537133574485779,0.05467243865132332,0.361174076795578
1759335463426475500,3.3884755859375,-0.14362968504428864,0.1408044397830963,0.37339138984680176
1759335463436475600,3.3984755859375,-0.18822285532951355,0.1615738570690155,0.4259257912635803
1759335463446474800,3.408474853515625,-0.22487476468086243,0.16462817788124084,0.5322163701057434
1759335463456474600,3.418474609375,-0.24869851768016815,0.11881329119205475,0.651945948600769
1759335463466474800,3.428474853515625,-0.25908321142196655,0.05406157299876213,0.7667886018753052
1759335463476474600,3.438474609375,-0.2609158158302307,-0.023518312722444534,0.8578075170516968
1759335463486473700,3.4484736328125,-0.2621375620365143,-0.09987647086381912,0.8956811428070068
1759335463496473900,3.458473876953125,-0.2554180324077606,-0.14996741712093353,0.9103419184684753
1759335463506473700,3.4684736328125,-0.23831380903720856,-0.24526239931583405,0.9109528064727783
1759335463516473900,3.478473876953125,-0.22243130207061768,-0.29046642780303955,0.9671524167060852
1759335463526473700,3.4884736328125,-0.21265746653079987,-0.3173444867134094,1.0642799139022827
1759335463536473900,3.498473876953125,-0.21265746653079987,-0.31612277030944824,1.1571314334869385
1759335463546473700,3.5084736328125,-0.21326832473278046,-0.2770273983478546,1.2286027669906616
1759335463556473900,3.518473876953125,-0.20899227261543274,-0.23854288458824158,1.2622003555297852
1759335463566473700,3.5284736328125,-0.20410534739494324,-0.22449298202991486,1.2420417070388794
1759335463576473900,3.538473876953125,-0.18455766141414642,-0.23609942197799683,1.1882855892181396
1759335463586474800,3.548474853515625,-0.14179709553718567,-0.256868839263916,1.0752755403518677
1759335463596474600,3.558474609375,-0.08254316449165344,-0.2587014436721802,0.9305005073547363
1759335463606474800,3.568474853515625,-0.02695442922413349,-0.2672535479068756,0.7869471311569214
1759335463616474600,3.578474609375,0.038408152759075165,-0.31612277030944824,0.5884159207344055
1759335463626474800,3.588474853515625,0.0671188160777092,-0.3338378667831421,0.4967861473560333
1759335463636474600,3.598474609375,0.09521862119436264,-0.327729195356369,0.4479169547557831
1759335463646474800,3.608474853515625,0.12087496370077133,-0.29657506942749023,0.44852781295776367
1759335463656474600,3.618474609375,0.1324813961982727,-0.22937989234924316,0.49617528915405273
1759335463666474800,3.628474853515625,0.1269836127758026,-0.1316414624452591,0.5682573914527893
1759335463676474600,3.638474609375,0.11293371021747589,-0.04856378585100174,0.6348416805267334
1759335463686473700,3.6484736328125,0.10315986722707748,-0.0009162978967651725,0.6855435371398926
1759335463696473900,3.658473876953125,0.10315986722707748,-0.0039706239476799965,0.6666067242622375
1759335463706473700,3.6684736328125,0.09888381510972977,-0.04001167416572571,0.6085745096206665
1759335463716473900,3.678473876953125,0.09338602423667908,-0.11636982858181,0.5090034604072571
1759335463726473700,3.6884736328125,0.0817795842885971,-0.18417587876319885,0.35934147238731384
1759335463736473900,3.698473876953125,0.06039930135011673,-0.19394971430301666,0.25671613216400146
1759335463746474800,3.708474853515625,0.029856039211153984,-0.16401731967926025,0.168751522898674
1759335463756474600,3.718474609375,-0.002519819187000394,-0.09010262042284012,0.09728029370307922
1759335463766474800,3.728474853515625,-0.03367394581437111,-0.018020525574684143,0.022143865004181862
1759335463776474600,3.738474609375,-0.07276932150125504,0.03390302136540413,-0.06520986557006836
1759335463786475500,3.7484755859375,-0.15645785629749298,0.06750060617923737,-0.13057245314121246
1759335463796475600,3.7584755859375,-0.23770293593406677,0.16951510310173035,-0.15683965384960175
1759335463806475500,3.7684755859375,-0.2413681298494339,0.23976461589336395,-0.16172657907009125
1759335463816475600,3.7784755859375,-0.2053270787000656,0.2269364446401596,-0.11102475970983505
1759335463826475500,3.7884755859375,-0.17234036326408386,0.17379115521907806,-0.04688390716910362
1759335463836475600,3.7984755859375,-0.1497383415699005,0.12003502249717712,0.018478672951459885
1759335463846474800,3.808474853515625,-0.1308015137910843,0.013133603148162365,0.044135015457868576
1759335463856474600,3.818474609375,-0.1253037303686142,-0.019853120669722557,0.023976460099220276
1759335463866474800,3.828474853515625,-0.12774719297885895,-0.021074850112199783,-0.008399397134780884
1759335463876474600,3.838474609375,-0.13141238689422607,-0.05955936014652252,-0.08170322328805923
1759335463886473700,3.8484736328125,-0.12713633477687836,-0.13469578325748444,-0.16661348938941956
1759335463896473900,3.858473876953125,-0.11797334998846054,-0.20494529604911804,-0.25763240456581116
1759335463906473700,3.8684736328125,-0.09659306704998016,-0.19822576642036438,-0.32849279046058655
1759335463916473900,3.878473876953125,-0.07215845584869385,-0.1469130963087082,-0.3627012372016907
1759335463926473700,3.8884736328125,-0.046502117067575455,-0.09682214260101318,-0.3761402666568756
1759335463936473900,3.898473876953125,-0.025732697919011116,-0.049785517156124115,-0.365755558013916
1759335463946473700,3.9084736328125,-0.014737123623490334,-0.016798794269561768,-0.3358231782913208
1759335463956473900,3.918473876953125,-0.011071932502090931,0.04306599870324135,-0.2747366428375244
1759335463966473700,3.9284736328125,-0.01290452852845192,0.08338310569524765,-0.21914790570735931
1759335463976473900,3.938473876953125,-0.016569720581173897,0.08643743395805359,-0.18310685455799103
1759335463986474500,3.948474609375,-0.017180584371089935,0.08399397134780884,-0.14584407210350037
1759335463996474600,3.958474609375,-0.00557414535433054,0.06933320313692093,-0.10491610318422318
1759335464016474600,3.978474609375,0.03107776865363121,0.027183502912521362,-0.016340645030140877
1759335464026474500,3.988474609375,0.04268420860171318,0.044287730008363724,0.01725694350898266
1759335464036474600,3.998474609375,0.04573853686451912,0.044287730008363724,0.021532999351620674
1759335464046474200,4.00847412109375,0.046960264444351196,-0.005192354787141085,0.02886338345706463
1759335464056474400,4.018474365234375,0.05367978289723396,-0.08643743395805359,0.021532999351620674
1759335464066474200,4.02847412109375,0.055512379854917526,-0.14385876059532166,-0.003512475173920393
1759335464076474400,4.038474365234375,0.08361218124628067,-0.1212567538022995,-0.003512475173920393
1759335464086473500,4.048473388671875,0.08666650950908661,-0.06750060617923737,-0.009010262787342072
1759335464096473300,4.058473388671875,0.0768926590681076,-0.0064140851609408855,-0.007788531947880983
1759335464106473500,4.068473388671875,0.05490151420235634,0.010079276748001575,-0.04138612002134323
1759335464116473300,4.078473388671875,0.044516805559396744,-0.014355333521962166,-0.08109235763549805
1759335464126473500,4.088473388671875,0.04207334294915199,-0.10415252298116684,-0.1036943718791008
1759335464136473300,4.098473388671875,0.044516805559396744,-0.16401731967926025,-0.11163562536239624
1759335464146474200,4.10847412109375,0.03779728710651398,-0.18478673696517944,-0.0835358202457428
1759335464156474400,4.118474365234375,0.02252565510571003,-0.18600846827030182,-0.04199698567390442
1759335464166474200,4.12847412109375,0.004199698567390442,-0.16340644657611847,0.006872233934700489
1759335464176474400,4.138474365234375,-0.00985020212829113,-0.10537425428628922,0.0685696229338646
1759335464186475000,4.14847509765625,-0.02451096847653389,0.013133603148162365,0.12110403180122375
1759335464196475100,4.15847509765625,-0.025732697919011116,0.076052725315094,0.15103642642498016
1759335464206475300,4.168475341796875,-0.028176158666610718,0.11759155988693237,0.15714508295059204
1759335464216475100,4.17847509765625,-0.032452214509248734,0.1420261710882187,0.1235474944114685
1759335464226475300,4.188475341796875,-0.04161519557237625,0.1511891484260559,0.06490442901849747
1759335464246475300,4.208475341796875,-0.06666067242622375,0.07360926270484924,-0.10613783448934555
1759335464256475100,4.21847509765625,-0.06360634416341782,0.046731192618608475,-0.15745051205158234
1759335464266475300,4.228475341796875,-0.05322163552045822,0.01618792861700058,-0.18066339194774628
1759335464276475100,4.23847509765625,-0.0391717329621315,-0.044287730008363724,-0.16233743727207184
1759335464286474200,4.24847412109375,-0.020845776423811913,-0.10415252298116684,-0.11224649101495743
1759335464306474200,4.26847412109375,-0.0006872233934700489,-0.15974126756191254,0.04963280260562897
1759335464316474400,4.278474365234375,-0.008017606101930141,-0.09376781433820724,0.08078692853450775
1759335464326474200,4.28847412109375,-0.02451096847653389,-0.04306599870324135,0.06734789162874222
1759335464336474400,4.298474365234375,-0.041004329919815063,-0.04917465150356293,0.017867809161543846
1759335464346474800,4.308474853515625,-0.05688682571053505,-0.04856378585100174,-0.05604688450694084
1759335464356474600,4.318474609375,-0.0697149932384491,0.002138028386980295,-0.1085812970995903
1759335464366474800,4.328474853515625,-0.08071056753396988,0.041233405470848083,-0.154396191239357
1759335464376474600,4.338474609375,-0.08315403014421463,0.044287730008363724,-0.16661348938941956
1759335464386475500,4.3484755859375,-0.08193229883909225,0.02535090781748295,-0.1385136991739273
1759335464396475600,4.3584755859375,-0.08865182101726532,-0.004581489134579897,-0.08292495459318161
1759335464406475500,4.3684755859375,-0.09292787313461304,-0.019853120669722557,-0.007788531947880983
1759335464416475600,4.3784755859375,-0.09903652966022491,-0.0455094613134861,0.08384125679731369
1759335464426475500,4.3884755859375,-0.10025826096534729,-0.07849618047475815,0.10705413669347763
1759335464436475600,4.3984755859375,-0.09659306704998016,-0.1371392458677292,0.09789115190505981
1759335464446475500,4.4084755859375,-0.08804095536470413,-0.19333885610103607,0.07101308554410934
1759335464456475600,4.4184755859375,-0.08620835840702057,-0.2116648107767105,0.04657847434282303
1759335464466475500,4.4284755859375,-0.11369729042053223,-0.25076019763946533,0.00931569468230009
1759335464476475600,4.4384755859375,-0.12224940955638885,-0.30024027824401855,-0.003512475173920393
1759335464486474800,4.448474853515625,-0.1295797973871231,-0.26053401827812195,0.00931569468230009
1759335464496474600,4.458474609375,-0.13141238689422607,-0.20005837082862854,0.04902193695306778
1759335464506474800,4.468474853515625,-0.14301882684230804,-0.1719585657119751,0.06490442901849747
1759335464516474600,4.478474609375,-0.15706872940063477,-0.17623461782932281,0.07284568250179291
1759335464526474800,4.488474853515625,-0.15829046070575714,-0.19578230381011963,0.06490442901849747
1759335464536474600,4.498474609375,-0.12652546167373657,-0.20005837082862854,0.022143865004181862
1759335464546474500,4.508474609375,-0.09353873878717422,-0.1719585657119751,-0.017562376335263252
1759335464556474600,4.518474609375,-0.07154759019613266,-0.13286319375038147,-0.07742717117071152
1759335464566474500,4.528474609375,-0.055054228752851486,-0.10903944820165634,-0.14523321390151978
1759335464576474600,4.538474609375,-0.04772384837269783,-0.12308934330940247,-0.21181751787662506
1759335464586475500,4.5484755859375,-0.04589125141501427,-0.13225232064723969,-0.24785856902599335
1759335464596475400,4.558475341796875,-0.046502117067575455,-0.1621847152709961,-0.2496911734342575
1759335464606475500,4.5684755859375,-0.049556441605091095,-0.17012597620487213,-0.23625212907791138
1759335464616475400,4.578475341796875,-0.049556441605091095,-0.1560760736465454,-0.19593502581119537
1759335464626475500,4.5884755859375,-0.051999904215335846,-0.13897185027599335,-0.15622878074645996
1759335464636475400,4.598475341796875,-0.051999904215335846,-0.12431107461452484,-0.1238529309630394
1759335464646475300,4.608475341796875,-0.052610769867897034,-0.10965031385421753,-0.06887505948543549
1759335464656475100,4.61847509765625,-0.06177374720573425,-0.08155050873756409,-0.04260785132646561
1759335464666475300,4.628475341796875,-0.07582364976406097,-0.04001167416572571,-0.031612277030944824
1759335464676475100,4.63847509765625,-0.08804095536470413,-0.010079276748001575,-0.03833179548382759
1759335464686474200,4.64847412109375,-0.0849866271018982,0.003359758760780096,-0.046273041516542435
1759335464696474400,4.658474365234375,-0.06543894112110138,0.022907447069883347,-0.05115996301174164
1759335464706474200,4.66847412109375,-0.04283692687749863,0.076052725315094,-0.040164388716220856
1759335464716474400,4.678474365234375,-0.028787024319171906,0.13897185027599335,-0.01878410577774048
1759335464726474200,4.68847412109375,-0.01412625890225172,0.24587325751781464,0.0025961773935705423
1759335464736474400,4.698474365234375,-0.01290452852845192,0.3588833212852478,-0.014508049935102463
1759335464746474200,4.70847412109375,-0.04161519557237625,0.4101960062980652,-0.007788531947880983
1759335464756474400,4.718474365234375,-0.037950001657009125,0.06444628536701202,-0.16722436249256134
1759335464776474400,4.738474365234375,0.06039930135011673,-0.1518000066280365,-0.2356412708759308
1759335464786475300,4.748475341796875,0.0188604649156332,-0.15363261103630066,-0.1440114825963974
1759335464796475100,4.75847509765625,-0.058108557015657425,-0.03695734590291977,0.014813481830060482
1759335464806475300,4.768475341796875,-0.13324497640132904,0.0607810914516449,0.1498146951198578
1759335464816475100,4.77847509765625,-0.15645785629749298,0.11881329119205475,0.21090123057365417
1759335464826475300,4.788475341796875,-0.1356884390115738,0.12919799983501434,0.18768835067749023
1759335464836475100,4.79847509765625,-0.09231700748205185,0.06933320313692093,0.11133018881082535
1759335464846475300,4.808475341796875,-0.034895677119493484,-0.015577063895761967,0.020922135561704636
1759335464856475100,4.81847509765625,0.020082194358110428,-0.029626963660120964,-0.03527746722102165
1759335464866475300,4.828475341796875,0.046960264444351196,0.008857546374201775,-0.04138612002134323
1759335464886474200,4.84847412109375,0.03718642145395279,0.03756821155548096,-0.03649919852614403
1759335464896474400,4.858474365234375,0.04268420860171318,0.05161811411380768,-0.020005837082862854
1759335464906474200,4.86847412109375,0.04879286140203476,0.0503963828086853,-0.010842857882380486
1759335464916474400,4.878474365234375,0.04879286140203476,0.04001167416572571,-0.009621127508580685
1759335464926474200,4.88847412109375,0.043905939906835556,0.030237829312682152,-0.010842857882380486
1759335464936474400,4.898474365234375,0.0365755558013916,-0.005192354787141085,-0.029168816283345222
1759335464946474800,4.908474853515625,0.029245173558592796,-0.03451388701796532,-0.05054909735918045
1759335464956474600,4.918474609375,0.02863430790603161,-0.01863138936460018,-0.04566217586398125
1759335464966474800,4.928474853515625,0.026801712810993195,0.032681290060281754,-0.020616702735424042
1759335464976474600,4.938474609375,0.011530081741511822,0.08032877743244171,0.005039638374000788
1759335464986475500,4.9484755859375,-0.01840231567621231,0.07666359096765518,0.004428773187100887
1759335464996475400,4.958475341796875,-0.016569720581173897,0.035124752670526505,-0.0029016099870204926
1759335465006475500,4.9684755859375,0.010308351367712021,0.014966198243200779,0.017867809161543846
1759335465016475400,4.978475341796875,0.035964690148830414,0.008857546374201775,0.04657847434282303
1759335465026475500,4.9884755859375,0.03779728710651398,0.014966198243200779,0.07590000331401825
1759335465036475400,4.998475341796875,0.02252565510571003,0.0064140851609408855,0.07528914511203766
1759335465046475500,5.0084755859375,0.012751812115311623,-0.01924225501716137,0.053297992795705795
1759335465056475400,5.018475341796875,0.018249599263072014,-0.04001167416572571,0.03130684420466423
1759335465066475500,5.0284755859375,0.03718642145395279,-0.032681290060281754,0.02580905705690384
1759335465076475400,5.038475341796875,0.04940372705459595,0.007024950347840786,0.022143865004181862
1759335465086474800,5.048474853515625,0.03962988406419754,0.04795292019844055,0.00931569468230009
1759335465096474600,5.058474609375,0.02802344225347042,0.07788532227277756,-0.013897184282541275
1759335465106474800,5.068474853515625,0.015195272862911224,0.08277224004268646,-0.03039054572582245
1759335465116474600,5.078474609375,0.013973542489111423,0.05161811411380768,-0.03405573591589928
1759335465126474800,5.088474853515625,0.0164170041680336,0.0009162978967651725,-0.011453723534941673
1759335465136474600,5.098474609375,0.024358252063393593,0.0027488935738801956,0.04535674303770065
1759335465146474500,5.108474609375,0.02557998150587082,0.05650503560900688,0.11133018881082535
1759335465156474600,5.118474609375,0.017638733610510826,0.12492194026708603,0.15042556822299957
1759335465166474500,5.128474609375,0.014584408141672611,0.197004035115242,0.1736384481191635
1759335465176474600,5.138474609375,0.0188604649156332,0.22999076545238495,0.16691893339157104
1759335465196475400,5.158475341796875,0.04634939879179001,0.1963931769132614,0.08384125679731369
1759335465206475500,5.1684755859375,0.05978843569755554,0.19883663952350616,0.06123924255371094
1759335465216475400,5.178475341796875,0.09033169597387314,0.1420261710882187,0.055741455405950546
1759335465226475500,5.1884755859375,0.09827294945716858,0.043676864355802536,0.06979135423898697
1759335465236475400,5.198475341796875,0.09521862119436264,-0.019853120669722557,0.10399980843067169
1759335465246475500,5.2084755859375,0.06650795042514801,-0.007635815534740686,0.1437060534954071
1759335465256475600,5.2184755859375,0.024358252063393593,0.026572637259960175,0.15714508295059204
1759335465266475500,5.2284755859375,-0.00557414535433054,0.08460483700037003,0.1589776873588562
1759335465276475600,5.2384755859375,-0.023289237171411514,0.12858712673187256,0.13820825517177582
1759335465286474800,5.248474853515625,-0.020234910771250725,0.1371392458677292,0.11071932315826416
1759335465296474600,5.258474609375,-0.004352414980530739,0.12919799983501434,0.098502017557621
1759335465306474800,5.268474853515625,0.004199698567390442,0.14508049190044403,0.09911288321018219
1759335465316474600,5.278474609375,0.005421428941190243,0.13469578325748444,0.12599095702171326
1759335465326474800,5.288474853515625,0.01702786795794964,0.09743300825357437,0.15103642642498016
1759335465336474600,5.298474609375,0.04634939879179001,0.0503963828086853,0.18096883594989777
1759335465346474800,5.308474853515625,0.06345362961292267,0.0039706239476799965,0.18341228365898132
1759335465356474600,5.318474609375,0.07322747260332108,-0.021074850112199783,0.1797471046447754
1759335465366474800,5.328474853515625,0.06772968173027039,0.018020525574684143,0.1797471046447754
1759335465376474600,5.338474609375,0.05123632401227951,0.09743300825357437,0.16569720208644867
1759335465386475500,5.3484755859375,0.0365755558013916,0.2727513313293457,0.13271047174930573
1759335465396475600,5.3584755859375,0.015806138515472412,0.318566232919693,0.044135015457868576
1759335465406475500,5.3684755859375,0.009086620062589645,0.10842858254909515,-0.07620543986558914
1759335465416475600,5.3784755859375,0.04207334294915199,0.03695734590291977,-0.16172657907009125
1759335465426475500,5.3884755859375,0.07383833825588226,-0.0064140851609408855,-0.17699819803237915
1759335465436475600,5.3984755859375,0.06345362961292267,-0.10903944820165634,-0.15622878074645996
1759335465446475500,5.4084755859375,-0.03000875562429428,-0.12247848510742188,-0.0682641938328743
