seconds_elapsed,acc_z,acc_y,acc_x,grav_z,grav_y,grav_x,gyro_z,gyro_y,gyro_x
0.0800,0.1708,-0.1528,0.0311,9.2578,3.1901,-0.5353,0.0316,0.0011,-0.0188
0.0900,0.1656,-0.1479,0.0433,9.2582,3.1890,-0.5346,0.0316,0.0011,-0.0188
0.1000,0.1604,-0.1430,0.0556,9.2586,3.1879,-0.5339,0.0316,0.0011,-0.0188
0.1100,0.1099,-0.1325,0.1061,9.2597,3.1851,-0.5322,0.0035,-0.0095,-0.0469
0.1200,0.0010,-0.1292,0.1663,9.2609,3.1818,-0.5311,-0.0126,-0.0079,-0.0638
0.1300,-0.0748,-0.1074,0.1721,9.2633,3.1752,-0.5296,-0.0132,0.0094,-0.0575
0.1400,-0.1269,-0.0737,0.1454,9.2658,3.1678,-0.5285,-0.0093,0.0371,-0.0495
0.1500,-0.1712,-0.0812,0.1296,9.2679,3.1618,-0.5294,-0.0059,0.0532,-0.0422
0.1600,-0.2215,-0.0832,0.1134,9.2695,3.1566,-0.5324,-0.0022,0.0585,-0.0310
0.1700,-0.2609,-0.0832,0.0939,9.2706,3.1526,-0.5360,0.0005,0.0662,-0.0072
0.1800,-0.2399,-0.1067,0.0421,9.2711,3.1505,-0.5401,-0.0002,0.0613,0.0181
0.1900,-0.2083,-0.1024,-0.0147,9.2706,3.1510,-0.5448,-0.0016,0.0446,0.0417
0.2000,-0.1577,-0.0836,-0.0261,9.2695,3.1537,-0.5485,-0.0004,0.0241,0.0521
0.2100,-0.0675,-0.0743,-0.0326,9.2679,3.1581,-0.5508,0.0009,-0.0022,0.0468
0.2200,-0.0373,-0.0610,-0.0141,9.2664,3.1623,-0.5510,-0.0026,-0.0272,0.0297
0.2300,-0.0515,-0.0329,0.0142,9.2655,3.1653,-0.5489,-0.0130,-0.0309,0.0061
0.2400,-0.0458,-0.0307,0.0599,9.2654,3.1663,-0.5459,-0.0258,-0.0191,-0.0235
0.2500,-0.0169,-0.0595,0.0924,9.2660,3.1648,-0.5441,-0.0386,0.0017,-0.0495
0.2600,0.0343,-0.0831,0.0902,9.2675,3.1604,-0.5443,-0.0478,0.0182,-0.0642
0.2700,0.0315,-0.0633,0.0797,9.2694,3.1543,-0.5466,-0.0519,0.0310,-0.0742
0.2800,0.0094,-0.0322,0.0561,9.2717,3.1471,-0.5501,-0.0494,0.0451,-0.0725
0.2900,0.0582,-0.0176,0.0129,9.2739,3.1396,-0.5547,-0.0429,0.0516,-0.0648
0.3000,0.0754,0.0051,-0.0015,9.2758,3.1329,-0.5603,-0.0356,0.0569,-0.0544
0.3100,0.0818,0.0100,-0.0142,9.2774,3.1272,-0.5660,-0.0291,0.0615,-0.0416
0.3200,0.1222,0.0145,-0.0822,9.2786,3.1227,-0.5722,-0.0258,0.0542,-0.0359
0.3300,0.1564,0.0333,-0.1273,9.2794,3.1191,-0.5782,-0.0232,0.0402,-0.0312
0.3400,0.1796,0.0389,-0.1560,9.2802,3.1158,-0.5831,-0.0213,0.0133,-0.0316
0.3500,0.1732,0.0483,-0.1147,9.2810,3.1129,-0.5860,-0.0197,-0.0262,-0.0410
0.3600,0.1233,0.0518,-0.0608,9.2822,3.1093,-0.5856,-0.0207,-0.0588,-0.0479
0.3700,0.0705,0.0594,-0.0192,9.2839,3.1049,-0.5817,-0.0252,-0.0651,-0.0554
0.3800,0.0151,0.0516,0.0441,9.2859,3.1000,-0.5764,-0.0352,-0.0543,-0.0683
0.3900,-0.0359,0.0360,0.0764,9.2882,3.0940,-0.5720,-0.0462,-0.0395,-0.0772
0.4000,-0.0480,0.0223,0.0912,9.2907,3.0869,-0.5693,-0.0541,-0.0221,-0.0768
0.4100,-0.0608,0.0368,0.1029,9.2932,3.0797,-0.5682,-0.0555,-0.0042,-0.0679
0.4200,-0.0239,0.0681,0.0988,9.2953,3.0731,-0.5688,-0.0515,0.0017,-0.0624
0.4300,0.0111,0.0553,0.0859,9.2971,3.0675,-0.5703,-0.0472,-0.0020,-0.0538
0.4400,0.0327,0.0276,0.0485,9.2986,3.0626,-0.5713,-0.0484,-0.0132,-0.0512
0.4500,0.0480,0.0215,0.0415,9.3001,3.0582,-0.5715,-0.0533,-0.0232,-0.0501
0.4600,0.0465,0.0292,0.0416,9.3016,3.0538,-0.5707,-0.0572,-0.0258,-0.0526
0.4700,0.0505,0.0313,0.0644,9.3031,3.0492,-0.5696,-0.0574,-0.0246,-0.0493
0.4800,0.0090,0.0200,0.1200,9.3047,3.0446,-0.5685,-0.0570,-0.0256,-0.0420
0.4900,-0.0530,-0.0040,0.1619,9.3061,3.0407,-0.5673,-0.0537,-0.0333,-0.0318
0.5000,-0.0956,-0.0401,0.1456,9.3072,3.0376,-0.5654,-0.0517,-0.0409,0.0140
0.5100,-0.0616,-0.0525,0.0627,9.3075,3.0372,-0.5623,-0.0555,-0.0486,0.0574
0.5200,0.0146,-0.0655,-0.0230,9.3063,3.0415,-0.5588,-0.0612,-0.0482,0.0885
0.5300,0.0471,-0.0526,-0.1116,9.3042,3.0485,-0.5556,-0.0655,-0.0323,0.1168
0.5400,0.0214,-0.0438,-0.1693,9.3012,3.0581,-0.5537,-0.0737,-0.0183,0.1325
0.5500,-0.0124,-0.0297,-0.1883,9.2974,3.0696,-0.5539,-0.0857,-0.0144,0.1374
0.5600,-0.0507,0.0023,-0.1709,9.2934,3.0814,-0.5553,-0.0916,-0.0203,0.1313
0.5700,-0.0715,0.0315,-0.1172,9.2894,3.0930,-0.5571,-0.0871,-0.0356,0.1046
0.5800,-0.0410,0.0121,-0.0574,9.2861,3.1028,-0.5579,-0.0714,-0.0482,0.0669
0.5900,-0.0365,0.0095,-0.0066,9.2840,3.1094,-0.5568,-0.0486,-0.0535,0.0099
0.6000,-0.0518,0.0295,0.0108,9.2833,3.1117,-0.5543,-0.0278,-0.0390,-0.0499
0.6100,-0.0666,0.0127,-0.0184,9.2846,3.1085,-0.5514,-0.0130,0.0001,-0.0966
0.6200,-0.0381,-0.0058,-0.0438,9.2872,3.1007,-0.5508,-0.0018,0.0577,-0.1385
0.6300,0.0357,-0.0182,-0.0375,9.2908,3.0892,-0.5546,0.0049,0.0970,-0.1526
0.6400,0.0930,-0.0473,-0.0381,9.2950,3.0752,-0.5629,0.0110,0.1127,-0.1399
0.6500,0.1115,-0.0626,-0.0751,9.2988,3.0617,-0.5729,0.0149,0.1082,-0.1177
0.6600,0.0987,-0.0390,-0.1074,9.3020,3.0501,-0.5830,0.0178,0.0888,-0.0813
0.6700,0.0773,-0.0319,-0.1403,9.3043,3.0414,-0.5915,0.0159,0.0571,-0.0471
0.6800,0.0528,-0.0123,-0.1502,9.3056,3.0362,-0.5976,0.0088,0.0267,-0.0229
0.6900,0.0162,0.0303,-0.1173,9.3063,3.0335,-0.6010,0.0019,0.0082,-0.0051
0.7000,-0.0231,0.0440,-0.0750,9.3065,3.0326,-0.6026,-0.0018,-0.0018,0.0034
0.7100,-0.0293,0.0341,-0.0368,9.3064,3.0328,-0.6032,-0.0050,-0.0085,-0.0007
0.7200,0.0163,0.0498,0.0222,9.3063,3.0332,-0.6032,-0.0091,-0.0073,-0.0011
0.7300,0.0928,0.0483,0.0523,9.3063,3.0330,-0.6030,-0.0207,-0.0138,-0.0149
0.7400,0.1437,0.0617,0.0568,9.3066,3.0324,-0.6027,-0.0278,-0.0191,-0.0290
0.7500,0.1085,0.0642,0.0432,9.3074,3.0299,-0.6018,-0.0297,-0.0095,-0.0416
0.7600,0.0754,0.0438,0.0332,9.3086,3.0264,-0.6014,-0.0325,0.0033,-0.0573
0.7700,0.0603,0.0311,0.0181,9.3101,3.0215,-0.6023,-0.0374,0.0121,-0.0587
0.7800,0.0338,0.0440,0.0160,9.3118,3.0158,-0.6042,-0.0429,0.0113,-0.0505
0.7900,0.0220,0.0403,0.0455,9.3133,3.0107,-0.6066,-0.0480,-0.0038,-0.0349
0.8000,0.0120,0.0194,0.0431,9.3145,3.0069,-0.6081,-0.0525,-0.0244,-0.0115
0.8100,-0.0022,-0.0194,0.0516,9.3151,3.0050,-0.6079,-0.0568,-0.0464,0.0138
0.8200,0.0058,-0.0333,0.0607,9.3151,3.0053,-0.6058,-0.0586,-0.0621,0.0388
0.8300,0.0423,-0.0327,0.0753,9.3145,3.0079,-0.6020,-0.0576,-0.0739,0.0574
0.8400,0.0299,-0.0284,0.0904,9.3134,3.0124,-0.5971,-0.0549,-0.0798,0.0665
0.8500,0.0257,-0.0109,0.0861,9.3119,3.0180,-0.5913,-0.0466,-0.0669,0.0596
0.8600,0.0487,0.0051,0.0894,9.3105,3.0236,-0.5858,-0.0384,-0.0547,0.0380
0.8700,0.0378,0.0027,0.0539,9.3095,3.0276,-0.5814,-0.0289,-0.0415,0.0107
0.8800,0.0261,0.0131,0.0239,9.3092,3.0292,-0.5778,-0.0183,-0.0207,-0.0198
0.8900,0.0352,0.0093,0.0066,9.3097,3.0281,-0.5756,-0.0034,0.0037,-0.0471
0.9000,0.0364,0.0051,0.0071,9.3109,3.0244,-0.5753,0.0121,0.0288,-0.0632
0.9100,0.0020,0.0002,0.0070,9.3126,3.0189,-0.5769,0.0251,0.0554,-0.0679
0.9200,-0.0381,-0.0088,-0.0572,9.3143,3.0128,-0.5804,0.0381,0.0833,-0.0593
0.9300,-0.0292,0.0001,-0.1448,9.3158,3.0071,-0.5862,0.0479,0.1013,-0.0434
0.9400,0.0290,0.0123,-0.2305,9.3167,3.0028,-0.5939,0.0534,0.1006,-0.0222
0.9500,0.1093,0.0211,-0.2877,9.3170,3.0004,-0.6021,0.0556,0.0815,-0.0051
0.9600,0.1384,0.0336,-0.3116,9.3166,2.9999,-0.6093,0.0569,0.0455,0.0085
0.9700,0.1102,0.0153,-0.2898,9.3161,3.0006,-0.6144,0.0581,-0.0026,0.0162
0.9800,0.0725,0.0000,-0.2219,9.3154,3.0023,-0.6161,0.0544,-0.0466,0.0171
0.9900,0.0698,-0.0050,-0.1171,9.3150,3.0041,-0.6139,0.0357,-0.0759,0.0077
1.0000,0.0523,0.0146,-0.0399,9.3149,3.0053,-0.6090,0.0127,-0.0773,-0.0058
1.0100,0.0295,0.0179,-0.0122,9.3153,3.0051,-0.6032,-0.0069,-0.0545,-0.0192
1.0200,0.0280,0.0266,0.0220,9.3161,3.0037,-0.5990,-0.0236,-0.0256,-0.0330
1.0300,0.0063,0.0118,0.0668,9.3171,3.0009,-0.5975,-0.0350,0.0039,-0.0406
1.0400,-0.0428,-0.0036,0.0838,9.3182,2.9971,-0.5986,-0.0433,0.0310,-0.0408
1.0500,-0.0630,-0.0123,0.0874,9.3193,2.9931,-0.6021,-0.0492,0.0457,-0.0393
1.0600,-0.0240,-0.0163,0.0793,9.3202,2.9892,-0.6076,-0.0492,0.0422,-0.0361
1.0700,0.0574,-0.0389,0.0475,9.3210,2.9854,-0.6133,-0.0439,0.0206,-0.0286
1.0800,0.0702,-0.0572,0.0373,9.3218,2.9822,-0.6174,-0.0356,-0.0061,-0.0157
1.0900,0.1134,-0.0662,0.0569,9.3224,2.9800,-0.6188,-0.0256,-0.0205,0.0038
1.1000,0.1403,-0.0792,0.0664,9.3227,2.9794,-0.6179,-0.0173,-0.0352,0.0327
1.1100,0.0505,-0.0645,0.0699,9.3221,2.9816,-0.6153,-0.0136,-0.0411,0.0541
1.1200,-0.0271,-0.0565,0.0822,9.3212,2.9851,-0.6123,-0.0093,-0.0347,0.0661
1.1300,-0.1153,-0.0522,0.1001,9.3197,2.9906,-0.6085,-0.0012,-0.0217,0.0781
1.1400,-0.1460,-0.0635,0.1127,9.3177,2.9972,-0.6059,0.0023,-0.0148,0.0767
1.1500,-0.1567,-0.0608,0.1058,9.3157,3.0040,-0.6038,0.0021,-0.0114,0.0616
1.1600,-0.1414,-0.0490,0.0801,9.3139,3.0099,-0.6020,0.0017,-0.0101,0.0384
1.1700,-0.1450,-0.0625,0.0745,9.3127,3.0138,-0.6005,0.0001,-0.0063,0.0093
1.1800,-0.1032,-0.0472,0.0589,9.3124,3.0152,-0.5992,-0.0032,0.0090,-0.0202
1.1900,0.0281,-0.0339,-0.0132,9.3128,3.0139,-0.5989,-0.0061,0.0259,-0.0440
1.2000,0.1443,-0.0333,-0.0857,9.3139,3.0101,-0.6007,-0.0101,0.0273,-0.0532
1.2100,0.1883,-0.0418,-0.1523,9.3154,3.0050,-0.6035,-0.0150,0.0182,-0.0461
1.2200,0.2060,-0.0017,-0.1579,9.3168,3.0000,-0.6059,-0.0244,-0.0063,-0.0241
1.2300,0.2042,0.0433,-0.1528,9.3179,2.9966,-0.6070,-0.0246,-0.0346,0.0004
1.2400,0.1335,0.0500,-0.1389,9.3183,2.9955,-0.6057,-0.0142,-0.0480,0.0211
1.2500,0.0171,0.0474,-0.1166,9.3182,2.9964,-0.6025,-0.0042,-0.0441,0.0358
1.2600,-0.1004,0.0646,-0.0913,9.3176,2.9991,-0.5990,0.0011,-0.0305,0.0403
1.2700,-0.1736,0.0570,-0.0787,9.3165,3.0028,-0.5965,0.0031,-0.0089,0.0340
1.2800,-0.1773,0.0686,-0.0842,9.3154,3.0063,-0.5957,0.0060,0.0033,0.0173
1.2900,-0.1405,0.0621,-0.0992,9.3146,3.0088,-0.5967,0.0141,0.0066,-0.0013
1.3000,-0.0882,0.0405,-0.0795,9.3142,3.0097,-0.5980,0.0229,0.0133,-0.0202
1.3100,-0.0006,0.0220,-0.0542,9.3143,3.0090,-0.5995,0.0279,0.0115,-0.0365
1.3200,0.0227,0.0108,-0.0631,9.3150,3.0067,-0.6009,0.0288,-0.0008,-0.0483
1.3300,0.0758,-0.0175,-0.0938,9.3161,3.0031,-0.6013,0.0245,0.0001,-0.0505
1.3400,0.1047,-0.0331,-0.1092,9.3175,2.9988,-0.6011,0.0192,0.0013,-0.0422
1.3500,0.1290,-0.0523,-0.0815,9.3188,2.9948,-0.6016,0.0127,-0.0122,-0.0277
1.3600,0.1025,-0.0565,-0.0545,9.3197,2.9918,-0.6015,0.0017,-0.0278,-0.0147
1.3700,0.1082,-0.0603,-0.0545,9.3204,2.9900,-0.5999,-0.0087,-0.0370,-0.0003
1.3800,0.1326,-0.0579,-0.0152,9.3208,2.9892,-0.5977,-0.0146,-0.0490,0.0079
1.3900,0.0926,-0.0502,0.0312,9.3209,2.9894,-0.5946,-0.0160,-0.0592,0.0109
1.4000,0.0661,-0.0554,0.0796,9.3211,2.9899,-0.5903,-0.0152,-0.0614,0.0138
1.4100,0.0509,-0.0705,0.1520,9.3211,2.9907,-0.5854,-0.0152,-0.0539,0.0160
1.4200,-0.0010,-0.0723,0.1807,9.3211,2.9916,-0.5806,-0.0158,-0.0401,0.0179
1.4300,-0.0600,-0.0813,0.1721,9.3210,2.9927,-0.5767,-0.0140,-0.0244,0.0193
1.4400,-0.0845,-0.0761,0.1527,9.3208,2.9938,-0.5740,-0.0105,-0.0093,0.0140
1.4500,-0.0955,-0.0642,0.1367,9.3206,2.9947,-0.5725,-0.0065,0.0115,0.0034
1.4600,-0.0971,-0.0738,0.1150,9.3206,2.9947,-0.5723,-0.0050,0.0247,-0.0049
1.4700,-0.0917,-0.0913,0.0653,9.3208,2.9939,-0.5737,-0.0075,0.0220,-0.0104
1.4800,-0.0901,-0.0712,0.0452,9.3213,2.9922,-0.5756,-0.0132,0.0125,-0.0153
1.4900,-0.0667,-0.0561,0.0247,9.3218,2.9902,-0.5765,-0.0179,0.0047,-0.0246
1.5000,-0.0030,-0.0521,0.0526,9.3227,2.9874,-0.5769,-0.0221,-0.0078,-0.0374
1.5100,0.0652,-0.0374,0.1286,9.3240,2.9835,-0.5763,-0.0249,-0.0163,-0.0475
1.5200,0.1497,-0.0241,0.1642,9.3257,2.9785,-0.5748,-0.0243,-0.0115,-0.0521
1.5300,0.2125,-0.0175,0.1556,9.3275,2.9731,-0.5734,-0.0182,0.0029,-0.0472
1.5400,0.2204,-0.0113,0.1000,9.3291,2.9681,-0.5728,-0.0078,0.0221,-0.0359
1.5500,0.2013,0.0011,0.0373,9.3303,2.9642,-0.5736,0.0011,0.0383,-0.0221
1.5600,0.1683,0.0060,0.0085,9.3310,2.9616,-0.5759,0.0111,0.0512,0.0002
1.5700,0.1372,-0.0115,-0.0432,9.3309,2.9612,-0.5793,0.0237,0.0588,0.0224
1.5800,0.1129,-0.0241,-0.0870,9.3301,2.9630,-0.5833,0.0310,0.0527,0.0316
1.5900,0.0434,-0.0112,-0.0895,9.3290,2.9657,-0.5869,0.0331,0.0353,0.0322
1.6000,-0.0454,-0.0081,-0.0814,9.3280,2.9685,-0.5890,0.0331,0.0179,0.0267
1.6100,-0.0936,-0.0165,-0.0688,9.3272,2.9710,-0.5896,0.0283,0.0084,0.0203
1.6200,-0.0990,-0.0029,-0.0617,9.3266,2.9729,-0.5895,0.0142,0.0032,0.0124
1.6300,-0.0843,0.0068,-0.0570,9.3262,2.9740,-0.5894,-0.0035,0.0011,0.0020
1.6400,-0.0519,-0.0005,-0.0423,9.3262,2.9741,-0.5897,-0.0139,0.0047,-0.0060
1.6500,-0.0425,-0.0130,-0.0330,9.3263,2.9734,-0.5907,-0.0170,0.0130,-0.0099
1.6600,-0.0415,-0.0060,-0.0552,9.3265,2.9724,-0.5925,-0.0185,0.0228,-0.0124
1.6700,-0.0011,0.0037,-0.0943,9.3268,2.9711,-0.5952,-0.0166,0.0286,-0.0145
1.6800,0.0406,-0.0044,-0.1101,9.3270,2.9696,-0.5986,-0.0111,0.0224,-0.0151
1.6900,0.0223,-0.0137,-0.1014,9.3273,2.9681,-0.6013,-0.0060,0.0090,-0.0124
1.7000,0.0017,-0.0508,-0.0857,9.3276,2.9669,-0.6027,-0.0008,0.0011,-0.0069
1.7100,0.0362,-0.0728,-0.0504,9.3278,2.9662,-0.6032,0.0035,-0.0050,-0.0035
1.7200,0.0504,-0.0723,-0.0265,9.3280,2.9657,-0.6031,0.0053,-0.0115,-0.0023
1.7300,0.0287,-0.0778,-0.0561,9.3282,2.9652,-0.6023,0.0032,-0.0139,-0.0032
1.7400,-0.0063,-0.0915,-0.0857,9.3284,2.9646,-0.6015,-0.0014,-0.0130,-0.0078
1.7500,-0.0139,-0.0915,-0.0694,9.3289,2.9634,-0.6009,-0.0057,-0.0038,-0.0133
1.7600,0.0131,-0.0622,-0.0247,9.3294,2.9616,-0.6014,-0.0093,0.0124,-0.0157
1.7700,-0.0138,-0.0230,0.0037,9.3299,2.9595,-0.6034,-0.0111,0.0231,-0.0173
1.7800,-0.0370,0.0113,-0.0174,9.3304,2.9575,-0.6063,-0.0099,0.0316,-0.0212
1.7900,-0.0219,0.0231,-0.0367,9.3309,2.9553,-0.6097,-0.0014,0.0399,-0.0252
1.8000,0.0362,0.0208,-0.0316,9.3314,2.9528,-0.6137,0.0096,0.0341,-0.0270
1.8100,0.1015,0.0270,-0.0273,9.3320,2.9502,-0.6167,0.0160,0.0188,-0.0249
1.8200,0.0913,0.0328,-0.0200,9.3326,2.9480,-0.6181,0.0188,0.0060,-0.0200
1.8300,0.0404,0.0334,-0.0103,9.3332,2.9462,-0.6182,0.0182,-0.0035,-0.0139
1.8400,-0.0091,0.0382,0.0128,9.3336,2.9450,-0.6174,0.0139,-0.0069,-0.0108
1.8500,-0.0166,0.0475,0.0645,9.3340,2.9441,-0.6164,0.0087,-0.0032,-0.0108
1.8600,-0.0469,0.0520,0.0975,9.3343,2.9431,-0.6158,0.0053,-0.0011,-0.0118
1.8700,-0.0855,0.0482,0.0984,9.3346,2.9422,-0.6155,0.0029,0.0005,-0.0136
1.8800,-0.0691,0.0372,0.0993,9.3349,2.9412,-0.6153,0.0017,0.0115,-0.0099
1.8900,-0.0021,0.0399,0.0926,9.3350,2.9409,-0.6158,0.0014,0.0261,-0.0047
1.9000,0.0567,0.0481,0.0847,9.3348,2.9411,-0.6174,-0.0002,0.0334,-0.0011
1.9100,0.0511,0.0379,0.0676,9.3345,2.9417,-0.6195,-0.0014,0.0353,0.0035
1.9200,0.0635,0.0250,0.0363,9.3341,2.9426,-0.6217,-0.0032,0.0377,0.0066
1.9300,0.1011,0.0167,0.0017,9.3336,2.9437,-0.6242,-0.0078,0.0365,0.0032
1.9400,0.1015,0.0222,-0.0600,9.3332,2.9442,-0.6271,-0.0139,0.0228,-0.0081
1.9500,0.0703,0.0205,-0.0948,9.3333,2.9435,-0.6294,-0.0182,-0.0017,-0.0224
1.9600,0.0696,-0.0120,-0.0454,9.3339,2.9413,-0.6298,-0.0182,-0.0200,-0.0316
1.9700,0.0937,-0.0305,0.0346,9.3350,2.9383,-0.6284,-0.0188,-0.0234,-0.0325
1.9800,0.0686,-0.0070,0.0701,9.3361,2.9351,-0.6268,-0.0218,-0.0182,-0.0283
1.9900,0.0473,-0.0067,0.0570,9.3370,2.9324,-0.6257,-0.0231,-0.0038,-0.0188
2.0000,0.0384,-0.0299,0.0489,9.3376,2.9305,-0.6259,-0.0209,0.0115,-0.0075
2.0100,-0.0133,-0.0350,0.0325,9.3378,2.9296,-0.6274,-0.0173,0.0136,0.0023
2.0200,-0.0562,-0.0207,0.0233,9.3376,2.9297,-0.6291,-0.0145,0.0035,0.0108
2.0300,-0.0523,-0.0252,0.0347,9.3373,2.9306,-0.6297,-0.0136,-0.0087,0.0130
2.0400,-0.0400,-0.0418,0.0353,9.3370,2.9316,-0.6291,-0.0130,-0.0185,0.0108
2.0500,-0.0566,-0.0283,0.0267,9.3369,2.9325,-0.6276,-0.0148,-0.0261,0.0087
2.0600,-0.0745,-0.0086,-0.0042,9.3368,2.9332,-0.6255,-0.0191,-0.0252,0.0014
2.0700,-0.0591,-0.0062,-0.0108,9.3369,2.9331,-0.6237,-0.0240,-0.0115,-0.0081
2.0800,-0.0319,0.0019,0.0259,9.3372,2.9322,-0.6233,-0.0258,0.0060,-0.0176
2.0900,-0.0084,0.0300,0.0380,9.3377,2.9304,-0.6246,-0.0228,0.0182,-0.0279
2.1000,0.0364,0.0507,0.0055,9.3384,2.9277,-0.6268,-0.0206,0.0319,-0.0386
2.1100,0.1372,0.0544,-0.0376,9.3393,2.9240,-0.6303,-0.0197,0.0426,-0.0499
2.1200,0.2031,0.0412,-0.0523,9.3405,2.9193,-0.6348,-0.0188,0.0310,-0.0588
2.1300,0.1776,0.0335,-0.0477,9.3420,2.9137,-0.6382,-0.0182,-0.0014,-0.0615
2.1400,0.1244,0.0453,-0.0593,9.3438,2.9079,-0.6386,-0.0176,-0.0243,-0.0564
2.1500,0.0711,0.0375,-0.0598,9.3456,2.9026,-0.6369,-0.0191,-0.0276,-0.0447
2.1600,0.0122,0.0213,-0.0427,9.3470,2.8984,-0.6349,-0.0221,-0.0218,-0.0295
2.1700,-0.0342,0.0134,-0.0200,9.3480,2.8956,-0.6336,-0.0224,-0.0096,-0.0108
2.1800,-0.0357,0.0144,0.0014,9.3483,2.8946,-0.6335,-0.0170,0.0069,0.0087
2.1900,-0.0318,0.0172,-0.0034,9.3480,2.8954,-0.6347,-0.0081,0.0215,0.0221
2.2000,-0.0454,-0.0017,-0.0346,9.3472,2.8975,-0.6369,-0.0029,0.0286,0.0252
2.2100,-0.0564,-0.0245,-0.0594,9.3462,2.8999,-0.6398,-0.0041,0.0255,0.0179
2.2200,-0.0725,-0.0369,-0.0400,9.3455,2.9016,-0.6423,-0.0099,0.0115,0.0035
2.2300,-0.1309,-0.0396,-0.0218,9.3453,2.9019,-0.6438,-0.0188,-0.0136,-0.0096
2.2400,-0.1995,-0.0506,-0.0105,9.3457,2.9009,-0.6431,-0.0319,-0.0371,-0.0221
2.2500,-0.1884,-0.0819,0.0206,9.3465,2.8986,-0.6407,-0.0484,-0.0472,-0.0353
2.2600,-0.1035,-0.0902,0.0608,9.3478,2.8951,-0.6378,-0.0655,-0.0518,-0.0441
2.2700,-0.0189,-0.0701,0.0926,9.3495,2.8905,-0.6348,-0.0857,-0.0505,-0.0530
2.2800,0.0594,-0.0623,0.1166,9.3513,2.8850,-0.6326,-0.1009,-0.0435,-0.0591
2.2900,0.1089,-0.0692,0.1370,9.3533,2.8788,-0.6314,-0.1031,-0.0350,-0.0603
2.3000,0.1560,-0.0497,0.1365,9.3553,2.8725,-0.6309,-0.0982,-0.0264,-0.0582
2.3100,0.2271,-0.0207,0.1268,9.3572,2.8662,-0.6308,-0.0890,-0.0252,-0.0521
2.3200,0.2720,-0.0055,0.1299,9.3590,2.8606,-0.6303,-0.0768,-0.0347,-0.0435
2.3300,0.2692,0.0149,0.1519,9.3606,2.8557,-0.6283,-0.0609,-0.0521,-0.0325
2.3400,0.1959,0.0343,0.1477,9.3620,2.8520,-0.6241,-0.0414,-0.0628,-0.0212
2.3500,0.1313,0.0272,0.0963,9.3632,2.8494,-0.6182,-0.0228,-0.0527,-0.0105
2.3600,0.1222,0.0106,0.0598,9.3639,2.8480,-0.6129,-0.0096,-0.0319,0.0011
2.3700,0.1109,0.0232,0.0229,9.3641,2.8482,-0.6095,-0.0028,-0.0032,0.0120
2.3800,0.0998,0.0354,-0.0117,9.3640,2.8488,-0.6084,-0.0006,0.0151,0.0164
2.3900,0.0951,0.0502,-0.0773,9.3635,2.8504,-0.6087,0.0023,0.0454,0.0212
2.4000,0.1019,0.0519,-0.1523,9.3627,2.8523,-0.6126,0.0017,0.0542,0.0194
2.4100,0.1124,0.0632,-0.2084,9.3618,2.8541,-0.6176,-0.0005,0.0432,0.0176
2.4200,0.1024,0.0771,-0.2079,9.3610,2.8558,-0.6217,-0.0020,0.0252,0.0191
2.4300,0.0432,0.0730,-0.1789,9.3603,2.8575,-0.6244,-0.0035,0.0066,0.0218
2.4400,-0.0399,0.0661,-0.1645,9.3596,2.8596,-0.6256,-0.0057,-0.0130,0.0237
2.4500,-0.1086,0.0602,-0.1600,9.3589,2.8619,-0.6253,-0.0099,-0.0350,0.0231
2.4600,-0.1654,0.0494,-0.1390,9.3583,2.8643,-0.6236,-0.0179,-0.0487,0.0182
2.4700,-0.1805,0.0414,-0.1078,9.3578,2.8664,-0.6212,-0.0279,-0.0487,0.0075
2.4800,-0.1061,0.0426,-0.0702,9.3576,2.8676,-0.6193,-0.0365,-0.0420,-0.0072
2.4900,0.0016,0.0296,-0.0677,9.3577,2.8674,-0.6182,-0.0399,-0.0347,-0.0197
2.5000,0.0597,0.0106,-0.0814,9.3581,2.8660,-0.6177,-0.0438,-0.0319,-0.0267
2.5100,0.0519,0.0141,-0.0792,9.3588,2.8638,-0.6175,-0.0496,-0.0347,-0.0258
2.5200,0.0152,-0.0004,-0.0641,9.3596,2.8615,-0.6170,-0.0512,-0.0399,-0.0160
2.5300,-0.0427,-0.0265,-0.0316,9.3601,2.8601,-0.6160,-0.0487,-0.0451,0.0011
2.5400,-0.0955,-0.0505,-0.0095,9.3602,2.8601,-0.6142,-0.0444,-0.0463,0.0212
2.5500,-0.1130,-0.0644,0.0158,9.3597,2.8620,-0.6120,-0.0405,-0.0496,0.0331
2.5600,-0.1291,-0.0589,0.0489,9.3590,2.8649,-0.6091,-0.0374,-0.0576,0.0338
2.5700,-0.1356,-0.0726,0.0581,9.3584,2.8678,-0.6052,-0.0341,-0.0619,0.0246
2.5800,-0.1401,-0.0686,0.0523,9.3581,2.8699,-0.6006,-0.0304,-0.0591,0.0066
2.5900,-0.1343,-0.0594,0.0490,9.3582,2.8702,-0.5961,-0.0292,-0.0472,-0.0148
2.6000,-0.0955,-0.0686,0.0443,9.3590,2.8686,-0.5926,-0.0301,-0.0362,-0.0347
2.6100,-0.0476,-0.0688,0.0479,9.3602,2.8652,-0.5901,-0.0313,-0.0359,-0.0505
2.6200,0.0333,-0.0578,0.0658,9.3618,2.8602,-0.5877,-0.0313,-0.0423,-0.0631
2.6300,0.0995,-0.0457,0.0639,9.3639,2.8541,-0.5846,-0.0286,-0.0472,-0.0695
2.6400,0.1104,-0.0414,0.0471,9.3662,2.8474,-0.5810,-0.0240,-0.0386,-0.0701
2.6500,0.1165,-0.0215,0.0346,9.3684,2.8406,-0.5780,-0.0197,-0.0160,-0.0673
2.6600,0.1193,-0.0030,0.0216,9.3704,2.8342,-0.5771,-0.0151,0.0093,-0.0603
2.6700,0.0997,-0.0020,0.0228,9.3721,2.8284,-0.5783,-0.0102,0.0322,-0.0502
2.6800,0.0852,0.0040,-0.0242,9.3733,2.8236,-0.5815,-0.0041,0.0518,-0.0374
2.6900,0.1060,0.0171,-0.0887,9.3741,2.8200,-0.5864,0.0023,0.0619,-0.0221
2.7000,0.1549,0.0216,-0.1189,9.3744,2.8180,-0.5922,0.0063,0.0557,-0.0105
2.7100,0.2004,0.0393,-0.1689,9.3743,2.8170,-0.5972,0.0069,0.0368,-0.0069
2.7200,0.2172,0.0591,-0.2015,9.3743,2.8164,-0.6006,0.0029,0.0154,-0.0090
2.7300,0.2888,0.0049,-0.2632,9.3745,2.8154,-0.6023,-0.0179,-0.0038,0.0686
2.7400,0.2811,-0.0129,-0.2681,9.3720,2.8237,-0.6016,-0.0457,-0.0652,0.2042
2.7500,0.1223,0.0604,-0.1522,9.3668,2.8414,-0.5989,-0.0524,-0.1358,0.2940
2.7600,-0.0081,0.0395,-0.0658,9.3602,2.8647,-0.5926,-0.0426,-0.1483,0.3331
2.7700,-0.0547,-0.0335,-0.0431,9.3516,2.8945,-0.5818,-0.0350,-0.1422,0.3343
2.7800,-0.1488,-0.0281,-0.0392,9.3428,2.9251,-0.5701,-0.0319,-0.1339,0.3288
2.7900,-0.2621,0.0734,-0.0322,9.3340,2.9553,-0.5592,-0.0234,-0.1122,0.3206
2.8000,-0.1060,0.1337,-0.0762,9.3252,2.9847,-0.5499,-0.0105,-0.0909,0.3019
2.8100,0.1251,0.1059,-0.1341,9.3167,3.0126,-0.5423,-0.0029,-0.0982,0.2427
2.8200,0.2169,0.1183,-0.1115,9.3099,3.0349,-0.5338,-0.0032,-0.1122,0.1083
2.8300,0.2483,0.1372,-0.0770,9.3073,3.0447,-0.5240,-0.0026,-0.0884,-0.0799
2.8400,0.0227,-0.0072,0.0279,9.3102,3.0370,-0.5163,-0.0194,-0.0221,-0.2775
2.8500,-0.3785,-0.0122,0.2303,9.3187,3.0110,-0.5152,-0.0768,0.1101,-0.4620
2.8600,-0.5617,0.1521,0.3339,9.3319,2.9675,-0.5278,-0.1104,0.2454,-0.5502
2.8700,-0.2520,0.0756,0.2163,9.3466,2.9160,-0.5538,-0.1003,0.2851,-0.5203
2.8800,0.2580,-0.0724,0.0563,9.3598,2.8676,-0.5830,-0.0909,0.2262,-0.4421
2.8900,0.4456,-0.0995,0.0340,9.3709,2.8265,-0.6062,-0.0667,0.1245,-0.3377
2.9000,0.4299,-0.0525,-0.0044,9.3795,2.7950,-0.6193,-0.0212,0.0423,-0.2222
2.9100,0.3953,-0.0235,-0.0169,9.3853,2.7744,-0.6236,0.0237,-0.0124,-0.1052
2.9200,0.3014,-0.0427,0.0242,9.3883,2.7649,-0.6216,0.0509,-0.0524,0.0014
2.9300,0.1583,-0.0695,0.0469,9.3877,2.7686,-0.6135,0.0538,-0.0696,0.0908
2.9400,0.0854,-0.0768,0.0634,9.3864,2.7743,-0.6077,0.0491,-0.0688,0.1319
2.9500,0.0003,-0.0516,0.0762,9.3829,2.7882,-0.5981,0.0426,-0.0557,0.1767
2.9600,-0.0598,-0.0157,0.0781,9.3783,2.8049,-0.5916,0.0344,-0.0341,0.1614
2.9700,-0.1177,-0.0022,0.0630,9.3740,2.8202,-0.5874,0.0240,-0.0136,0.1242
2.9800,-0.1263,0.0029,0.0419,9.3706,2.8319,-0.5853,0.0136,0.0060,0.0796
2.9900,-0.1240,-0.0034,-0.0035,9.3683,2.8393,-0.5855,-0.0002,0.0206,0.0313
3.0000,-0.1183,0.0033,-0.0363,9.3674,2.8422,-0.5873,-0.0111,0.0310,-0.0087
3.0100,-0.1195,0.0222,-0.0212,9.3674,2.8413,-0.5905,-0.0118,0.0362,-0.0447
3.0200,-0.0895,0.0049,-0.0354,9.3685,2.8370,-0.5943,-0.0026,0.0371,-0.0741
3.0300,-0.0039,-0.0217,-0.0666,9.3704,2.8301,-0.5978,0.0108,0.0359,-0.0921
3.0400,0.0667,-0.0203,-0.0827,9.3727,2.8215,-0.6009,0.0228,0.0325,-0.0954
3.0500,0.1264,-0.0462,-0.1042,9.3752,2.8127,-0.6033,0.0298,0.0252,-0.0832
3.0600,0.1710,-0.0661,-0.1302,9.3774,2.8051,-0.6048,0.0313,0.0111,-0.0597
3.0700,0.1490,-0.0511,-0.1192,9.3790,2.7997,-0.6050,0.0286,-0.0090,-0.0310
3.0800,0.0679,-0.0424,-0.0909,9.3800,2.7969,-0.6034,0.0249,-0.0258,0.0035
3.0900,-0.0016,-0.0428,-0.0652,9.3800,2.7973,-0.6004,0.0234,-0.0347,0.0298
3.1000,-0.0178,-0.0445,-0.0522,9.3794,2.8002,-0.5967,0.0234,-0.0365,0.0392
3.1100,-0.0612,-0.0351,-0.0274,9.3785,2.8040,-0.5927,0.0212,-0.0298,0.0402
3.1200,-0.1249,-0.0305,0.0148,9.3776,2.8078,-0.5894,0.0176,-0.0200,0.0310
3.1300,-0.1026,-0.0418,0.0269,9.3769,2.8107,-0.5872,0.0157,-0.0154,0.0163
3.1400,-0.0101,-0.0386,0.0215,9.3765,2.8123,-0.5854,0.0163,-0.0182,-0.0005
3.1500,0.0233,-0.0351,0.0074,9.3766,2.8123,-0.5832,0.0151,-0.0197,-0.0221
3.1600,-0.0493,-0.0414,0.0267,9.3774,2.8103,-0.5810,0.0115,-0.0041,-0.0423
3.1700,-0.0411,-0.0552,0.0620,9.3788,2.8053,-0.5816,0.0092,0.0249,-0.0518
3.1800,0.0226,-0.0670,0.0660,9.3797,2.8020,-0.5831,0.0088,0.0396,-0.0542
3.1900,0.0857,-0.0761,0.0724,9.3813,2.7959,-0.5871,0.0099,0.0463,-0.0487
3.2000,0.0450,-0.0750,-0.0015,9.3824,2.7913,-0.5911,0.0121,0.0380,-0.0304
3.2100,0.0516,-0.0876,-0.0629,9.3831,2.7883,-0.5943,0.0124,0.0350,-0.0121
3.2200,0.1387,-0.1031,-0.0361,9.3833,2.7870,-0.5972,0.0108,0.0151,0.0020
3.2300,0.1100,-0.0897,-0.0134,9.3833,2.7868,-0.5984,0.0087,-0.0157,0.0139
3.2400,0.0395,-0.0593,0.0197,9.3832,2.7875,-0.5967,0.0066,-0.0240,0.0249
3.2500,0.0853,-0.0322,0.0365,9.3828,2.7891,-0.5943,0.0038,-0.0115,0.0295
3.2600,0.1445,-0.0008,0.0209,9.3823,2.7913,-0.5931,-0.0002,-0.0047,0.0270
3.2700,0.0936,0.0200,0.0061,9.3817,2.7932,-0.5926,-0.0011,-0.0115,0.0221
3.2800,0.0306,0.0232,0.0002,9.3813,2.7948,-0.5915,0.0060,-0.0185,0.0215
3.2900,-0.0133,0.0119,0.0258,9.3809,2.7965,-0.5896,0.0185,-0.0151,0.0316
3.3000,-0.0533,0.0102,0.0501,9.3802,2.7994,-0.5876,0.0298,-0.0124,0.0472
3.3100,0.0042,0.0069,0.0445,9.3790,2.8039,-0.5856,0.0374,-0.0139,0.0594
3.3200,0.0476,-0.0131,0.0433,9.3775,2.8095,-0.5831,0.0405,-0.0170,0.0615
3.3300,0.0623,-0.0248,0.0572,9.3759,2.8153,-0.5803,0.0417,-0.0188,0.0573
3.3400,0.0877,-0.0314,0.0673,9.3745,2.8206,-0.5772,0.0466,-0.0261,0.0560
3.3500,0.1680,0.0029,0.0298,9.3732,2.8258,-0.5733,0.0585,-0.0423,0.0652
3.3600,0.2162,0.0543,0.0840,9.3717,2.8319,-0.5676,0.0799,-0.0365,0.0936
3.3700,0.1862,0.0634,0.1714,9.3693,2.8408,-0.5617,0.1013,-0.0053,0.1385
3.3800,0.1313,0.0419,0.1520,9.3656,2.8538,-0.5578,0.1132,0.0264,0.1874
3.3900,0.0958,0.0305,0.0773,9.3604,2.8713,-0.5561,0.1190,0.0438,0.2332
3.4000,0.1204,-0.0005,-0.0044,9.3538,2.8927,-0.5558,0.1242,0.0316,0.2729
3.4100,0.0957,-0.0385,-0.0323,9.3462,2.9176,-0.5543,0.1266,-0.0075,0.3004
3.4200,0.0272,-0.0678,-0.0685,9.3380,2.9444,-0.5492,0.1199,-0.0579,0.3083
3.4300,-0.0507,-0.0766,-0.1028,9.3297,2.9724,-0.5400,0.0988,-0.0893,0.2891
3.4400,-0.1265,-0.0520,-0.0698,9.3217,2.9993,-0.5288,0.0655,-0.0903,0.2384
3.4500,-0.2218,-0.0392,0.0086,9.3153,3.0212,-0.5186,0.0301,-0.0735,0.1678
3.4600,-0.3346,-0.0304,0.0669,9.3107,3.0364,-0.5110,0.0035,-0.0392,0.0930
3.4700,-0.3632,-0.0423,0.0991,9.3082,3.0446,-0.5073,-0.0124,0.0038,0.0206
3.4800,-0.2489,-0.0631,0.1023,9.3076,3.0463,-0.5081,-0.0212,0.0396,-0.0417
3.4900,-0.0848,-0.0482,0.0743,9.3087,3.0422,-0.5124,-0.0212,0.0579,-0.0896
3.5000,-0.0094,-0.0218,0.0635,9.3112,3.0337,-0.5184,-0.0115,0.0673,-0.1177
3.5100,0.0544,-0.0227,0.0318,9.3144,3.0226,-0.5250,-0.0005,0.0728,-0.1199
3.5200,0.2068,-0.0234,-0.0524,9.3177,3.0114,-0.5318,0.0035,0.0597,-0.1046
3.5300,0.2650,-0.0005,-0.0901,9.3205,3.0016,-0.5372,0.0044,0.0319,-0.0771
3.5400,0.1790,-0.0004,-0.0118,9.3227,2.9944,-0.5400,0.0127,0.0160,-0.0249
3.5500,0.0921,-0.0268,0.0779,9.3234,2.9921,-0.5411,0.0224,0.0145,0.0307
3.5600,0.0237,-0.0202,0.0833,9.3224,2.9950,-0.5418,0.0243,0.0145,0.0649
3.5700,-0.0138,-0.0083,0.0659,9.3204,3.0011,-0.5424,0.0234,0.0176,0.0860
3.5800,-0.0339,0.0075,0.0141,9.3177,3.0092,-0.5433,0.0243,0.0246,0.0912
3.5900,-0.0670,0.0229,-0.0490,9.3149,3.0177,-0.5448,0.0246,0.0304,0.0811
3.6000,-0.0775,0.0153,-0.0589,9.3123,3.0254,-0.5468,0.0224,0.0289,0.0640
3.6100,-0.0228,0.0068,-0.1000,9.3102,3.0314,-0.5489,0.0185,0.0170,0.0402
3.6200,0.0312,0.0006,-0.1420,9.3089,3.0353,-0.5499,0.0124,-0.0002,0.0121
3.6300,0.0902,0.0066,-0.1292,9.3085,3.0364,-0.5496,0.0066,-0.0191,-0.0160
3.6400,0.0884,-0.0002,-0.0844,9.3091,3.0349,-0.5477,0.0017,-0.0322,-0.0414
3.6500,-0.0232,-0.0119,-0.0167,9.3106,3.0310,-0.5447,-0.0047,-0.0212,-0.0643
3.6600,-0.0719,-0.0094,0.0214,9.3126,3.0249,-0.5433,-0.0105,-0.0011,-0.0771
3.6700,-0.0670,-0.0094,0.0264,9.3150,3.0177,-0.5436,-0.0124,0.0081,-0.0750
3.6800,-0.0633,-0.0108,0.0105,9.3172,3.0107,-0.5444,-0.0108,0.0096,-0.0689
3.6900,-0.0761,-0.0163,-0.0050,9.3192,3.0042,-0.5457,-0.0078,0.0081,-0.0603
3.7000,-0.0706,-0.0286,0.0068,9.3209,2.9986,-0.5467,-0.0035,0.0057,-0.0496
3.7100,-0.0517,-0.0347,0.0158,9.3224,2.9940,-0.5473,0.0002,0.0002,-0.0380
3.7200,-0.0026,-0.0288,0.0051,9.3235,2.9904,-0.5473,0.0020,-0.0084,-0.0267
3.7300,0.0468,-0.0239,-0.0065,9.3244,2.9879,-0.5465,0.0063,-0.0228,-0.0185
3.7400,0.0474,-0.0354,-0.0136,9.3250,2.9863,-0.5442,0.0102,-0.0365,-0.0111
3.7500,0.1151,-0.0727,0.0007,9.3256,2.9853,-0.5406,0.0087,-0.0392,-0.0038
3.7600,0.1422,-0.0723,0.0339,9.3259,2.9848,-0.5367,0.0023,-0.0365,0.0011
3.7700,0.0594,-0.0470,0.0544,9.3262,2.9847,-0.5332,-0.0075,-0.0182,-0.0005
3.7800,0.0269,-0.0371,0.0673,9.3264,2.9844,-0.5318,-0.0136,0.0142,-0.0044
3.7900,0.0495,-0.0232,0.0593,9.3265,2.9836,-0.5334,-0.0142,0.0338,-0.0087
3.8000,0.0721,-0.0125,0.0208,9.3267,2.9825,-0.5368,-0.0127,0.0374,-0.0111
3.8100,0.0742,-0.0039,-0.0138,9.3269,2.9811,-0.5405,-0.0093,0.0316,-0.0087
3.8200,0.0657,-0.0017,-0.0215,9.3271,2.9801,-0.5435,-0.0047,0.0203,-0.0053
3.8300,0.0536,0.0253,-0.0160,9.3272,2.9794,-0.5455,0.0023,0.0111,-0.0008
3.8400,0.0261,0.0387,-0.0019,9.3272,2.9792,-0.5464,0.0115,0.0041,0.0069
3.8500,0.0107,0.0248,0.0077,9.3269,2.9799,-0.5464,0.0188,-0.0108,0.0145
3.8600,-0.0140,0.0078,-0.0178,9.3266,2.9813,-0.5448,0.0212,-0.0289,0.0218
3.8700,-0.0315,-0.0099,-0.0343,9.3261,2.9835,-0.5415,0.0188,-0.0386,0.0283
3.8800,-0.0560,0.0018,0.0154,9.3255,2.9861,-0.5374,0.0093,-0.0304,0.0295
3.8900,-0.0900,0.0302,0.0627,9.3248,2.9889,-0.5343,-0.0011,-0.0020,0.0228
3.9000,-0.0630,0.0520,0.0517,9.3241,2.9910,-0.5342,-0.0035,0.0301,0.0087
3.9100,-0.0339,0.0584,0.0367,9.3237,2.9918,-0.5371,-0.0005,0.0487,-0.0072
3.9200,-0.0003,0.0518,-0.0151,9.3236,2.9912,-0.5416,0.0063,0.0472,-0.0173
3.9300,0.0342,0.0426,-0.0683,9.3239,2.9897,-0.5458,0.0136,0.0292,-0.0206
3.9400,0.0505,0.0252,-0.0648,9.3243,2.9879,-0.5481,0.0142,0.0017,-0.0176
3.9500,0.0656,0.0135,-0.0830,9.3248,2.9864,-0.5479,0.0087,-0.0286,-0.0124
3.9600,0.0687,0.0097,-0.0571,9.3253,2.9854,-0.5451,0.0023,-0.0481,-0.0090
3.9700,0.0718,-0.0206,0.0104,9.3258,2.9847,-0.5407,0.0008,-0.0496,-0.0075
3.9800,0.0569,-0.0487,0.0729,9.3262,2.9840,-0.5362,0.0017,-0.0365,-0.0087
3.9900,0.0349,-0.0335,0.1042,9.3267,2.9832,-0.5328,-0.0005,-0.0105,-0.0063
4.0000,0.0191,0.0138,0.0494,9.3269,2.9826,-0.5318,-0.0026,0.0368,0.0044
4.0100,0.0602,0.0517,-0.0429,9.3266,2.9830,-0.5353,-0.0029,0.0777,0.0111
4.0200,0.1256,0.0590,-0.1050,9.3259,2.9840,-0.5426,0.0029,0.0698,0.0029
4.0300,0.1057,0.0372,-0.1033,9.3254,2.9843,-0.5491,0.0157,0.0261,-0.0060
4.0400,0.0697,0.0185,-0.0882,9.3254,2.9838,-0.5511,0.0270,-0.0206,-0.0053
4.0500,-0.0323,0.0141,-0.0250,9.3257,2.9835,-0.5484,0.0279,-0.0493,-0.0002
4.0600,-0.1176,0.0031,0.0546,9.3260,2.9836,-0.5430,0.0179,-0.0579,0.0020
4.0700,-0.0903,-0.0092,0.0907,9.3262,2.9840,-0.5372,0.0044,-0.0545,-0.0014
4.0800,-0.0798,-0.0151,0.1082,9.3265,2.9839,-0.5320,-0.0060,-0.0371,-0.0060
4.0900,-0.0287,0.0070,0.1001,9.3269,2.9833,-0.5287,-0.0145,-0.0075,-0.0136
4.1000,0.0475,0.0454,0.0710,9.3273,2.9820,-0.5283,-0.0212,0.0194,-0.0221
4.1100,0.0996,0.0475,0.0241,9.3279,2.9800,-0.5305,-0.0209,0.0246,-0.0279
4.1200,0.1097,0.0322,0.0137,9.3285,2.9773,-0.5332,-0.0148,0.0099,-0.0276
4.1300,0.0814,0.0251,0.0316,9.3293,2.9748,-0.5344,-0.0057,-0.0017,-0.0173
4.1400,0.0857,0.0315,0.0326,9.3298,2.9733,-0.5342,0.0053,-0.0069,-0.0017
4.1500,0.0856,0.0531,0.0544,9.3299,2.9732,-0.5332,0.0182,-0.0096,0.0145
4.1600,0.0860,0.0312,0.0803,9.3295,2.9747,-0.5316,0.0319,-0.0005,0.0240
4.1700,0.0497,-0.0252,0.0874,9.3287,2.9772,-0.5303,0.0411,0.0148,0.0307
4.1800,-0.0679,-0.0582,0.0728,9.3278,2.9803,-0.5301,0.0423,0.0310,0.0411
4.1900,-0.1324,-0.0622,0.0357,9.3264,2.9843,-0.5313,0.0396,0.0542,0.0564
4.2000,-0.1077,-0.0435,-0.0267,9.3245,2.9896,-0.5348,0.0365,0.0640,0.0725
4.2100,-0.3363,-0.0492,-0.1000,9.3221,2.9964,-0.5393,0.0356,0.0478,0.0851
4.2200,-0.1492,-0.0811,-0.1901,9.3193,3.0045,-0.5426,0.0341,0.0142,0.1043
4.2300,0.3439,-0.1009,-0.2649,9.3162,3.0146,-0.5387,0.0172,-0.0545,0.0918
4.2400,0.3974,-0.1092,-0.2763,9.3146,3.0205,-0.5338,0.0027,-0.1028,0.0661
4.2500,0.2689,-0.0862,-0.0734,9.3130,3.0274,-0.5228,-0.0240,-0.1034,-0.0008
4.2600,0.0202,-0.0883,0.1332,9.3139,3.0259,-0.5150,-0.0512,-0.0252,-0.0783
4.2700,-0.1178,-0.1085,0.1257,9.3167,3.0175,-0.5147,-0.0841,0.0304,-0.1303
4.2800,-0.2846,-0.0379,0.1611,9.3206,3.0043,-0.5202,-0.1110,0.0793,-0.1428
4.2900,-0.3436,0.0384,0.1872,9.3245,2.9902,-0.5308,-0.1092,0.1260,-0.1321
4.3000,-0.2128,0.0536,0.1214,9.3278,2.9775,-0.5451,-0.0820,0.1452,-0.1165
4.3100,-0.0418,0.0321,-0.0218,9.3304,2.9666,-0.5600,-0.0502,0.1064,-0.1025
4.3200,0.0002,0.0066,-0.1383,9.3327,2.9574,-0.5704,-0.0255,0.0286,-0.0933
4.3300,-0.0860,0.0078,-0.1378,9.3351,2.9491,-0.5733,-0.0093,-0.0371,-0.0893
4.3400,-0.1773,0.0074,-0.0704,9.3378,2.9411,-0.5700,0.0072,-0.0725,-0.0848
4.3500,-0.2459,-0.0428,0.0065,9.3406,2.9338,-0.5631,0.0215,-0.0835,-0.0817
4.3600,-0.2881,-0.1053,0.0604,9.3432,2.9269,-0.5548,0.0283,-0.0744,-0.0799
4.3700,-0.3565,-0.1571,0.1019,9.3458,2.9200,-0.5472,0.0289,-0.0515,-0.0783
4.3800,-0.3925,-0.2042,0.1178,9.3483,2.9132,-0.5416,0.0243,-0.0096,-0.0762
4.3900,-0.3444,-0.2345,0.0958,9.3505,2.9064,-0.5399,0.0160,0.0347,-0.0704
4.4000,-0.3199,-0.2580,0.0722,9.3523,2.9000,-0.5426,0.0023,0.0591,-0.0683
4.4100,-0.3383,-0.2420,0.0500,9.3540,2.8936,-0.5480,-0.0136,0.0692,-0.0677
4.4200,-0.3292,-0.2092,0.0255,9.3556,2.8871,-0.5547,-0.0234,0.0686,-0.0658
4.4300,-0.2697,-0.2160,-0.0286,9.3572,2.8807,-0.5616,-0.0224,0.0417,-0.0686
4.4400,-0.2607,-0.2524,-0.0996,9.3590,2.8740,-0.5660,-0.0160,-0.0124,-0.0796
4.4500,-0.3361,-0.2877,-0.1255,9.3614,2.8663,-0.5652,-0.0124,-0.0585,-0.0909
4.4600,-0.3978,-0.3051,-0.0742,9.3644,2.8573,-0.5603,-0.0142,-0.0619,-0.0958
4.4700,-0.4130,-0.3051,-0.0313,9.3676,2.8477,-0.5552,-0.0182,-0.0319,-0.1025
4.4800,-0.4007,-0.3115,-0.0167,9.3709,2.8374,-0.5532,-0.0188,0.0108,-0.1159
4.4900,-0.3886,-0.3166,0.0020,9.3743,2.8257,-0.5551,-0.0166,0.0625,-0.1327
4.5000,-0.4520,-0.3834,-0.0488,9.3779,2.8123,-0.5617,-0.0160,0.1174,-0.1388
4.5100,-0.5154,-0.4495,-0.0944,9.3815,2.7982,-0.5735,-0.0203,0.1584,-0.1260
4.5200,-0.7123,-0.4698,-0.1779,9.3844,2.7850,-0.5895,-0.0267,0.1697,-0.1028
4.5300,-0.9084,-0.4922,-0.2598,9.3866,2.7738,-0.6069,-0.0307,0.1535,-0.0808
4.5400,-0.9160,-0.5214,-0.2902,9.3882,2.7647,-0.6231,-0.0322,0.1202,-0.0689
4.5500,-0.8887,-0.5409,-0.3079,9.3897,2.7567,-0.6366,-0.0338,0.0707,-0.0707
4.5600,-0.8786,-0.4990,-0.2222,9.3915,2.7483,-0.6457,-0.0359,0.0026,-0.0860
4.5700,-0.8800,-0.4773,-0.0888,9.3941,2.7386,-0.6486,-0.0365,-0.0808,-0.1226
4.5800,-0.8064,-0.4979,0.0293,9.3982,2.7257,-0.6434,-0.0341,-0.1477,-0.1742
4.5900,-0.7045,-0.5449,0.1180,9.4041,2.7081,-0.6315,-0.0264,-0.1794,-0.2225
4.6000,-0.6675,-0.5875,0.2021,9.4115,2.6860,-0.6163,-0.0163,-0.1825,-0.2622
4.6100,-0.7334,-0.6024,0.2507,9.4198,2.6602,-0.6002,-0.0075,-0.1526,-0.2900
4.6200,-0.8403,-0.6280,0.2273,9.4286,2.6319,-0.5864,-0.0020,-0.1037,-0.3016
4.6300,-0.9663,-0.6696,0.2070,9.4373,2.6030,-0.5769,0.0002,-0.0551,-0.2952
4.6400,-1.0413,-0.6764,0.2126,9.4453,2.5750,-0.5717,0.0035,-0.0224,-0.2757
4.6500,-1.3262,-0.6850,0.1732,9.4525,2.5489,-0.5695,0.0102,-0.0099,-0.2460
4.6600,-1.6821,-0.7372,0.0930,9.4588,2.5257,-0.5683,0.0173,-0.0063,-0.2078
4.6700,-1.7568,-0.7787,0.0310,9.4640,2.5061,-0.5673,0.0249,-0.0136,-0.1669
4.6800,-1.7527,-0.7786,-0.0057,9.4683,2.4905,-0.5654,0.0408,-0.0472,-0.1226
4.6900,-1.6722,-0.7134,-0.0542,9.4716,2.4791,-0.5599,0.0600,-0.0988,-0.0942
4.7000,-1.4548,-0.6258,-0.1273,9.4745,2.4705,-0.5490,0.0725,-0.1709,-0.1013
4.7100,-1.1697,-0.5591,-0.1836,9.4779,2.4613,-0.5311,0.0805,-0.2653,-0.1455
4.7200,-0.8562,-0.5314,-0.1652,9.4828,2.4479,-0.5039,0.0912,-0.3447,-0.2234
4.7300,-0.5976,-0.5597,-0.1056,9.4899,2.4272,-0.4690,0.1116,-0.3716,-0.3083
4.7400,-0.4534,-0.6291,-0.0681,9.4990,2.3984,-0.4311,0.1358,-0.3419,-0.3801
4.7500,-0.4878,-0.6988,-0.0464,9.5095,2.3628,-0.3953,0.1529,-0.2812,-0.4275
4.7600,-0.6929,-0.7473,0.0035,9.5206,2.3227,-0.3650,0.1639,-0.2045,-0.4360
4.7700,-1.0292,-0.8177,0.0616,9.5313,2.2818,-0.3418,0.1694,-0.1156,-0.3997
4.7800,-1.4732,-0.8687,0.1138,9.5408,2.2442,-0.3269,0.1620,-0.0301,-0.3285
4.7900,-1.8793,-0.9073,0.1876,9.5482,2.2134,-0.3204,0.1452,0.0411,-0.2353
4.8000,-2.1980,-0.9883,0.2206,9.5533,2.1914,-0.3212,0.1220,0.1138,-0.1055
4.8100,-2.3292,-1.0875,0.1797,9.5552,2.1817,-0.3294,0.0930,0.1764,0.0130
4.8200,-2.3020,-1.1681,0.0725,9.5543,2.1833,-0.3442,0.0588,0.2124,0.0759
4.8300,-2.1212,-1.2079,-0.0606,9.5519,2.1907,-0.3632,0.0121,0.2531,0.0918
4.8400,-1.8381,-1.2143,-0.1863,9.5490,2.1995,-0.3871,-0.0368,0.2928,0.0670
4.8500,-1.7313,-1.2062,-0.2138,9.5463,2.2058,-0.4159,-0.0722,0.3218,0.0316
4.8600,-1.8190,-1.1969,-0.1252,9.5442,2.2085,-0.4482,-0.0903,0.3621,-0.0047
4.8700,-1.9276,-1.1960,-0.0492,9.5426,2.2076,-0.4847,-0.0951,0.4082,-0.0325
4.8800,-1.8939,-1.1757,-0.0680,9.5413,2.2040,-0.5258,-0.0875,0.4323,-0.0481
4.8900,-1.8088,-1.1982,-0.1170,9.5400,2.1989,-0.5690,-0.0673,0.4180,-0.0615
4.9000,-1.7957,-1.2422,-0.1007,9.5388,2.1927,-0.6103,-0.0441,0.3841,-0.0762
4.9100,-1.7566,-1.4274,-0.1709,9.5381,2.1851,-0.6479,-0.0279,0.3340,-0.0793
4.9200,-1.7298,-1.6159,-0.2294,9.5376,2.1774,-0.6804,-0.0218,0.2925,-0.0591
4.9300,-1.7614,-1.5910,-0.1914,9.5369,2.1716,-0.7088,-0.0160,0.2650,-0.0170
4.9400,-1.9203,-1.5294,-0.1814,9.5353,2.1699,-0.7344,0.0002,0.2158,0.0377
4.9500,-2.0124,-1.4744,-0.1644,9.5329,2.1735,-0.7550,0.0240,0.1477,0.0912
4.9600,-1.7471,-1.3719,-0.1628,9.5298,2.1823,-0.7685,0.0493,0.0472,0.1324
4.9700,-1.3668,-1.1826,-0.1809,9.5265,2.1953,-0.7719,0.0747,-0.0802,0.1510
4.9800,-1.1522,-1.0204,-0.1807,9.5238,2.2103,-0.7627,0.0906,-0.1837,0.1394
4.9900,-1.0858,-0.9481,-0.1235,9.5221,2.2242,-0.7432,0.0857,-0.2341,0.0942
5.0000,-1.0699,-0.9398,0.0235,9.5217,2.2338,-0.7190,0.0646,-0.2442,0.0200
5.0100,-1.1825,-0.9278,0.1544,9.5230,2.2362,-0.6943,0.0405,-0.2304,-0.0707
5.0200,-1.4634,-0.9369,0.1878,9.5262,2.2298,-0.6714,0.0206,-0.1822,-0.1688
5.0300,-1.6886,-1.0035,0.1796,9.5311,2.2138,-0.6536,0.0130,-0.0469,-0.2882
5.0400,-1.7623,-1.0444,0.1892,9.5377,2.1864,-0.6489,0.0188,0.1049,-0.3929
5.0500,-1.7641,-1.0070,0.2143,9.5456,2.1490,-0.6585,0.0270,0.1822,-0.4531
5.0600,-1.6313,-0.8981,0.1737,9.5540,2.1060,-0.6753,0.0276,0.1874,-0.4922
5.0700,-1.3996,-0.7219,0.1815,9.5630,2.0591,-0.6926,0.0276,0.1214,-0.5075
5.0800,-1.0452,-0.5754,0.3182,9.5724,2.0107,-0.7037,0.0338,0.0515,-0.4937
5.0900,-0.4345,-0.4577,0.4135,9.5819,1.9637,-0.7079,0.0313,0.0316,-0.4556
5.1000,0.1518,-0.2575,0.4003,9.5905,1.9202,-0.7104,0.0200,0.0576,-0.4042
5.1100,0.4785,-0.0093,0.3109,9.5978,1.8816,-0.7155,0.0124,0.1226,-0.3428
5.1200,0.5687,0.2140,0.1511,9.6034,1.8486,-0.7269,0.0072,0.2091,-0.2753
5.1300,0.5327,0.4013,-0.0259,9.6070,1.8217,-0.7463,-0.0057,0.2839,-0.2228
5.1400,0.5140,0.5008,-0.0890,9.6090,1.8000,-0.7729,-0.0301,0.3267,-0.2146
5.1500,0.5306,0.5862,-0.0459,9.6103,1.7793,-0.8041,-0.0502,0.3468,-0.2534
5.1600,0.7852,0.7084,-0.0846,9.6119,1.7553,-0.8371,-0.0597,0.3541,-0.3157
5.1700,1.3779,0.8512,-0.3204,9.6142,1.7262,-0.8707,-0.0597,0.3227,-0.3740
5.1800,2.2761,1.0830,-0.6870,9.6174,1.6919,-0.9015,-0.0502,0.2237,-0.4088
5.1900,2.8162,1.2387,-0.8770,9.6220,1.6535,-0.9235,-0.0359,0.0383,-0.4198
5.2000,3.4609,1.3066,-0.8859,9.6285,1.6131,-0.9277,-0.0163,-0.2112,-0.4128
5.2100,4.2497,1.3453,-0.7851,9.6370,1.5732,-0.9076,0.0044,-0.4430,-0.3893
5.2200,4.4660,1.3170,-0.4831,9.6469,1.5357,-0.8648,0.0267,-0.5866,-0.3523
5.2300,4.5084,1.2933,-0.0613,9.6572,1.5019,-0.8078,0.0524,-0.6156,-0.3114
5.2400,4.3661,1.2452,0.3429,9.6666,1.4722,-0.7476,0.0786,-0.5234,-0.2714
5.2500,4.1537,1.0638,0.5964,9.6744,1.4466,-0.6958,0.0991,-0.3309,-0.2347
5.2600,3.9852,0.7458,0.6755,9.6800,1.4245,-0.6624,0.1101,-0.0359,-0.1923
5.2700,3.7213,0.5159,0.6071,9.6830,1.4066,-0.6573,0.1171,0.2543,-0.1437
5.2800,3.5235,0.4716,0.5630,9.6833,1.3935,-0.6803,0.1248,0.4546,-0.0909
5.2900,3.1208,0.4161,0.2007,9.6813,1.3856,-0.7226,0.1315,0.5765,-0.0316
5.3000,2.6997,0.3451,-0.3762,9.6774,1.3835,-0.7766,0.1403,0.5762,0.0273
5.3100,2.7286,0.3449,-0.7282,9.6724,1.3873,-0.8304,0.1648,0.4577,0.0872
5.3200,3.0737,0.2932,-0.8287,9.6673,1.3971,-0.8724,0.2143,0.2757,0.1483
5.3300,3.6109,0.3189,-0.6543,9.6628,1.4133,-0.8960,0.2778,0.0826,0.2051
5.3400,4.0515,0.6114,-0.4814,9.6591,1.4356,-0.9000,0.3468,-0.0799,0.2451
5.3500,4.5488,1.0180,-0.4355,9.6563,1.4624,-0.8873,0.4293,-0.1629,0.2497
5.3600,4.9917,1.2056,-0.4672,9.6540,1.4903,-0.8652,0.5279,-0.1907,0.1996
5.3700,4.9620,1.0142,-0.4313,9.6527,1.5140,-0.8389,0.6593,-0.2421,0.0622
5.3800,4.3575,0.6066,-0.2623,9.6537,1.5254,-0.8055,0.7766,-0.2885,-0.0841
5.3900,3.5806,0.2770,-0.0566,9.6573,1.5234,-0.7658,0.8416,-0.2812,-0.1520
5.4000,2.8256,0.1490,0.1333,9.6617,1.5150,-0.7259,0.8755,-0.2472,-0.1523
5.4100,2.0745,0.0952,0.2039,9.6657,1.5065,-0.6887,0.8764,-0.2033,-0.0759
5.4200,1.5130,0.0751,0.1806,9.6682,1.5050,-0.6559,0.8572,-0.1608,0.0658
5.4300,1.1802,0.1423,0.2012,9.6683,1.5169,-0.6274,0.8294,-0.1400,0.2433
5.4400,1.0597,0.2992,0.2420,9.6654,1.5455,-0.6012,0.7955,-0.1559,0.4238
5.4500,1.0535,0.4344,0.3127,9.6596,1.5911,-0.5736,0.7533,-0.2027,0.5695
5.4600,1.0209,0.4614,0.3503,9.6515,1.6503,-0.5419,0.6975,-0.2561,0.6562
5.4700,0.9959,0.4136,0.3163,9.6418,1.7173,-0.5054,0.6202,-0.2912,0.6752
5.4800,1.0135,0.4065,0.1649,9.6314,1.7854,-0.4665,0.5270,-0.2995,0.6263
5.4900,1.1469,0.4241,0.0092,9.6214,1.8480,-0.4281,0.4061,-0.2857,0.4962
5.5000,1.2304,0.3783,0.0495,9.6133,1.8974,-0.3931,0.2827,-0.2778,0.3459
5.5100,1.0552,0.2984,0.2090,9.6077,1.9318,-0.3610,0.1794,-0.2644,0.2396
5.5200,0.7189,0.2688,0.3106,9.6040,1.9554,-0.3321,0.0756,-0.2201,0.1752
5.5300,0.2979,0.3715,0.3155,9.6012,1.9725,-0.3095,-0.0255,-0.1764,0.1672
5.5400,-0.2069,0.5482,0.3254,9.5985,1.9885,-0.2931,-0.1174,-0.1458,0.2112
5.5500,-0.4868,0.6252,0.3317,9.5947,2.0084,-0.2814,-0.1901,-0.0930,0.2970
5.5600,-1.1622,0.7575,0.4785,9.5889,2.0365,-0.2762,-0.2427,0.0105,0.4125
5.5700,-2.0572,0.9605,0.7147,9.5801,2.0765,-0.2813,-0.2812,0.1520,0.5377
5.5800,-2.4076,1.0757,0.8227,9.5678,2.1301,-0.2995,-0.3086,0.3089,0.6547
5.5900,-2.4719,1.1052,0.8022,9.5519,2.1953,-0.3329,-0.3172,0.4635,0.7515
5.6000,-2.1177,1.0474,0.6753,9.5329,2.2685,-0.3820,-0.2824,0.5826,0.8270
5.6100,-1.6733,1.0566,0.4999,9.5110,2.3479,-0.4424,-0.2109,0.5997,0.8612
5.6200,-1.3886,1.1972,0.3297,9.4873,2.4300,-0.5033,-0.1242,0.5203,0.8496
5.6300,-1.2509,1.2574,0.2746,9.4634,2.5110,-0.5547,-0.0255,0.3884,0.8132
5.6400,-0.7129,1.4795,0.0403,9.4400,2.5894,-0.5910,0.0725,0.1944,0.7488
5.6500,0.2017,1.7454,-0.3051,9.4185,2.6635,-0.6059,0.1550,-0.0606,0.6413
5.6600,0.5984,1.7183,-0.4066,9.4001,2.7302,-0.5942,0.2100,-0.3456,0.4833
5.6700,0.7843,1.4853,-0.3219,9.3865,2.7847,-0.5544,0.2311,-0.5820,0.2894
5.6800,0.7666,1.0994,-0.0759,9.3791,2.8211,-0.4928,0.2170,-0.6770,0.0826
5.6900,0.4637,0.7372,0.2797,9.3780,2.8361,-0.4233,0.1746,-0.5909,-0.1174
5.7000,0.2825,0.4776,0.6601,9.3820,2.8312,-0.3632,0.1153,-0.3862,-0.2915
5.7100,0.0888,0.3751,0.9627,9.3901,2.8092,-0.3234,0.0545,-0.1510,-0.4213
5.7200,-0.2476,0.3174,1.1757,9.4009,2.7747,-0.3066,-0.0066,0.1309,-0.4870
5.7300,-0.6158,0.2454,1.2084,9.4124,2.7342,-0.3165,-0.0475,0.3990,-0.4675
5.7400,-0.8805,0.1947,0.9913,9.4221,2.6963,-0.3509,-0.0521,0.5710,-0.3771
5.7500,-1.1670,0.2072,0.5451,9.4285,2.6671,-0.4003,-0.0338,0.6400,-0.2549
5.7600,-1.5491,0.2723,-0.0049,9.4312,2.6486,-0.4560,0.0026,0.5957,-0.1300
5.7700,-1.8420,0.3640,-0.4698,9.4307,2.6407,-0.5083,0.0502,0.4879,-0.0209
5.7800,-1.7554,0.5027,-0.7623,9.4279,2.6421,-0.5509,0.1022,0.3722,0.0573
5.7900,-1.2437,0.6706,-0.8852,9.4238,2.6501,-0.5824,0.1452,0.2870,0.0866
5.8000,-0.5173,0.8153,-0.9006,9.4193,2.6610,-0.6054,0.1666,0.2439,0.0554
5.8100,-0.1305,0.8735,-0.8818,9.4155,2.6699,-0.6241,0.1477,0.2277,-0.0652
5.8200,0.7289,0.9555,-0.9077,9.4145,2.6693,-0.6426,0.1074,0.1629,-0.2524
5.8300,1.4291,0.8477,-0.8668,9.4182,2.6526,-0.6571,0.0912,0.0273,-0.4464
5.8400,1.1452,0.4882,-0.6547,9.4279,2.6170,-0.6597,0.0866,-0.0851,-0.5618
5.8500,0.7962,0.2156,-0.4808,9.4417,2.5688,-0.6516,0.0600,-0.1773,-0.5710
5.8600,0.3374,0.0360,-0.4719,9.4563,2.5186,-0.6354,0.0139,-0.3031,-0.5353
5.8700,-0.1150,-0.1225,-0.5130,9.4706,2.4712,-0.6087,-0.0383,-0.4540,-0.4778
5.8800,-0.5497,-0.3364,-0.4766,9.4840,2.4289,-0.5696,-0.0930,-0.6006,-0.4140
5.8900,-0.8359,-0.5969,-0.2697,9.4961,2.3926,-0.5191,-0.1480,-0.6642,-0.3538
5.9000,-0.6203,-0.7058,-0.0202,9.5067,2.3614,-0.4646,-0.1947,-0.5716,-0.3059
5.9100,0.1943,-0.6924,0.1586,9.5157,2.3336,-0.4196,-0.2243,-0.3532,-0.2741
5.9200,1.1326,-0.6496,0.3078,9.5231,2.3076,-0.3952,-0.2335,-0.1266,-0.2524
5.9300,1.7920,-0.5241,0.3612,9.5293,2.2826,-0.3912,-0.2085,0.0374,-0.2277
5.9400,2.0970,-0.5166,0.3670,9.5344,2.2595,-0.4005,-0.1471,0.1306,-0.1788
5.9500,1.8982,-0.6227,0.3937,9.5380,2.2412,-0.4165,-0.0548,0.1162,-0.0564
5.9600,1.3167,-0.6775,0.4431,9.5390,2.2349,-0.4288,0.0283,0.0243,0.1135
5.9700,0.6651,-0.6860,0.5251,9.5357,2.2488,-0.4275,0.0777,-0.0780,0.2747
5.9800,0.0219,-0.6743,0.6149,9.5301,2.2742,-0.4180,0.1129,-0.1782,0.4162
5.9900,-0.4447,-0.6637,0.6399,9.5226,2.3085,-0.4005,0.1257,-0.2564,0.4925
6.0000,-0.7116,-0.6227,0.6148,9.5130,2.3525,-0.3718,0.1083,-0.3242,0.4943
6.0100,-0.9214,-0.5611,0.5782,9.5037,2.3950,-0.3364,0.0716,-0.3758,0.4406
6.0200,-0.9661,-0.5365,0.4905,9.4958,2.4315,-0.2966,0.0292,-0.3737,0.3364
6.0300,-0.8718,-0.4400,0.4329,9.4900,2.4583,-0.2581,-0.0157,-0.3248,0.1962
6.0400,-0.6354,-0.2929,0.3683,9.4871,2.4728,-0.2258,-0.0539,-0.2549,0.0463
6.0500,-0.2311,-0.2077,0.2121,9.4874,2.4738,-0.2013,-0.0805,-0.1797,-0.0918
6.0600,0.1354,-0.1098,0.0470,9.4908,2.4621,-0.1847,-0.0988,-0.1141,-0.2195
6.0700,0.4069,-0.0083,-0.1172,9.4970,2.4384,-0.1749,-0.1000,-0.0811,-0.2937
6.0800,0.5714,0.0483,-0.2456,9.5049,2.4082,-0.1686,-0.0823,-0.0805,-0.2903
6.0900,0.5999,0.0523,-0.2805,9.5123,2.3790,-0.1624,-0.0573,-0.0936,-0.2411
6.1000,0.5854,0.0488,-0.2833,9.5184,2.3550,-0.1548,-0.0344,-0.1080,-0.1617
6.1100,0.4544,0.0217,-0.2364,9.5225,2.3390,-0.1455,-0.0121,-0.1187,-0.0695
6.1200,0.2179,-0.0155,-0.1897,9.5244,2.3319,-0.1348,0.0130,-0.1205,0.0209
6.1300,0.0362,-0.0207,-0.1843,9.5242,2.3334,-0.1234,0.0341,-0.1034,0.0951
6.1400,-0.0564,-0.0281,-0.1752,9.5222,2.3421,-0.1133,0.0463,-0.0710,0.1431
6.1500,-0.0904,-0.0257,-0.2147,9.5190,2.3552,-0.1061,0.0481,-0.0444,0.1599
6.1600,-0.0987,0.0087,-0.2815,9.5154,2.3699,-0.1015,0.0408,-0.0392,0.1532
6.1700,-0.1252,0.0665,-0.2672,9.5120,2.3840,-0.0979,0.0310,-0.0499,0.1330
6.1800,-0.1976,0.1046,-0.1422,9.5090,2.3961,-0.0936,0.0212,-0.0661,0.0994
6.1900,-0.2361,0.1110,-0.0628,9.5067,2.4053,-0.0880,0.0136,-0.0838,0.0649
6.2000,-0.2837,0.1134,0.0028,9.5052,2.4113,-0.0806,0.0099,-0.1043,0.0396
6.2100,-0.3331,0.1120,0.0747,9.5043,2.4151,-0.0711,0.0047,-0.1217,0.0148
6.2200,-0.2633,0.0769,0.0323,9.5040,2.4166,-0.0599,-0.0044,-0.1242,-0.0115
6.2300,-0.1355,0.0587,-0.0365,9.5043,2.4157,-0.0485,-0.0157,-0.1184,-0.0414
6.2400,-0.0743,0.0613,-0.0733,9.5053,2.4120,-0.0380,-0.0258,-0.1135,-0.0762
6.2500,-0.0222,0.0204,-0.0687,9.5071,2.4049,-0.0283,-0.0310,-0.0961,-0.1077
6.2600,0.0962,-0.0379,-0.0491,9.5097,2.3950,-0.0203,-0.0322,-0.0670,-0.1303
6.2700,0.1745,-0.0556,-0.0399,9.5127,2.3828,-0.0151,-0.0310,-0.0423,-0.1431
6.2800,0.1687,-0.0637,-0.0333,9.5161,2.3694,-0.0122,-0.0264,-0.0243,-0.1477
6.2900,0.0899,-0.0977,-0.0252,9.5196,2.3554,-0.0108,-0.0160,-0.0145,-0.1376
6.3000,0.0064,-0.1409,-0.0056,9.5228,2.3424,-0.0100,-0.0047,-0.0099,-0.1171
6.3100,0.0229,-0.1657,0.0344,9.5255,2.3313,-0.0093,0.0032,-0.0035,-0.0994
6.3200,0.0924,-0.1551,0.0712,9.5278,2.3218,-0.0090,0.0111,0.0020,-0.0832
6.3300,0.1754,-0.1758,0.0568,9.5298,2.3138,-0.0090,0.0176,0.0075,-0.0625
6.3400,0.2243,-0.2392,-0.0027,9.5312,2.3078,-0.0093,0.0166,0.0020,-0.0334
6.3500,0.1947,-0.2514,-0.0399,9.5320,2.3045,-0.0091,0.0063,-0.0176,0.0005
6.3600,0.1324,-0.2284,-0.0106,9.5321,2.3042,-0.0074,-0.0075,-0.0237,0.0325
6.3700,0.1067,-0.2022,0.0245,9.5315,2.3067,-0.0054,-0.0182,-0.0063,0.0576
6.3800,0.0983,-0.1604,0.0340,9.5303,2.3116,-0.0053,-0.0224,0.0176,0.0713
6.3900,0.0842,-0.1437,0.0386,9.5288,2.3176,-0.0075,-0.0197,0.0350,0.0732
6.4000,0.0853,-0.1125,0.0518,9.5277,2.3224,-0.0111,-0.0099,0.0493,0.0701
6.4100,0.0454,-0.1001,0.0323,9.5269,2.3255,-0.0155,0.0084,0.0423,0.0619
6.4200,-0.0462,-0.1409,-0.0124,9.5263,2.3280,-0.0187,0.0212,0.0133,0.0524
6.4300,-0.1032,-0.1701,-0.0169,9.5259,2.3297,-0.0190,0.0191,-0.0096,0.0481
6.4400,-0.1005,-0.1726,0.0102,9.5256,2.3309,-0.0174,0.0102,-0.0215,0.0396
6.4500,-0.1040,-0.1371,0.0376,9.5255,2.3313,-0.0149,-0.0008,-0.0246,0.0203
6.4600,-0.1402,-0.0893,0.0506,9.5257,2.3303,-0.0123,-0.0081,-0.0188,-0.0057
6.4700,-0.1528,-0.0602,0.0439,9.5264,2.3275,-0.0104,-0.0096,-0.0087,-0.0322
6.4800,-0.1264,-0.0448,0.0143,9.5276,2.3229,-0.0095,-0.0078,-0.0011,-0.0524
6.4900,-0.0561,-0.0436,-0.0373,9.5290,2.3169,-0.0093,-0.0035,0.0014,-0.0677
6.5000,0.0464,-0.0413,-0.0779,9.5307,2.3098,-0.0095,0.0032,0.0038,-0.0774
6.5100,0.0923,-0.0299,-0.0860,9.5326,2.3020,-0.0098,0.0096,0.0093,-0.0741
6.5200,0.1253,-0.0296,-0.1103,9.5344,2.2945,-0.0106,0.0099,0.0020,-0.0564
6.5300,0.1598,-0.0490,-0.1412,9.5358,2.2888,-0.0108,0.0044,-0.0136,-0.0371
6.5400,0.1660,-0.0498,-0.1277,9.5368,2.2848,-0.0100,-0.0023,-0.0215,-0.0279
6.5500,0.1461,-0.0514,-0.0799,9.5375,2.2816,-0.0087,-0.0075,-0.0240,-0.0283
6.5600,0.1046,-0.0756,-0.0249,9.5383,2.2783,-0.0074,-0.0102,-0.0255,-0.0353
6.5700,0.0701,-0.0991,0.0287,9.5393,2.2743,-0.0060,-0.0108,-0.0267,-0.0447
6.5800,0.0510,-0.1122,0.0545,9.5405,2.2694,-0.0042,-0.0084,-0.0237,-0.0536
6.5900,0.0221,-0.1508,0.0623,9.5418,2.2637,-0.0025,-0.0026,-0.0118,-0.0576
6.6000,0.0194,-0.1996,0.0387,9.5433,2.2574,-0.0016,0.0014,0.0060,-0.0570
6.6100,0.0634,-0.2075,-0.0301,9.5448,2.2509,-0.0022,0.0014,0.0194,-0.0536
6.6200,0.0726,-0.2033,-0.0904,9.5464,2.2444,-0.0042,-0.0014,0.0237,-0.0475
6.6300,0.0352,-0.1874,-0.1141,9.5478,2.2381,-0.0068,-0.0044,0.0212,-0.0371
6.6400,0.0112,-0.1519,-0.0886,9.5492,2.2325,-0.0095,-0.0038,0.0160,-0.0170
6.6500,-0.0232,-0.1158,-0.0133,9.5500,2.2287,-0.0119,0.0032,0.0017,0.0041
6.6600,-0.1493,-0.0902,0.0628,9.5504,2.2270,-0.0126,0.0173,-0.0121,0.0185
6.6700,-0.2702,-0.1298,0.0916,9.5504,2.2272,-0.0114,0.0292,0.0234,0.0722
6.6800,-0.0474,-0.1460,-0.0062,9.5491,2.2325,-0.0129,0.0283,0.0567,0.1749
6.6900,0.2110,-0.1186,-0.1044,9.5457,2.2470,-0.0177,0.0203,0.0139,0.2479
6.7000,0.2637,-0.0268,-0.1164,9.5408,2.2678,-0.0188,0.0224,-0.0570,0.2427
6.7100,0.2793,0.1027,-0.1073,9.5360,2.2879,-0.0136,0.0322,-0.0896,0.1681
6.7200,0.2586,0.1359,-0.0844,9.5328,2.3014,-0.0054,0.0331,-0.0728,0.0493
6.7300,0.1875,0.1304,-0.0911,9.5320,2.3045,0.0013,0.0176,-0.0472,-0.0851
6.7400,0.0944,0.0926,-0.1022,9.5342,2.2956,0.0052,-0.0093,-0.0191,-0.1959
6.7500,0.1090,0.0206,-0.1021,9.5387,2.2767,0.0063,-0.0325,0.0218,-0.2335
6.7600,0.1145,-0.0685,-0.0764,9.5440,2.2544,0.0034,-0.0383,0.0441,-0.1956
6.7700,0.0551,-0.1133,-0.0376,9.5484,2.2358,-0.0019,-0.0295,0.0377,-0.1202
6.7800,-0.0661,-0.1138,0.0146,9.5511,2.2243,-0.0062,-0.0124,0.0221,-0.0338
6.7900,-0.2201,-0.1381,0.0302,9.5518,2.2210,-0.0087,0.0133,0.0105,0.0396
6.8000,-0.2851,-0.1813,0.0238,9.5509,2.2248,-0.0094,0.0389,0.0108,0.0893
6.8100,-0.1694,-0.1898,0.0336,9.5490,2.2332,-0.0097,0.0539,0.0130,0.1089
6.8200,-0.0174,-0.1557,0.0002,9.5466,2.2435,-0.0097,0.0536,0.0145,0.0985
6.8300,0.0363,-0.1074,-0.0152,9.5444,2.2526,-0.0100,0.0451,0.0258,0.0728
6.8400,0.1432,-0.0674,0.0019,9.5429,2.2593,-0.0114,0.0380,0.0438,0.0475
6.8500,0.2412,-0.0476,-0.0091,9.5418,2.2635,-0.0148,0.0341,0.0472,0.0331
6.8600,0.2179,-0.0541,-0.0222,9.5412,2.2663,-0.0185,0.0292,0.0331,0.0310
6.8700,0.1958,-0.0746,-0.0149,9.5405,2.2689,-0.0210,0.0191,0.0176,0.0368
6.8800,0.2073,-0.0730,-0.0100,9.5398,2.2721,-0.0223,0.0105,0.0060,0.0460
6.8900,0.2202,-0.0734,-0.0252,9.5388,2.2761,-0.0227,0.0084,-0.0047,0.0560
6.9000,0.1771,-0.0951,-0.0426,9.5376,2.2810,-0.0221,0.0087,-0.0182,0.0692
6.9100,0.0721,-0.1157,-0.0277,9.5362,2.2872,-0.0202,0.0081,-0.0273,0.0854
6.9200,-0.0327,-0.1281,0.0043,9.5343,2.2948,-0.0175,0.0050,-0.0273,0.0988
6.9300,-0.0808,-0.1298,0.0388,9.5322,2.3037,-0.0148,0.0023,-0.0200,0.1049
6.9400,-0.0690,-0.1152,0.0560,9.5299,2.3131,-0.0129,0.0032,-0.0090,0.1040
6.9500,-0.0535,-0.0826,0.0503,9.5277,2.3224,-0.0120,0.0066,-0.0050,0.0988
6.9600,-0.0861,-0.0495,0.0520,9.5255,2.3312,-0.0113,0.0133,-0.0060,0.0881
6.9700,-0.1333,-0.0478,0.0535,9.5236,2.3390,-0.0104,0.0237,0.0014,0.0786
6.9800,-0.1459,-0.0572,0.0470,9.5219,2.3461,-0.0099,0.0374,0.0170,0.0680
6.9900,-0.1420,-0.0562,0.0417,9.5204,2.3522,-0.0106,0.0496,0.0270,0.0536
7.0000,-0.0354,-0.0334,0.0011,9.5192,2.3570,-0.0119,0.0564,0.0246,0.0396
7.0100,0.1114,-0.0209,-0.0399,9.5184,2.3601,-0.0128,0.0606,0.0170,0.0276
7.0200,0.1872,-0.0428,-0.0602,9.5180,2.3616,-0.0129,0.0622,0.0090,0.0258
7.0300,0.2425,-0.0633,-0.0763,9.5177,2.3629,-0.0123,0.0591,-0.0008,0.0347
7.0400,0.2538,-0.0988,-0.0548,9.5172,2.3649,-0.0110,0.0509,-0.0111,0.0484
7.0500,0.2498,-0.1317,-0.0172,9.5165,2.3679,-0.0091,0.0386,-0.0075,0.0732
7.0600,0.2629,-0.1306,0.0282,9.5153,2.3727,-0.0079,0.0249,0.0124,0.1122
7.0700,0.2386,-0.0823,0.0698,9.5133,2.3807,-0.0088,0.0154,0.0310,0.1593
7.0800,0.1842,-0.0046,0.1035,9.5102,2.3928,-0.0113,0.0179,0.0478,0.2121
7.0900,0.1131,0.0453,0.1431,9.5059,2.4099,-0.0150,0.0444,0.0710,0.2711
7.1000,0.0674,0.0430,0.1682,9.5001,2.4326,-0.0197,0.0805,0.1040,0.3154
7.1100,-0.0693,0.0221,0.1995,9.4932,2.4595,-0.0259,0.1064,0.1407,0.3389
7.1200,-0.2713,-0.0198,0.1693,9.4857,2.4882,-0.0341,0.1260,0.1678,0.3563
7.1300,-0.2825,-0.0223,0.0209,9.4777,2.5182,-0.0436,0.1376,0.1797,0.3560
7.1400,-0.2273,-0.0071,-0.0621,9.4692,2.5497,-0.0552,0.1352,0.1703,0.3291
7.1500,-0.2836,-0.0508,-0.1576,9.4608,2.5803,-0.0674,0.1199,0.1455,0.2720
7.1600,-0.4107,-0.0258,-0.2621,9.4539,2.6055,-0.0779,0.1077,0.1226,0.1880
7.1700,-0.5075,0.0622,-0.2461,9.4490,2.6229,-0.0867,0.1086,0.1141,0.0805
7.1800,-0.4216,0.1013,-0.2082,9.4468,2.6304,-0.0947,0.1177,0.1251,-0.0444
7.1900,-0.2012,0.0935,-0.1803,9.4479,2.6263,-0.1034,0.1269,0.1452,-0.1636
7.2000,0.0377,0.0502,-0.1422,9.4520,2.6110,-0.1139,0.1318,0.1593,-0.2585
7.2100,0.2719,-0.0286,-0.1161,9.4585,2.5868,-0.1257,0.1220,0.1495,-0.3193
7.2200,0.4446,-0.0848,-0.0978,9.4665,2.5568,-0.1368,0.0958,0.1177,-0.3355
7.2300,0.5536,-0.0820,-0.0327,9.4748,2.5252,-0.1456,0.0713,0.0799,-0.3086
7.2400,0.5053,-0.0708,0.0677,9.4824,2.4961,-0.1515,0.0622,0.0588,-0.2482
7.2500,0.3986,-0.0785,0.1687,9.4885,2.4727,-0.1556,0.0692,0.0725,-0.1602
7.2600,0.3769,-0.0838,0.2146,9.4923,2.4576,-0.1607,0.0829,0.0979,-0.0551
7.2700,0.3649,-0.0810,0.1380,9.4935,2.4525,-0.1679,0.0945,0.1074,0.0527
7.2800,0.3819,-0.1041,-0.0339,9.4921,2.4576,-0.1756,0.0948,0.0988,0.1498
7.2900,0.3809,-0.1123,-0.1946,9.4883,2.4717,-0.1825,0.0768,0.0722,0.2274
7.3000,0.3052,-0.0833,-0.2771,9.4826,2.4931,-0.1874,0.0521,0.0334,0.2824
7.3100,0.2021,-0.0773,-0.2512,9.4756,2.5194,-0.1893,0.0334,0.0011,0.3138
7.3200,0.0386,-0.0693,-0.1512,9.4678,2.5485,-0.1888,0.0182,-0.0228,0.3147
7.3300,-0.1439,-0.0419,-0.0661,9.4600,2.5774,-0.1865,0.0093,-0.0368,0.2882
7.3400,-0.2182,-0.0419,-0.0419,9.4529,2.6037,-0.1831,0.0099,-0.0454,0.2469
7.3500,-0.2120,-0.0596,-0.0150,9.4468,2.6261,-0.1790,0.0142,-0.0518,0.2011
7.3600,-0.2346,-0.0981,0.0232,9.4418,2.6443,-0.1741,0.0185,-0.0344,0.1611
7.3700,-0.2426,-0.1161,-0.0017,9.4378,2.6587,-0.1707,0.0170,0.0084,0.1315
7.3800,-0.2321,-0.0595,-0.0706,9.4345,2.6704,-0.1712,0.0081,0.0438,0.1132
7.3900,-0.2256,-0.0074,-0.0928,9.4316,2.6805,-0.1754,0.0005,0.0502,0.1077
7.4000,-0.2311,0.0284,-0.0627,9.4287,2.6902,-0.1803,0.0011,0.0325,0.1107
7.4100,-0.2904,0.0529,0.0039,9.4257,2.7004,-0.1835,0.0078,0.0075,0.1095
7.4200,-0.3293,0.0476,0.0524,9.4228,2.7106,-0.1841,0.0154,-0.0115,0.0939
7.4300,-0.2837,0.0651,0.0665,9.4203,2.7194,-0.1826,0.0194,-0.0283,0.0619
7.4400,-0.2055,0.0820,0.0765,9.4187,2.7252,-0.1795,0.0221,-0.0249,0.0115
7.4500,-0.0939,0.0964,0.0819,9.4184,2.7263,-0.1765,0.0240,0.0084,-0.0313
7.4600,0.0346,0.0909,0.0498,9.4192,2.7234,-0.1766,0.0319,0.0432,-0.0457
7.4700,0.2226,0.0461,-0.0751,9.4204,2.7192,-0.1798,0.0338,0.0661,-0.0548
7.4800,0.3996,0.0691,-0.2123,9.4218,2.7141,-0.1851,0.0121,0.0606,-0.0765
7.4900,0.4395,0.0739,-0.2775,9.4237,2.7070,-0.1906,-0.0057,0.0246,-0.0988
7.5000,0.3998,0.0101,-0.2283,9.4263,2.6977,-0.1931,-0.0087,-0.0136,-0.1095
7.5100,0.2412,-0.0442,-0.1166,9.4293,2.6874,-0.1922,-0.0176,-0.0396,-0.1101
7.5200,0.0562,-0.0853,-0.0658,9.4323,2.6770,-0.1892,-0.0334,-0.0502,-0.1013
7.5300,-0.0663,-0.1116,-0.0515,9.4351,2.6674,-0.1855,-0.0447,-0.0536,-0.0930
7.5400,-0.1048,-0.1506,0.0023,9.4377,2.6585,-0.1819,-0.0463,-0.0564,-0.0881
7.5500,-0.1108,-0.1697,0.0714,9.4401,2.6501,-0.1780,-0.0365,-0.0518,-0.0719
7.5600,-0.0949,-0.1508,0.1083,9.4421,2.6432,-0.1741,-0.0154,-0.0221,-0.0341
7.5700,-0.0647,-0.1224,0.0935,9.4431,2.6399,-0.1725,0.0035,0.0197,0.0115
7.5800,-0.0356,-0.0887,0.0199,9.4428,2.6409,-0.1743,0.0124,0.0478,0.0451
7.5900,0.0279,-0.0378,-0.0681,9.4415,2.6451,-0.1785,0.0188,0.0640,0.0652
7.6000,0.0285,0.0231,-0.1176,9.4397,2.6512,-0.1841,0.0246,0.0725,0.0719
7.6100,0.0054,0.0475,-0.1281,9.4377,2.6579,-0.1903,0.0295,0.0863,0.0646
7.6200,-0.0239,0.0498,-0.1028,9.4358,2.6640,-0.1977,0.0310,0.1064,0.0487
7.6300,-0.0044,0.0548,-0.1019,9.4343,2.6686,-0.2069,0.0283,0.1055,0.0255
7.6400,0.0647,0.0368,-0.1621,9.4334,2.6711,-0.2162,0.0249,0.0722,-0.0041
7.6500,0.1114,-0.0071,-0.1868,9.4334,2.6706,-0.2226,0.0209,0.0341,-0.0295
7.6600,0.2591,-0.0354,-0.1465,9.4341,2.6678,-0.2258,0.0136,0.0060,-0.0438
7.6700,0.4183,-0.0143,-0.0653,9.4353,2.6634,-0.2268,0.0066,-0.0380,-0.0386
7.6800,0.3214,-0.0019,0.0813,9.4365,2.6595,-0.2238,0.0096,-0.0661,-0.0084
7.6900,0.1473,-0.0475,0.2034,9.4370,2.6583,-0.2178,0.0191,-0.0304,0.0426
7.7000,0.1244,-0.0571,0.1882,9.4360,2.6620,-0.2145,0.0228,0.0221,0.1031
7.7100,0.0133,-0.0292,0.1320,9.4334,2.6712,-0.2158,0.0249,0.0579,0.1568
7.7200,-0.1718,-0.0372,0.1208,9.4293,2.6852,-0.2201,0.0328,0.1019,0.1981
7.7300,-0.3019,-0.0369,0.0699,9.4241,2.7028,-0.2280,0.0496,0.1397,0.2213
7.7400,-0.3701,-0.0362,0.0255,9.4181,2.7225,-0.2386,0.0725,0.1483,0.2262
7.7500,-0.1316,0.0040,-0.1439,9.4118,2.7433,-0.2499,0.0750,0.1520,0.2033
7.7600,0.5316,0.0999,-0.5232,9.4059,2.7624,-0.2621,0.0518,0.0725,0.1300
7.7700,0.8190,0.1751,-0.6002,9.4022,2.7745,-0.2677,0.0221,-0.1187,0.0237
