seconds_elapsed,acc_z,acc_y,acc_x,grav_z,grav_y,grav_x,gyro_z,gyro_y,gyro_x
22.12,1.7012759049733481,6.488979657491048,-5.565176328023274,-0.35653264820575714,-7.229586124420166,6.615433057149251,1.462793231010437,-1.1432343125343323,-0.9860129058361053
22.13,3.829620122909546,6.544520854949951,-5.100385665893555,-0.4717523008584976,-7.308271169662476,6.521344423294067,1.5618551969528198,-0.9767735401789347,-0.29074642062187195
22.14,2.445386091868083,4.077025095621744,-6.814402898152669,-0.5539667208989462,-7.424917062123616,6.381850560506185,1.3580297827720642,-1.2953397631645203,1.2842677682638168
22.15,0.2870314121246338,1.2787387371063232,-8.89732027053833,-0.5324370563030243,-7.501418590545654,6.293626070022583,1.151150067647298,-1.1419107715288797,2.4011330604553223
22.16,-3.357514063517252,-2.3203431765238447,-12.024269421895344,-0.3750465909639994,-7.596739292144775,6.1894001960754395,1.157055139541626,-0.5237151235342026,3.239443858464559
22.17,0.33104721705118845,-5.5497314135233555,-12.493694305419922,-0.1275402456521987,-7.681724389394124,6.0928958257039385,1.5465835332870483,-0.0739146939013153,3.8859427769978843
22.18,2.803645928700765,-11.127074400583904,-11.458255767822266,0.18112550924221676,-7.788416385650635,5.953686873118083,2.2141574025154114,-0.7049384670099244,4.23413610458374
22.19,2.0326567888259888,-16.38471794128418,-11.210865020751953,0.4178086668252945,-7.8896448612213135,5.806852579116821,2.5207099119822183,-1.6293811798095703,4.3204719225565595
22.2,2.0041631062825522,-24.561901728312172,-10.680981318155926,0.7012847463289896,-8.031464417775473,5.581231594085693,2.6011404991149902,-2.0302106142044067,4.405789375305176
22.21,1.8065630197525024,-29.355876922607422,-7.971145153045655,0.906067430973053,-8.120562553405762,5.420122861862183,2.3299163579940796,-2.077349106470744,4.5597273508707685
22.22,-1.559715509414673,-26.742594401041668,-3.32463010152181,1.213354269663493,-8.197786013285318,5.241587479909261,1.3012193441390991,-2.6587910652160645,4.715497970581055
22.23,-4.878189563751221,-20.269651412963867,-1.8530784845352173,1.4160244464874268,-8.19815444946289,5.190595626831055,0.49263736481467885,-3.2276083628336587,4.649117310841879
22.24,-9.646856307983398,-11.958899815877277,-3.8380393187204995,1.6531159083048503,-8.13383928934733,5.221888065338135,-0.27206410653889174,-3.50606107711792,4.52124285697937
22.25,-11.832605361938477,-9.087139129638672,-6.980354309082031,1.8041924834251404,-8.054746627807617,5.293639183044434,-0.5303582946459452,-3.198286851247152,4.4247260093688965
22.26,-12.76336924235026,-8.03693962097168,-10.771804809570312,2.0250752766927085,-7.922609329223633,5.4117857615153,-0.5334126253922781,-2.345111687978109,4.145356893539429
22.27,-13.7978884379069,-6.461632251739502,-13.119941393534342,2.228806495666504,-7.812199433644612,5.491715431213379,-0.4318053722381592,-1.7018705606460571,3.523699879646301
22.28,-14.732666969299316,-4.530294179916382,-14.228260040283203,2.3746960163116455,-7.725923776626587,5.552570581436157,-0.428343802690506,-1.8928678035736084,2.9739211400349936
22.29,-14.717312494913738,-2.316624323527018,-13.681779225667318,2.4930175145467124,-7.619612058003743,5.647336641947429,-0.3637957175572713,-2.191988150278727,2.073709408442179
22.3,-13.419947942097982,-1.0757905642191568,-12.121323903401693,2.498896519343058,-7.558797995249431,5.7261115709940595,-0.21515183895826334,-1.830559531847636,1.0588585535685222
22.31,-10.135767936706543,1.7255190213521323,-11.64408810933431,2.4716291427612305,-7.5307596524556475,5.774802525838216,-0.135230291634798,-0.0702495276927948,0.43760859966278076
22.32,-7.298884868621826,4.323456525802612,-10.935538291931152,2.5055437088012695,-7.514927387237549,5.780672550201416,-0.16750434041023252,1.3060299158096313,0.6076327562332153
22.33,-4.4810787836710615,6.876874605814616,-8.018938064575195,2.674254576365153,-7.481011549631755,5.748436609903972,-0.11558079921330008,2.00811775525411,1.161483923594157
22.34,-3.8446272214253745,7.823853174845378,-5.423220952351888,2.890936772028605,-7.439982891082764,5.696159839630127,0.0890590607499083,2.0193169514338174,1.5819628238677979
22.35,-5.694074869155884,7.896487236022949,-3.445217291514079,3.1219042936960855,-7.4032816886901855,5.621546586354573,0.4392884522676468,1.6594154238700864,1.5066227316856384
22.36,-6.986271381378174,7.572967767715454,-2.4734021425247192,3.2860329151153564,-7.3874170780181885,5.5487542152404785,0.6661230723063151,1.2435180147488911,1.0128400127092998
22.37,-6.512345314025879,6.938233534495036,-2.3419238726298013,3.4278156757354736,-7.401910463968913,5.443213144938151,0.868523120880127,0.7965682943662007,0.030568718910217285
22.38,-5.2029463450113935,6.630435625712077,-2.875464598337809,3.4368236859639487,-7.465213934580485,5.350271066029866,1.066850741704305,0.5408193667729696,-0.9231955607732137
22.39,-4.1888532638549805,6.292654832204183,-3.0170697371164956,3.383603493372599,-7.5615817705790205,5.247667630513509,1.2350422938664753,0.5255477428436279,-1.3039682706197102
22.4,-3.60211181640625,5.806667009989421,-2.5260541439056396,3.306826909383138,-7.674144268035889,5.131743590037028,1.3103823264439902,0.6513859828313192,-1.4644221862157185
22.41,-3.534916559855143,5.432798862457275,-1.8514420986175537,3.23005477587382,-7.787895202636719,5.007798035939534,1.1711050271987917,0.9639453490575155,-1.4471143086751301
22.42,-3.9987284342447915,5.527640660603841,-1.2496506373087566,3.1743249893188477,-7.885929107666016,4.888837178548177,0.7974591056505839,1.3882930676142375,-1.3341042200724285
22.43,-3.2355311711629233,6.055815696716309,-0.665473222732544,3.145349661509196,-7.9576096534729,4.790682792663574,0.2598977039257685,1.7961474259694417,-1.2974522908528645
22.44,-1.251120885213216,6.2120663324991865,-0.29109191894531244,3.1305692990620932,-8.002131144205729,4.725951512654622,-0.330401728550593,2.063095490137736,-1.423697789510091
22.45,1.765165408452352,5.34034522374471,-0.4837134679158529,3.1096288363138833,-8.024245580037435,4.702296733856201,-0.8657232920328776,2.070018728574117,-1.6224326292673747
22.46,5.679194609324137,2.7661682764689126,-1.2329497337341309,3.0695176124572754,-8.028025309244791,4.722099622090657,-1.2835551102956135,1.7525724172592165,-1.8144479592641194
22.47,7.241541226704915,-0.9921464920043943,-2.547945102055867,2.9915760358174643,-8.019129753112793,4.786523660024008,-1.5244396527608235,0.8896234172085922,-2.069382429122925
22.48,4.8389956156412754,-3.478902180989583,-4.341732104619344,2.8379124800364175,-8.0071808497111,4.897984981536865,-1.6376533905665078,-0.46995899329582863,-2.790814240773519
22.49,1.2705896695454917,-2.5393721262613935,-6.336429913838704,2.5275120735168457,-8.010578155517578,5.057128111521403,-1.8009579976399739,-1.4483614762624106,-4.111301263173421
22.5,-1.5371596813201904,-0.512791633605957,-7.726833502451579,2.0950086116790767,-8.01565424601237,5.241652011871338,-2.008041302363078,-1.376890222231547,-5.000110308329265
22.51,-2.589972416559855,-3.3798117637634277,-10.30724811553955,1.610743999481201,-8.001724243164062,5.430059274037679,-2.0444896221160893,-1.2231558163960774,-5.510589917500814
22.52,-1.7922151883443198,-14.48290745417277,-16.767471313476562,1.0915122429529824,-7.967422644297282,5.6062014897664385,-1.9616155227025351,-1.740355094273885,-5.974033037821452
22.53,-4.232616345087687,-26.01314862569173,-28.267714182535805,0.4751161734263102,-7.902615547180176,5.778278827667236,-2.1251238187154136,-3.5230635007222495,-6.303696632385254
22.54,-14.515325228373209,-30.401453653971355,-38.888956705729164,-0.27016737063725793,-7.776088237762451,5.9564134279886884,-2.1947625080744424,-5.154684543609619,-5.748623689015706
22.55,-22.64679463704427,-24.805896759033203,-35.38711293538412,-0.9895630677541098,-7.6261593500773115,6.076299985249838,-1.0290279686450958,-3.8800125519434614,-4.504291137059529
22.56,-20.505350748697918,-16.77725346883138,-26.837408701578777,-1.4621489842732749,-7.558110237121582,6.072598298390707,0.9658543070157368,0.32457311948140455,-3.9260054429372153
22.57,-13.892340342203777,-11.5108585357666,-22.109171549479168,-1.6520147720972698,-7.585891882578532,5.990808010101318,2.091475327809652,4.076303799947103,-3.8691950639088946
22.58,-5.4565145174662275,-9.442747751871744,-17.976668039957683,-1.6519701480865479,-7.65324831008911,5.904703458150228,2.30873974164327,6.225531260172526,-3.5081737041473384
22.59,4.557822306950886,-9.68282413482666,-13.18873405456543,-1.507409890492757,-7.737985293070475,5.831850687662761,2.3341924349466963,7.423641681671143,-2.705700397491455
22.6,9.125155448913574,-9.112435022989908,-7.3132219314575195,-1.254317005475362,-7.839111328125,5.755294958750407,2.127109090487162,6.657820383707683,-1.8254435459772747
22.61,6.298643430074057,-10.605703353881836,-1.1813542048136396,-1.0592323144276936,-7.93160343170166,5.668287754058838,1.6264032920201619,3.860668420791626,-1.5625678698221843
22.62,0.4292560418446856,-10.866597493489584,1.8582766850789387,-1.0206239223480225,-7.99711815516154,5.58320156733195,1.1163307825724282,1.8364646236101787,-1.8857155640920003
22.63,-3.019058108329773,-9.553433100382488,2.0945388476053877,-1.0997668504714966,-8.02699089050293,5.524908383687337,0.5706245104471842,0.7645996809005738,-2.0832286675771075
22.64,-2.491341908772786,-8.149767875671387,1.1174896558125815,-1.239622394243876,-8.026057879130045,5.496392726898193,0.17050776133934653,0.10303259889284772,-2.1439078648885093
22.65,-0.13884091377258279,-5.1426544189453125,-1.1435211499532063,-1.4173901875813801,-8.00031566619873,5.490693092346191,-0.2308307041724523,-0.8177449504534404,-2.0763054688771567
22.66,1.7543365955352783,-0.9180135726928706,-3.628039201100667,-1.6497897307078044,-7.948014577229817,5.501102924346924,-0.5881868600845337,-2.116037209828695,-2.0691787401835127
22.67,1.90199081103007,3.7897319793701176,-6.158158938090007,-1.9570574363072712,-7.874339898427327,5.505339940388997,-0.7036403814951578,-3.4595335324605307,-2.091577212015788
22.68,1.6323187748591106,7.771206696828207,-7.572669506072998,-2.332223733266195,-7.7919565836588545,5.475348790486653,-0.5993860562642416,-4.318410078684489,-2.064902742703756
22.69,1.2943820556004841,11.634052912394205,-7.739693641662598,-2.729306936264038,-7.711352825164795,5.405346870422363,-0.47334420680999756,-4.463184992472331,-1.8325702746709187
22.7,0.8364961942036946,16.403346379597984,-7.191987991333008,-3.0950264135996504,-7.637874921162923,5.312539736429851,-0.43424882491429645,-4.140648285547892,-1.349986692269643
22.71,0.38084046045939124,19.30973243713379,-6.384938557942708,-3.3903519312540693,-7.578643639882405,5.2173662185668945,-0.30718885858853656,-3.3314554691314693,-0.5167665282885234
22.72,0.6996453603108723,17.650522867838543,-5.6681820551554365,-3.547947327295939,-7.565845966339111,5.131880760192871,0.007610365748405498,-2.0443623065948486,0.575867772102356
22.73,2.430068254470825,14.141238530476889,-4.899700641632081,-3.5681122144063315,-7.599979877471924,5.067294756571452,0.20797416567802426,-0.9160942335923512,1.2757157484690347
22.74,4.518686135609944,11.263380686442057,-4.111111164093018,-3.4875834782918296,-7.663997809092204,5.026494185129802,0.3281109929084778,-0.1394809037446976,1.694158395131429
22.75,7.019690831502278,9.080208142598469,-3.30339781443278,-3.351774215698242,-7.741849263509114,4.9992906252543134,0.34725143512090045,0.1323541402816772,1.869680325190226
22.76,9.041544278462728,7.916004816691081,-2.724763552347819,-3.197098175684611,-7.820236523946126,4.978505452473958,0.23485223203897476,0.015678877631823213,1.9778034687042234
22.77,8.90949567159017,7.641121705373128,-2.6652421951293945,-3.043402353922526,-7.891714890797933,4.962079683939616,-0.05001458898186678,-0.5299255922436714,2.180712580680847
22.78,6.561709880828857,7.726383447647095,-3.2434868812561035,-2.9223740100860596,-7.943058729171753,4.952946901321411,-0.31044679880142206,-0.8877907991409302,2.3353633880615234
22.79,2.835800488789876,7.71090825398763,-4.3502269585927325,-2.7559938430786133,-7.9990105628967285,4.958354314168294,-0.6559928953647614,-0.7263187617063522,2.4326945543289185
22.8,0.7393720149993896,7.576293230056763,-5.102411270141602,-2.621214509010315,-8.025206089019775,4.988686800003052,-0.82235187292099,-0.14803301294644666,2.3885085582733154
22.81,-3.3765498797098794,7.160828590393066,-6.170368989308675,-2.396867911020915,-8.044288953145346,5.069834232330322,-0.8994227051734924,0.932791218161583,2.1730767488479614
22.82,-9.313966751098633,5.7680137157440186,-6.76426100730896,-2.2085777521133423,-8.047293663024902,5.149371862411499,-0.8640943169593811,1.8087720076243083,1.9030743837356567
22.83,-22.58723704020182,-0.026650428771972656,-7.3647206624348955,-1.9134270350138347,-8.03961435953776,5.277774969736735,-0.823064535856247,3.339294910430908,0.7329619452357292
22.84,-25.767372131347656,-4.106388330459595,-6.785757780075073,-1.7201585173606873,-8.012162446975708,5.385149955749512,-0.8480082154273987,4.050443808237712,-0.6912704010804493
22.85,-14.591968536376951,-7.110491593678792,-4.67137352625529,-1.5661997000376384,-7.937564690907796,5.541266759236653,-0.900644451379776,4.1835105419158936,-1.9346866011619568
22.86,4.271208286285399,-6.5636491775512695,-4.415946006774902,-1.4973758459091187,-7.87024450302124,5.654945373535156,-1.0496955513954163,4.888143539428711,-0.9292023852467537
22.87,23.92671012878418,-5.06522798538208,-8.194046258926392,-1.2923756837844849,-7.796722888946533,5.80328631401062,-1.40980060895284,4.853935162226359,1.0558042426904042
22.88,17.80734888712565,-7.4416309992472325,-17.350150108337402,-0.8343539635340373,-7.706184069315593,6.002931118011475,-2.5512022972106934,2.9504791498184204,3.14221453666687
22.89,8.426109313964844,-8.508055210113525,-20.820664405822754,-0.4891809821128845,-7.589958667755127,6.185657739639282,-3.5305210749308267,1.9977329572041829,3.3886986573537192
22.9,-9.869882901509603,-7.086352666219075,-18.561657587687176,-0.05288529892762503,-7.325544357299805,6.514433383941651,-3.9091557264328003,1.7922785878181458,2.5353199243545532
22.91,-13.727797031402588,-3.6239256858825684,-16.191326141357422,0.18933511897921557,-7.111973762512207,6.745900630950928,-3.0619874795277915,1.1154399414857228,1.0875692764918008
22.92,-5.349653244018555,0.4704298973083496,-11.542866388956707,0.292201429605484,-6.90075667699178,6.961062590281169,-0.8129852861166003,0.19547687657177445,-1.329624593257904
22.93,1.0607581138610835,1.45326566696167,-9.165422916412354,0.2190922573208809,-6.869249105453491,6.995079040527344,0.6512587269147236,0.20871228228012717,-1.6664149761199951
22.94,8.359996636708578,2.6607960065205893,-8.535927136739096,0.12375702460606891,-6.9497090975443525,6.917446772257487,1.631392002105713,0.026572629809379578,-0.18333593010902405
22.95,8.245458841323853,2.4685640335083012,-9.331307888031006,0.1213780157268047,-7.048821449279785,6.81619930267334,1.865658799807231,-0.7450519601504008,1.2101495265960693
22.96,4.99193016688029,0.20398664474487327,-11.259780248006184,0.1708665639162063,-7.19535493850708,6.660319169362386,1.896202087402344,-1.31804354985555,2.0649536450703936
22.97,2.622418562571208,-2.2138412793477373,-13.028517405192057,0.24104660252730048,-7.318572839101155,6.522373676300049,2.058997631072998,-1.6001614928245544,2.578080415725708
22.98,-2.0564719438552856,-4.834015369415283,-13.912931442260742,0.31573767960071564,-7.428187847137451,6.393641710281372,2.346002499262492,-1.8040886720021565,2.9228119850158696
22.99,-6.697171688079834,-8.97415844599406,-13.072731653849285,0.4464099903901418,-7.599802811940511,6.180323441823323,2.924593687057495,-1.9055941104888916,3.4586427211761475
23.0,-4.545382738113403,-12.050478458404543,-11.652819156646729,0.5744497030973434,-7.735802888870239,5.997415065765381,3.2995630900065103,-1.807143012682597,3.725896279017131
23.01,3.1764966646830244,-23.243394533793133,-10.57904084523519,0.7964816093444824,-7.9372920989990225,5.701154390970866,3.643887519836426,-1.8478673696517944,3.927481770515442
23.02,4.751451730728149,-33.04367256164551,-8.28031587600708,0.973234236240387,-8.078089475631714,5.470720291137695,3.470605452855428,-2.2304726441701255,3.9578213691711426
23.03,-3.597074190775554,-35.58451716105143,-1.8147335052490234,1.1946923732757568,-8.23386287689209,5.18916130065918,2.194915235042572,-3.229644536972046,3.8700603246688843
23.04,-9.78230595588684,-28.169353485107422,0.4301326274871826,1.3197007179260254,-8.281019687652588,5.084013223648071,0.9691122819979985,-3.58292818069458,4.067980766296387
23.05,-13.134139696756998,-15.762068430582683,-1.5666627883911133,1.5139812231063843,-8.250077883402506,5.079854488372803,-0.23907738178968432,-2.991101622581482,4.674875497817993
23.06,-13.302305221557617,-10.33232593536377,-4.227990627288818,1.7140693068504333,-8.173057556152344,5.138984441757202,-0.5615124106407166,-1.9498818516731258,4.987332979838054
23.07,-13.307701428731283,-6.545868873596192,-7.932000954945883,2.0953555901845298,-8.027237892150879,5.225754896799724,-0.5778021415074667,-0.5886704673369725,4.8352274894714355
23.08,-12.98609733581543,-4.303275903066,-10.4572172164917,2.4425315856933594,-7.893884817759196,5.2783589363098145,-0.5205844442049662,-0.3428990145524342,4.109315951665242
23.09,-11.468716303507486,-2.8911749521891275,-11.949772516886393,2.716013511021932,-7.768908182779948,5.331101417541504,-0.497167964776357,-0.7939211924870809,3.168379783630371
23.1,-9.671683311462402,-1.6432401339213052,-11.744605382283527,2.8814279238382974,-7.664118925730388,5.3964792887369795,-0.38985928893089294,-1.570738156636556,2.217873493830363
23.11,-8.058371861775717,-0.4448941548665365,-10.964607238769531,2.9235077699025473,-7.5911439259847,5.476797421773274,-0.21209749827782312,-2.386446793874105,1.3105349938074748
23.12,-6.787305514017741,0.7903617223103843,-9.619774500528973,2.860814650853475,-7.552684783935547,5.562300841013591,-0.0343357188006242,-2.7185539404551187,0.6644432246685028
23.13,-6.185233434041341,2.52931547164917,-8.341155052185059,2.7519478797912598,-7.538085301717122,5.636505444844564,0.036728273766736166,-2.2927809158960977,0.3836488326390584
23.14,-5.828793843587239,4.627730210622151,-7.429880142211914,2.6676495075225835,-7.529502550760905,5.688497543334961,-0.024154628937443107,-1.2384274701277416,0.4186717669169108
23.15,-5.0578850110371905,6.976006189982097,-6.772131601969401,2.6580969492594404,-7.513105233510335,5.71469243367513,-0.13349950810273484,0.01058832804361981,0.6848054130872091
23.16,-4.951748053232829,9.102647145589192,-6.44072691599528,2.7411020596822104,-7.48257048924764,5.7152838706970215,-0.2049707472324371,0.8930849631627401,1.1089495023091633
23.17,-6.175792694091797,10.016641934712727,-5.993175665537517,2.891746203104655,-7.435692310333251,5.7018812497456866,-0.11323914723470806,0.4251621812582016,1.3297772407531738
23.18,-7.260264158248901,9.837626934051514,-5.384948015213013,2.9866139888763428,-7.399132490158081,5.7009828090667725,0.03224859572947024,-0.5011131366093953,1.0160979429880779
23.19,-7.062252044677734,9.218924840291342,-4.776350339253743,3.0152529875437417,-7.373793601989746,5.718867778778076,0.16439911226431522,-0.9877691268920897,0.31462104618549347
23.2,-5.856635570526123,8.868194580078125,-4.522398948669434,2.9636417229970298,-7.382991472880046,5.733865102132162,0.2835178275903066,-0.90672767162323,-0.3066288928190867
23.21,-5.420487721761067,8.636754353841146,-4.107439676920573,2.884230057398478,-7.414913495381673,5.733102798461914,0.388383020957311,-0.5459099014600117,-0.7077637314796448
23.22,-5.6912892659505205,8.432546297709147,-3.4908668200174966,2.800690015157064,-7.46129846572876,5.714282194773356,0.3961206575234731,-0.1073086659113566,-1.0374273459116619
23.23,-5.354140281677246,8.176366170247396,-3.097680568695069,2.7165281772613525,-7.513970375061034,5.685812632242839,0.2419790054361025,0.41762820879618323,-1.4143311977386475
23.24,-3.906181812286377,7.974167823791504,-3.0590426921844482,2.6356587409973145,-7.563961187998453,5.657549540201823,-0.041055237253507,1.0551679134368896,-1.740940531094869
23.25,-2.213591893513997,7.739924271901448,-2.9798062642415366,2.5703279177347818,-7.6026566823323565,5.63577397664388,-0.3660355607668559,1.6483180522918701,-1.8794033130009968
23.26,-1.0570714076360068,6.871231873830159,-2.615788221359253,2.5287073453267417,-7.623809178670247,5.626097838083903,-0.6804275314013163,1.980221509933472,-1.8529324531555176
23.27,-0.5023554960886637,5.4928352038065595,-2.3180771668752036,2.5023120244344077,-7.626069068908691,5.634844621022542,-0.9316967328389486,1.9783889849980676,-1.8348100980122886
23.28,-0.35224103927612305,4.990059534708659,-2.269915739695231,2.4687154293060303,-7.616498788197835,5.66249958674113,-1.0388017892837524,1.7509434620539348,-1.982028643290202
23.29,-0.13611547152201334,2.751911163330078,-4.333885669708252,2.40422264734904,-7.608349800109863,5.700974941253662,-0.9339366356531779,1.323948621749878,-2.3237059911092124
23.3,-1.1910041173299153,1.688255786895752,-6.607209046681722,2.2787698109944667,-7.618194739023845,5.738911946614583,-0.6356307367483774,0.9572258392969767,-2.7226010163625083
23.31,-1.1190462907155356,0.8197469711303711,-7.627051830291748,2.1230148474375405,-7.649905522664388,5.756382306416829,-0.30291279653708136,1.2997176249821982,-3.109889586766561
23.32,0.4274667898813884,-1.3673019409179688,-8.576208114624023,1.954763889312744,-7.706223646799724,5.740675449371338,0.04405865073204043,1.6432274580001833,-3.6926549275716147
23.33,2.3947166204452515,-8.634488264719646,-10.722363789876303,1.7456562916437786,-7.787042776743571,5.698330720265706,0.22487475971380863,1.4864387114842732,-4.390262921651204
23.34,3.4457568327585855,-18.073443094889324,-14.170564651489258,1.4569697380065918,-7.87172269821167,5.662070910135905,-0.2752202649911245,0.7132869561513264,-5.144478003184001
23.35,1.9927630424499512,-25.090817133585613,-22.499499638875324,1.0471747716267903,-7.898389180501302,5.713253180185954,-1.6140333016713462,-0.8071566422780354,-5.727039813995361
23.36,-4.031627972920735,-28.41197840372721,-32.448490142822266,0.5055671135584514,-7.8214724858601885,5.886419296264648,-2.614834229151408,-2.948035717010498,-5.643351395924887
23.37,-19.030111630757652,-27.617570241292317,-35.91612243652344,-0.140959491332372,-7.6725648244222,6.096240202585856,-1.866117000579834,-4.885700225830078,-4.735198259353638
23.38,-24.644617080688477,-22.280922889709473,-30.43650245666504,-0.6893287301063538,-7.571031332015991,6.186081886291504,-0.1538616418838501,-3.623041808605194,-4.21799898147583
23.39,-19.815827051798504,-14.161567052205404,-22.050435384114582,-1.237884481747945,-7.556934038798015,6.123806158701579,2.101758301258087,1.505477398633957,-4.229096412658691
23.4,-13.89327335357666,-10.718918323516846,-18.50474739074707,-1.4121093153953552,-7.621264696121216,6.0067150592803955,2.7058022022247314,4.609181880950928,-4.112319469451904
23.41,-2.0868503252665214,-8.090359369913738,-12.642775217692057,-1.392024278640747,-7.747085412343343,5.84852933883667,2.800282597541809,7.123910427093506,-3.168328881263733
23.42,5.69023621082306,-8.375848293304443,-8.39849066734314,-1.2452511191368103,-7.84786057472229,5.745565176010132,2.652860482533773,6.78345489501953,-2.439363002777099
23.43,9.356829961140951,-9.056062062581379,-5.915203889211019,-1.031891107559204,-7.988857746124268,5.591986497243245,2.29815137386322,4.333783507347107,-1.727297842502594
23.44,5.06221005320549,-10.505229473114014,-1.1460843086242676,-0.9560042917728424,-8.079162120819092,5.474950313568115,1.960953712463379,2.5312219858169556,-1.61754576365153
23.45,-1.0514941414197285,-12.026984532674154,2.828386147816976,-0.9795869390169778,-8.17668596903483,5.324169635772705,1.3867404460906982,1.1029172241687775,-1.9795851707458494
23.46,-3.2415305376052856,-10.902444839477539,0.4579230546951294,-1.0717734098434448,-8.21824836730957,5.241623640060425,0.9287951389948527,0.5585344632466633,-2.193795204162597
23.47,-2.5785215695699053,-7.48903751373291,-2.738910436630249,-1.2586854298909504,-8.235679944356283,5.1722175280253095,0.3032691230376562,0.05619960029919939,-2.2015329202016196
23.48,0.24563630421956373,-4.293595631917318,-3.67108964920044,-1.4387467702229817,-8.21161937713623,5.163475513458252,-0.2532290915648142,-0.501927634080251,-2.0557398001352944
23.49,2.298908392588298,-1.0815000534057617,-4.707444508870443,-1.6460893154144287,-8.160417874654135,5.182294527689616,-0.6124178568522135,-1.675806999206543,-1.9134081204732258
23.5,2.163926124572754,3.6858142217000327,-6.815656979878743,-1.9117368857065833,-8.09124501546224,5.19877274831136,-0.7930303613344828,-3.155322551727295,-1.8386789162953696
23.51,0.9217478434244791,8.621882915496826,-8.338042736053467,-2.248135566711426,-8.010563532511393,5.1880717277526855,-0.7891615430514017,-4.314948399861653,-1.7460310061772664
23.52,-0.26325722535451257,12.738702456156412,-8.219926198323567,-2.6137751738230386,-7.932541847229004,5.136194547017415,-0.6849071979522705,-4.593706448872884,-1.358538826306661
23.53,-1.448684771855672,16.761856079101562,-7.1235809326171875,-2.931906302769979,-7.866298834482829,5.066961765289307,-0.6618979374567667,-3.9535197416941323,-0.6861798365910847
23.54,-1.9184018770853681,18.95859654744466,-6.293758710225423,-3.147130330403646,-7.8220672607421875,5.007274468739827,-0.5368742048740387,-2.8897999127705893,0.17656550804773974
23.55,-0.4905321598052981,17.02773094177246,-5.592779636383057,-3.232551177342733,-7.815341472625732,4.963902632395427,-0.21372648576895398,-1.6169603665669758,1.004695177078247
23.56,1.6268282731374104,13.317187945048014,-4.6779859860738116,-3.1958285172780356,-7.851125399271647,4.930973211924235,0.17458019653956092,-0.499280508607626,1.5575282573699951
23.57,4.036819616953532,10.241039594014486,-3.4540950457255044,-3.075148582458496,-7.917067686716716,4.90178902943929,0.4426482170820236,0.2370157148689031,1.8215238451957703
23.58,5.496212720870972,8.723581790924072,-2.680501699447632,-2.9427965879440308,-7.98137903213501,4.878378868103027,0.4859178364276886,0.4111123085021972,1.8607209920883179
23.59,6.918733437856038,7.761187553405762,-1.8443597157796225,-2.7456398804982505,-8.070039431254068,4.847486654917399,0.3687335401773453,0.308792382478714,1.8896352648735046
23.6,3.591135263442993,7.05864143371582,-3.448846220970154,-2.6059212684631348,-8.126455307006836,4.830300569534302,0.12194397486746317,0.054672442376613645,1.970574975013733
23.61,-1.3759855031967163,6.169350981712341,-5.536614775657654,-2.3961541056632996,-8.179283142089844,4.845288991928101,-0.20529653728008265,0.04935791492462162,1.9852968454360962
23.62,-2.604954957962036,5.808392763137817,-5.765591382980347,-2.2697893381118774,-8.200200080871582,4.86896276473999,-0.3679088659584522,0.21661281883716582,1.9471788406372073
23.63,-3.833924412727356,5.4474345445632935,-5.9945679903030396,-2.1434245705604553,-8.22111701965332,4.89263653755188,-0.5305211946368218,0.3838677227497101,1.909060835838318
23.64,-9.340434074401855,2.2866748174031577,-5.583848476409912,-1.8926614125569663,-8.237263679504395,4.97252877553304,-0.8218428194522858,1.1184942424297333,1.6315447092056274
23.65,-14.79072380065918,-1.397596836090088,-4.537443518638611,-1.733307957649231,-8.22739315032959,5.046211242675781,-0.847804586092631,2.0005836486816406,1.1423434416453042
23.66,-19.18319129943848,-5.998471895853678,-3.2269527912139893,-1.50330917040507,-8.192460378011068,5.175034840901692,-1.1237120628356934,3.3919310569763184,0.12179124355316162
23.67,-12.905221939086914,-6.709314664204915,-3.010346015294393,-1.3358879486719768,-8.121567726135254,5.33032751083374,-1.5798247655232747,4.3267585436503095,-0.8751408259073893
23.68,4.706349690755209,-3.403959592183431,-4.759509086608887,-1.1795906225840251,-8.015883763631185,5.5232594807942705,-1.927610715230306,4.600833574930827,-0.5690973301728567
23.69,19.02228895823161,0.0391047795613606,-10.696464856465656,-0.9208277463912964,-7.903558731079102,5.729094505310059,-2.1503729025522866,4.62750784556071,0.9755772550900776
23.7,13.415444056193035,0.816317081451416,-16.889987945556637,-0.5486055612564087,-7.782147248586019,5.9378120104471845,-2.5594489574432373,3.8091518878936768,1.969455043474833
23.71,7.431808789571126,0.8284435272216797,-22.205740610758465,-0.19303981959819788,-7.621891021728516,6.164090633392334,-3.1381420294443765,2.7810657819112143,1.5581391056378682
23.72,-7.73529609044393,0.38061952590942383,-24.01741600036621,0.057590213914712265,-7.415083249409993,6.414647579193116,-3.275993903477987,1.5662584975361824,0.746910035610199
23.73,-12.901112874348959,-0.4536903699239096,-20.43396250406901,0.15637841324011484,-7.218429247538249,6.634981473286947,-2.274174968401591,-0.2583959947029749,0.30036752422650653
23.74,-2.360380808512369,-1.1998003323872883,-14.383437474568687,0.1209044605493545,-7.109176953633626,6.753615697224935,-0.1157844066619873,-0.2799798945585887,-0.6244824528694153
23.75,1.478950023651123,-1.3556822141011555,-9.919972737630209,0.06850236157576241,-7.1671773592631025,6.69248898824056,2.0236693223317466,0.3972660402456919,-0.6037130480011303
23.76,2.18651262919108,-0.5225683848063151,-7.679728825887044,0.07520994668205577,-7.319539705912272,6.524925549825033,2.5202009677886963,0.15241087973117828,0.5359578840434551
23.77,3.3082568645477295,-0.2506241798400879,-6.880008697509766,0.11904285103082655,-7.459004640579224,6.364058256149292,2.53598157564799,-0.25493443012237543,1.2486339807510376
23.78,4.666645288467407,-0.7358468373616538,-7.3338212966918945,0.21852370103200275,-7.64256223042806,6.139912764231364,2.370233416557312,-0.7736608386039734,2.1266509294509888
23.79,2.7530323565006256,-1.8463797569274902,-8.087310552597046,0.31887802481651306,-7.7570624351501465,5.989989995956421,2.2484676043192544,-1.0122037331263225,2.6206373373667398
23.8,-2.309858381748199,-4.764114538828532,-8.84161631266276,0.49585147698720294,-7.899117628733317,5.78900941212972,2.2233203649520874,-1.0329731404781342,3.1104495525360107
23.81,-2.4995278120040894,-7.760364532470703,-9.228116512298584,0.6559924185276031,-7.993931770324707,5.6404054164886475,2.340708335240682,-0.7863871852556864,3.330055554707845
23.82,-2.116658369700114,-14.091612180074055,-9.318310101826986,0.9267401297887167,-8.120792706807455,5.41655969619751,2.668946623802185,-0.9092729389667511,3.5866189002990723
23.83,-2.296886444091797,-20.136388778686523,-9.844362258911133,1.1297131180763245,-8.20931339263916,5.2413599491119385,2.841210683186849,-1.4214834372202556,3.866395155588786
23.84,-1.6581621964772542,-30.16689682006836,-9.306112925211588,1.4203381141026814,-8.320193926493326,4.990065097808838,2.6164121627807617,-1.9999728202819826,4.334928750991821
23.85,-3.417276382446289,-30.779394149780273,-6.528264760971069,1.6407785415649414,-8.369393348693848,4.837958097457886,2.0028998057047525,-2.4157684644063315,4.378096580505371
23.86,-6.887365341186523,-21.453861236572266,-2.6577420234680176,1.9168028831481934,-8.37809149424235,4.721543947855632,0.8787042225400608,-3.0695978800455728,3.977165301640828
23.87,-7.9404252370198565,-12.427314758300781,-2.965622107187907,2.080716530481974,-8.324727694193522,4.746908187866211,-0.0374918542802334,-3.470020055770874,3.7402515411376944
23.88,-9.310577869415283,-8.30982255935669,-4.924442887306213,2.201893925666809,-8.255060195922852,4.813112497329712,-0.21087577939033506,-3.3976325194040933,3.908544858296712
23.89,-12.87739149729411,-5.884659131368002,-8.028407255808512,2.3912864526112876,-8.134588877360025,4.926319599151611,-0.42386414110660553,-2.8365527391433716,4.078059911727905
23.9,-15.429544925689697,-4.4948391914367685,-9.93898868560791,2.5520312786102295,-8.031923294067383,5.012768745422363,-0.5200754106044769,-2.0589212775230408,3.9711586236953735
23.91,-16.532614707946777,-3.2475287914276123,-11.540835857391357,2.7644587755203247,-7.9001734256744385,5.108513593673706,-0.4680500427881877,-1.5253305037816365,3.66521700223287
23.92,-13.731904983520508,-2.695386409759522,-11.301903088887531,3.0023900667826338,-7.755603313446045,5.19559113184611,-0.16699528694152835,-1.0555751323699951,2.9305496215820312
23.93,-10.111557960510254,-2.535490036010742,-9.837591171264648,3.1418873071670532,-7.677276611328125,5.229800462722778,0.1401681204636891,-0.8173376719156901,2.249638477961222
23.94,-5.85291862487793,-1.3303718566894531,-7.830094655354817,3.275959571202596,-7.614664713541667,5.23956839243571,0.4117995351552963,-0.6502660512924194,1.305953562259674
23.95,-4.275893211364746,0.5443534851074219,-7.133697032928467,3.326592206954956,-7.599167823791504,5.230306625366211,0.4594470262527466,-0.4642576028903325,0.886594553788503
23.96,-3.7174970308939614,3.4722007115681963,-6.6547285715738935,3.3775203227996826,-7.5943177541097,5.2046403884887695,0.4276820321877797,-0.12807808071374888,0.7754170695940653
23.97,-4.1555345853169765,5.797707398732503,-6.142973264058431,3.4372739791870117,-7.587772210439046,5.174917538960774,0.3268892765045166,0.0977384410798549,1.004796952009201
23.98,-5.4990973472595215,7.591766119003296,-5.419983386993408,3.5071213245391846,-7.571415424346924,5.151832818984985,0.24849489827950796,-0.005905022223790524,1.1975249449412029
23.99,-7.567792892456055,8.880110104878742,-4.5185346603393555,3.606984933217366,-7.536164919535319,5.134642759958903,0.2160172238945961,-0.48197266459465027,1.1336895823478699
24.0,-8.336732864379883,9.001834869384766,-4.121163010597229,3.653524756431579,-7.512641668319702,5.136304616928101,0.25969408949216205,-0.7088072896003723,0.8301913440227509
24.01,-8.922324498494467,8.944831848144531,-3.528961261113485,3.6715410550435386,-7.499532222747803,5.142653306325276,0.3754530549049377,-0.6908885836601257,0.14500413089990616
24.02,-8.665855884552002,8.734666347503662,-3.168721556663513,3.647459626197815,-7.513623237609863,5.1391496658325195,0.43460518121719355,-0.49235738813877106,-0.39052105943361914
24.03,-7.609633127848308,8.29432487487793,-2.893977403640747,3.5762014389038086,-7.562497138977051,5.117392698923747,0.42493315041065216,0.03940080851316449,-1.004338800907135
24.04,-6.683966398239136,7.951125860214233,-2.6221132278442383,3.51404345035553,-7.611149311065674,5.088140964508057,0.34826956192652386,0.5332853595415751,-1.2948052088419597
24.05,-5.542929967244466,7.378844102223715,-2.043767054875692,3.433638413747152,-7.68450387318929,5.032528877258301,0.12683090363861987,1.245859682559967,-1.4963907599449158
24.06,-5.012246370315552,6.940261363983154,-1.7424720525741577,3.3913718461990356,-7.7315449714660645,4.989009618759155,-0.1161916581137727,1.6576846837997437,-1.530802885691325
24.07,-4.180973211924235,6.579814910888672,-2.028751850128174,3.354175567626953,-7.780108133951823,4.938505013783773,-0.4747695525487264,1.9399044513702393,-1.5303956270217896
24.08,-3.1648995876312256,6.486059188842774,-2.9374845027923584,3.331695636113485,-7.802072207132976,4.919085343678793,-0.7828492522239685,1.9219857454299927,-1.5817082722981772
24.09,-1.3204095363616943,5.596272945404053,-3.445441722869873,3.295625925064087,-7.814101696014404,4.924260298411052,-0.8402705788612365,1.5442673762639363,-1.742162267367045
24.1,-0.16519729296366376,3.7230682373046875,-3.913869063059489,3.218602498372396,-7.835508664449056,4.9409817059834795,-0.6474407911300659,0.9975429773330688,-1.948023796081543
24.11,0.15453592936197907,1.4203495979309084,-5.191449006398519,3.1055686473846436,-7.868932247161865,4.960009733835856,-0.534430722395579,0.7578801512718201,-2.09015170733134
