time,seconds_elapsed,z,y,x
1759440953101533400,0.082533447265625,0.2106897532939911,-7.635408401489258,-6.2276177406311035
1759440953131533600,0.112533447265625,0.16519992053508759,-7.640196800231934,-6.261136531829834
1759440953141533400,0.122533447265625,0.20350714027881622,-7.66653299331665,-6.285078525543213
1759440953151533600,0.132533447265625,0.22266076505184174,-7.680898189544678,-6.289866924285889
1759440953161533400,0.142533447265625,0.22505496442317963,-7.709628582000732,-6.275501728057861
1759440953171533600,0.152533447265625,0.1628057211637497,-7.747935771942139,-6.225223541259766
1759440953181533400,0.162533447265625,0.13168109953403473,-7.735964775085449,-6.1845221519470215
1759440953191533600,0.172533447265625,0.08140286058187485,-7.764695167541504,-6.155791759490967
1759440953201533400,0.182533447265625,0.05027823522686958,-7.745541572570801,-6.134243965148926
1759440953211533600,0.192533447265625,0.038307227194309235,-7.745541572570801,-6.136638164520264
1759440953221533700,0.20253369140625,0.028730420395731926,-7.719205379486084,-6.165368556976318
1759440953231533600,0.212533447265625,0.043095629662275314,-7.71202278137207,-6.167762756347656
1759440953241533700,0.22253369140625,0.038307227194309235,-7.714416980743408,-6.2084641456604
1759440953251533600,0.232533447265625,0.06224924325942993,-7.66653299331665,-6.198887348175049
1759440953261533700,0.24253369140625,0.0933738648891449,-7.671321392059326,-6.186916351318359
1759440953271533600,0.252533447265625,0.13407529890537262,-7.673715591430664,-6.165368556976318
1759440953281533700,0.26253369140625,0.13407529890537262,-7.654561996459961,-6.2060699462890625
1759440953291533600,0.272533447265625,0.1364694982767105,-7.656956195831299,-6.194098949432373
1759440953301533700,0.28253369140625,0.15083470940589905,-7.668927192687988,-6.2276177406311035
1759440953311533600,0.292533447265625,0.16519992053508759,-7.652167797088623,-6.277895927429199
1759440953321533700,0.30253369140625,0.17238251864910126,-7.644985198974609,-6.282684326171875
1759440953331533600,0.312533447265625,0.15801730751991272,-7.616254806518555,-6.318597793579102
1759440953341533700,0.32253369140625,0.11971008777618408,-7.582736015319824,-6.349722385406494
1759440953351533600,0.332533447265625,0.1412578970193863,-7.580341815948486,-6.344933986663818
1759440953361533700,0.34253369140625,0.19632454216480255,-7.537246227264404,-6.373664379119873
1759440953375008800,0.3560087890625,0.2561795711517334,-7.573159217834473,-6.3856353759765625
1759440953385009000,0.3660087890625,0.272938996553421,-7.577947616577148,-6.40000057220459
1759440953395008800,0.3760087890625,0.2777273952960968,-7.597101211547852,-6.419154167175293
1759440953405009000,0.3860087890625,0.3016694188117981,-7.609072208404541,-6.395212173461914
1759440953415008800,0.3960087890625,0.2992752194404602,-7.597101211547852,-6.378452777862549
1759440953425009000,0.4060087890625,0.28730419278144836,-7.577947616577148,-6.337751388549805
1759440953435008800,0.4160087890625,0.2777273952960968,-7.5994954109191895,-6.2707133293151855
1759440953445009000,0.4260087890625,0.2322375625371933,-7.561188220977783,-6.234800338745117
1759440953455008800,0.4360087890625,0.21547815203666687,-7.5755534172058105,-6.268319129943848
1759440953465009000,0.4460087890625,0.17477671802043915,-7.577947616577148,-6.289866924285889
1759440953475008800,0.4560087890625,0.15083470940589905,-7.604283809661865,-6.292261123657227
1759440953484975600,0.4659755859375,0.12928688526153564,-7.5994954109191895,-6.280290126800537
1759440953494942200,0.475942138671875,0.11013327538967133,-7.628225803375244,-6.25395393371582
1759440953504908800,0.48590869140625,0.10055647045373917,-7.6210432052612305,-6.22043514251709
1759440953514875400,0.49587548828125,0.12689268589019775,-7.654561996459961,-6.203675746917725
1759440953524842200,0.50584228515625,0.15801730751991272,-7.697657585144043,-6.2060699462890625
1759440953534808800,0.515808837890625,0.17956513166427612,-7.726387977600098,-6.234800338745117
1759440953544775400,0.525775390625,0.16998831927776337,-7.733570575714111,-6.273107528686523
1759440953554742300,0.5357421875,0.15801730751991272,-7.719205379486084,-6.2946553230285645
1759440953564708900,0.545708984375,0.14365209639072418,-7.690474987030029,-6.304232120513916
1759440953574675500,0.555675537109375,0.13168109953403473,-7.661744594573975,-6.275501728057861
1759440953584642000,0.56564208984375,0.12928688526153564,-7.611466407775879,-6.285078525543213
1759440953594609000,0.57560888671875,0.15083470940589905,-7.585130214691162,-6.273107528686523
1759440953604575500,0.585575439453125,0.15322890877723694,-7.561188220977783,-6.292261123657227
1759440953614542000,0.5955419921875,0.17956513166427612,-7.561188220977783,-6.304232120513916
1759440953624509000,0.605509033203125,0.16998831927776337,-7.5324578285217285,-6.383241176605225
1759440953634475500,0.6154755859375,0.16998831927776337,-7.513304233551025,-6.4502787590026855
1759440953644442000,0.625442138671875,0.181959331035614,-7.503727436065674,-6.4957685470581055
1759440953654408700,0.63540869140625,0.21787235140800476,-7.494150638580322,-6.5173163414001465
1759440953664375600,0.64537548828125,0.27054479718208313,-7.549217224121094,-6.52449893951416
1759440953674342100,0.655342041015625,0.2944868206977844,-7.558794021606445,-6.443096160888672
1759440953684308700,0.665308837890625,0.2825157940387726,-7.592312812805176,-6.411971569061279
1759440953694275600,0.675275634765625,0.29209262132644653,-7.6425909996032715,-6.316203594207764
1759440953704242200,0.6852421875,0.2322375625371933,-7.6641387939453125,-6.2707133293151855
1759440953714208800,0.695208740234375,0.19393034279346466,-7.683292388916016,-6.244377136230469
1759440953724175400,0.70517529296875,0.1364694982767105,-7.680898189544678,-6.285078525543213
1759440953734142200,0.71514208984375,0.07900865375995636,-7.6856865882873535,-6.277895927429199
1759440953744108800,0.72510888671875,0.035913024097681046,-7.700051784515381,-6.251559734344482
1759440953754075400,0.735075439453125,0.035913024097681046,-7.688080787658691,-6.251559734344482
1759440953764042200,0.745042236328125,0.019153613597154617,-7.683292388916016,-6.191704750061035
1759440953774008800,0.7550087890625,0.014365210197865963,-7.676109790802002,-6.165368556976318
1759440953784008700,0.7650087890625,-0.023942016065120697,-7.6641387939453125,-6.110301971435547
1759440953794008800,0.7750087890625,-0.011971008032560349,-7.661744594573975,-6.081571578979492
1759440953804008700,0.7850087890625,-0.031124621629714966,-7.656956195831299,-6.067206382751465
1759440953814008800,0.7950087890625,-0.023942016065120697,-7.66653299331665,-6.043264389038086
1759440953824008700,0.8050087890625,0.004788403399288654,-7.697657585144043,-6.055235385894775
1759440953834008800,0.8150087890625,0.021547814831137657,-7.716811180114746,-6.105513572692871
1759440953844008700,0.8250087890625,0.031124621629714966,-7.745541572570801,-6.139032363891602
1759440953854008800,0.8350087890625,0.033518824726343155,-7.759906768798828,-6.179733753204346
1759440953864008700,0.8450087890625,0.05746084079146385,-7.721599578857422,-6.196493148803711
1759440953874008800,0.8550087890625,0.06464344263076782,-7.7287821769714355,-6.189310550689697
1759440953884008700,0.8650087890625,0.047884032130241394,-7.71202278137207,-6.191704750061035
1759440953894008800,0.8750087890625,0.05985504388809204,-7.72399377822876,-6.239588737487793
1759440953904008700,0.8850087890625,0.043095629662275314,-7.71202278137207,-6.263530731201172
1759440953914008800,0.8950087890625,0.06464344263076782,-7.683292388916016,-6.31141471862793
1759440953924008700,0.9050087890625,0.07661445438861847,-7.702445983886719,-6.335357189178467
1759440953934008800,0.9150087890625,0.09816227108240128,-7.673715591430664,-6.275501728057861
1759440953944008700,0.9250087890625,0.13168109953403473,-7.644985198974609,-6.218040943145752
1759440953954008800,0.9350087890625,0.13407529890537262,-7.604283809661865,-6.198887348175049
1759440953964008700,0.9450087890625,0.1412578970193863,-7.592312812805176,-6.12945556640625
1759440953974008800,0.9550087890625,0.12210428714752197,-7.5875244140625,-6.165368556976318
1759440953984008700,0.9650087890625,0.06464344263076782,-7.640196800231934,-6.194098949432373
1759440953994008800,0.9750087890625,0.023942016065120697,-7.668927192687988,-6.232406139373779
1759440954004008700,0.9850087890625,0.023942016065120697,-7.733570575714111,-6.246771335601807
1759440954014008800,0.9950087890625,0.05027823522686958,-7.76948356628418,-6.225223541259766
1759440954024008700,1.0050087890625,0.040701430290937424,-7.7742719650268555,-6.191704750061035
1759440954034008800,1.0150087890625,0.035913024097681046,-7.7527241706848145,-6.155791759490967
1759440954044008700,1.0250087890625,0.023942016065120697,-7.676109790802002,-6.103119373321533
1759440954054008800,1.0350087890625,0.028730420395731926,-7.640196800231934,-6.076783180236816
1759440954064008700,1.0450087890625,0.031124621629714966,-7.585130214691162,-6.033687591552734
1759440954074008800,1.0550087890625,0.004788403399288654,-7.580341815948486,-6.012139797210693
1759440954084008700,1.0650087890625,0.014365210197865963,-7.539640426635742,-5.990592002868652
1759440954094008800,1.0750087890625,0.05746084079146385,-7.585130214691162,-6.000168800354004
1759440954104008700,1.0850087890625,0.11971008777618408,-7.67850399017334,-6.0097455978393555
1759440954114008800,1.0950087890625,0.1412578970193863,-7.759906768798828,-6.105513572692871
1759440954124008700,1.1050087890625,0.09576806426048279,-7.841310024261475,-6.191704750061035
1759440954134008800,1.1150087890625,0.0933738648891449,-7.870040416717529,-6.301837921142578
1759440954144008700,1.1250087890625,0.12689268589019775,-7.884405612945557,-6.35451078414917
1759440954154008800,1.1350087890625,0.12689268589019775,-7.855675220489502,-6.395212173461914
1759440954164008700,1.1450087890625,0.15801730751991272,-7.779060363769531,-6.376058578491211
1759440954174008800,1.1550087890625,0.19153612852096558,-7.702445983886719,-6.352116584777832
1759440954184008700,1.1650087890625,0.1867477297782898,-7.63301420211792,-6.292261123657227
1759440954194008800,1.1750087890625,0.181959331035614,-7.582736015319824,-6.261136531829834
1759440954204008700,1.1850087890625,0.17238251864910126,-7.568370819091797,-6.246771335601807
1759440954214008800,1.1950087890625,0.13407529890537262,-7.5875244140625,-6.261136531829834
1759440954224008700,1.2050087890625,0.10295066982507706,-7.611466407775879,-6.289866924285889
1759440954234008800,1.2150087890625,0.05746084079146385,-7.637802600860596,-6.297049522399902
1759440954244008700,1.2250087890625,0.12210428714752197,-7.695263385772705,-6.313809394836426
1759440954254008800,1.2350087890625,0.10295066982507706,-7.743147373199463,-6.29944372177124
1759440954264008700,1.2450087890625,0.08140286058187485,-7.755118370056152,-6.2276177406311035
1759440954274008800,1.2550087890625,0.05746084079146385,-7.779060363769531,-6.203675746917725
1759440954284008700,1.2650087890625,0.05506663769483566,-7.767089366912842,-6.198887348175049
1759440954294008800,1.2750087890625,0.028730420395731926,-7.762300968170166,-6.2084641456604
1759440954304008700,1.2850087890625,-0.016759412363171577,-7.721599578857422,-6.230011940002441
1759440954314008800,1.2950087890625,0,-7.702445983886719,-6.268319129943848
1759440954324008700,1.3050087890625,0.05506663769483566,-7.67850399017334,-6.282684326171875
1759440954334008800,1.3150087890625,0.06464344263076782,-7.630620002746582,-6.256348133087158
1759440954344008700,1.3250087890625,0.07422025501728058,-7.6210432052612305,-6.218040943145752
1759440954354008800,1.3350087890625,0.10773907601833344,-7.656956195831299,-6.22043514251709
1759440954364008700,1.3450087890625,0.12210428714752197,-7.72399377822876,-6.2084641456604
1759440954374008600,1.355008544921875,0.13407529890537262,-7.788637638092041,-6.2060699462890625
1759440954384008700,1.3650087890625,0.1149216815829277,-7.819762229919434,-6.213252544403076
1759440954394008600,1.375008544921875,0.11971008777618408,-7.826944828033447,-6.237194538116455
1759440954404008700,1.3850087890625,0.10773907601833344,-7.836521625518799,-6.213252544403076
1759440954414008600,1.395008544921875,0.09816227108240128,-7.803002834320068,-6.198887348175049
1759440954424008700,1.4050087890625,0.07182604819536209,-7.781454563140869,-6.17494535446167
1759440954434008600,1.415008544921875,0.031124621629714966,-7.747935771942139,-6.201281547546387
1759440954444008700,1.4250087890625,-0.0071826050989329815,-7.66653299331665,-6.170156955718994
1759440954454008600,1.435008544921875,-0.004788403399288654,-7.630620002746582,-6.186916351318359
1759440954464008700,1.4450087890625,0,-7.5994954109191895,-6.177339553833008
1759440954474008600,1.455008544921875,0.021547814831137657,-7.604283809661865,-6.189310550689697
1759440954484008700,1.4650087890625,0.023942016065120697,-7.652167797088623,-6.158185958862305
1759440954494008600,1.475008544921875,0.011971008032560349,-7.695263385772705,-6.189310550689697
1759440954504008700,1.4850087890625,-0.009576806798577309,-7.726387977600098,-6.182127952575684
1759440954514008600,1.495008544921875,0.031124621629714966,-7.743147373199463,-6.17494535446167
1759440954524008700,1.5050087890625,0.047884032130241394,-7.709628582000732,-6.203675746917725
1759440954534008600,1.515008544921875,0.021547814831137657,-7.671321392059326,-6.222829341888428
1759440954544008700,1.5250087890625,0.033518824726343155,-7.616254806518555,-6.2491655349731445
1759440954554008600,1.535008544921875,0.0071826050989329815,-7.594707012176514,-6.234800338745117
1759440954564008700,1.5450087890625,0,-7.580341815948486,-6.258742332458496
1759440954574008600,1.555008544921875,-0.028730420395731926,-7.5994954109191895,-6.261136531829834
1759440954584008700,1.5650087890625,-0.014365210197865963,-7.640196800231934,-6.263530731201172
1759440954594008800,1.5750087890625,-0.009576806798577309,-7.690474987030029,-6.251559734344482
1759440954604008700,1.5850087890625,0.021547814831137657,-7.740753173828125,-6.256348133087158
1759440954614008800,1.5950087890625,0.035913024097681046,-7.776666164398193,-6.203675746917725
1759440954624008700,1.6050087890625,0.038307227194309235,-7.75751256942749,-6.1845221519470215
1759440954634008800,1.6150087890625,0.038307227194309235,-7.747935771942139,-6.165368556976318
1759440954644008700,1.6250087890625,0.016759412363171577,-7.709628582000732,-6.167762756347656
1759440954654008800,1.6350087890625,-0.0071826050989329815,-7.7072343826293945,-6.127061367034912
1759440954664008700,1.6450087890625,-0.040701430290937424,-7.6856865882873535,-6.146214962005615
1759440954674008800,1.6550087890625,-0.05267243832349777,-7.697657585144043,-6.146214962005615
1759440954684008700,1.6650087890625,-0.0694318488240242,-7.731176376342773,-6.172551155090332
1759440954694008800,1.6750087890625,-0.08379705995321274,-7.743147373199463,-6.198887348175049
1759440954704008700,1.6850087890625,-0.09576806426048279,-7.743147373199463,-6.177339553833008
1759440954714008800,1.6950087890625,-0.08379705995321274,-7.7287821769714355,-6.136638164520264
1759440954724008700,1.7050087890625,-0.1388636976480484,-7.697657585144043,-6.139032363891602
1759440954734008800,1.7150087890625,-0.09576806426048279,-7.7072343826293945,-6.1174845695495605
1759440954744008700,1.7250087890625,-0.08619125932455063,-7.7072343826293945,-6.1174845695495605
1759440954754008800,1.7350087890625,-0.06464344263076782,-7.735964775085449,-6.107907772064209
1759440954764008700,1.7450087890625,-0.07422025501728058,-7.745541572570801,-6.1174845695495605
1759440954774008800,1.7550087890625,-0.05985504388809204,-7.726387977600098,-6.112696170806885
1759440954784008700,1.7650087890625,-0.043095629662275314,-7.788637638092041,-6.12945556640625
1759440954794008800,1.7750087890625,-0.05985504388809204,-7.762300968170166,-6.1174845695495605
1759440954804008700,1.7850087890625,-0.07182604819536209,-7.762300968170166,-6.115090370178223
1759440954814008800,1.7950087890625,-0.10055647045373917,-7.759906768798828,-6.134243965148926
1759440954824008700,1.8050087890625,-0.07900865375995636,-7.764695167541504,-6.155791759490967
1759440954834008800,1.8150087890625,-0.07900865375995636,-7.7742719650268555,-6.160580158233643
1759440954844008700,1.8250087890625,-0.047884032130241394,-7.798214435577393,-6.177339553833008
1759440954854008800,1.8350087890625,-0.040701430290937424,-7.814973831176758,-6.177339553833008
1759440954864008700,1.8450087890625,-0.031124621629714966,-7.824550628662109,-6.165368556976318
1759440954874008800,1.8550087890625,-0.043095629662275314,-7.836521625518799,-6.1414265632629395
1759440954884008700,1.8650087890625,-0.07182604819536209,-7.8221564292907715,-6.0959367752075195
1759440954894008800,1.8750087890625,-0.12210428714752197,-7.803002834320068,-6.110301971435547
1759440954904008700,1.8850087890625,-0.1388636976480484,-7.7742719650268555,-6.091148376464844
1759440954914008800,1.8950087890625,-0.1867477297782898,-7.7742719650268555,-6.115090370178223
1759440954924008700,1.9050087890625,-0.15083470940589905,-7.743147373199463,-6.107907772064209
1759440954934008800,1.9150087890625,-0.1149216815829277,-7.72399377822876,-6.127061367034912
1759440954944008700,1.9250087890625,-0.09576806426048279,-7.697657585144043,-6.127061367034912
1759440954954008800,1.9350087890625,-0.090979665517807,-7.671321392059326,-6.153397560119629
1759440954964008700,1.9450087890625,-0.09576806426048279,-7.6856865882873535,-6.151003360748291
1759440954974008800,1.9550087890625,-0.12689268589019775,-7.702445983886719,-6.196493148803711
1759440954984008700,1.9650087890625,-0.1412578970193863,-7.695263385772705,-6.263530731201172
1759440954994008800,1.9750087890625,-0.14365209639072418,-7.688080787658691,-6.2707133293151855
1759440955004008700,1.9850087890625,-0.1173158809542656,-7.659350395202637,-6.239588737487793
1759440955014008800,1.9950087890625,-0.08619125932455063,-7.640196800231934,-6.198887348175049
1759440955024008700,2.0050087890625,-0.08619125932455063,-7.628225803375244,-6.167762756347656
1759440955034008800,2.0150087890625,-0.05506663769483566,-7.680898189544678,-6.100725173950195
1759440955044008700,2.0250087890625,0.016759412363171577,-7.747935771942139,-6.071994781494141
1759440955054008800,2.0350087890625,0.016759412363171577,-7.781454563140869,-6.0504469871521
1759440955064008700,2.0450087890625,-0.023942016065120697,-7.829339027404785,-6.040870189666748
1759440955074008800,2.0550087890625,-0.090979665517807,-7.862857818603516,-6.060023784637451
1759440955084008700,2.0650087890625,-0.10534487664699554,-7.884405612945557,-6.0528411865234375
1759440955094008800,2.0750087890625,-0.06703764945268631,-7.872434616088867,-6.028899192810059
1759440955104008700,2.0850087890625,-0.016759412363171577,-7.838915824890137,-6.048052787780762
1759440955114008800,2.0950087890625,-0.028730420395731926,-7.805397033691406,-6.048052787780762
1759440955124008700,2.1050087890625,-0.040701430290937424,-7.738358974456787,-6.057629585266113
1759440955134008800,2.1150087890625,-0.12210428714752197,-7.67850399017334,-6.0743889808654785
1759440955144008700,2.1250087890625,-0.1843535304069519,-7.5875244140625,-6.1174845695495605
1759440955154008800,2.1350087890625,-0.22026655077934265,-7.546823024749756,-6.148609161376953
1759440955164008700,2.1450087890625,-0.2777273952960968,-7.54203462600708,-6.1414265632629395
1759440955174008800,2.1550087890625,-0.2968810200691223,-7.470208644866943,-6.160580158233643
1759440955184008700,2.1650087890625,-0.2825157940387726,-7.441478252410889,-6.134243965148926
1759440955194008800,2.1750087890625,-0.2537853717803955,-7.441478252410889,-6.088754177093506
1759440955204008700,2.1850087890625,-0.1867477297782898,-7.4678144454956055,-6.036081790924072
1759440955214008800,2.1950087890625,-0.12928688526153564,-7.5540056228637695,-5.9642558097839355
1759440955224008700,2.2050087890625,-0.12449848651885986,-7.680898189544678,-5.8996124267578125
1759440955234008800,2.2150087890625,-0.09816227108240128,-7.829339027404785,-5.861305236816406
1759440955244008700,2.2250087890625,-0.12210428714752197,-7.968202590942383,-5.8086323738098145
1759440955254008800,2.2350087890625,-0.14365209639072418,-8.066365242004395,-5.789478778839111
1759440955264008700,2.2450087890625,-0.2059013396501541,-8.09509563446045,-5.801449775695801
1759440955274008800,2.2550087890625,-0.24660277366638184,-8.075942039489746,-5.832574844360352
1759440955284008700,2.2650087890625,-0.2825157940387726,-8.001721382141113,-5.820603370666504
1759440955294008800,2.2750087890625,-0.3016694188117981,-7.893982410430908,-5.825392246246338
1759440955304008700,2.2850087890625,-0.2777273952960968,-7.776666164398193,-5.81342077255249
1759440955314008800,2.2950087890625,-0.1843535304069519,-7.654561996459961,-5.782296180725098
1759440955324008700,2.3050087890625,-0.15562310814857483,-7.585130214691162,-5.77990198135376
1759440955334008800,2.3150087890625,-0.11971008777618408,-7.539640426635742,-5.806238174438477
1759440955344008700,2.3250087890625,-0.10055647045373917,-7.551611423492432,-5.8349690437316895
1759440955354008800,2.3350087890625,-0.10534487664699554,-7.5324578285217285,-5.8780646324157715
1759440955364008700,2.3450087890625,-0.08379705995321274,-7.544428825378418,-5.925948619842529
1759440955374008800,2.3550087890625,-0.038307227194309235,-7.558794021606445,-5.949890613555908
1759440955384008700,2.3650087890625,0.011971008032560349,-7.597101211547852,-5.94749641418457
1759440955394008800,2.3750087890625,0.043095629662275314,-7.609072208404541,-5.8780646324157715
1759440955404008700,2.3850087890625,0.12928688526153564,-7.573159217834473,-5.799055576324463
1759440955414008800,2.3950087890625,0.27054479718208313,-7.501333236694336,-5.7415947914123535
1759440955424008700,2.4050087890625,0.5051765441894531,-7.3792290687561035,-5.660192012786865
1759440955434008800,2.4150087890625,0.6320692300796509,-7.3600754737854,-5.571606636047363
1759440955444008700,2.4250087890625,0.706289529800415,-7.455843448638916,-5.571606636047363
1759440955454008800,2.4350087890625,0.5770025849342346,-7.515698432922363,-5.51893424987793
1759440955464008700,2.4450087890625,0.45250412821769714,-7.637802600860596,-5.442319869995117
1759440955474008800,2.4550087890625,0.4644751250743866,-7.66653299331665,-5.4159836769104
1759440955484008700,2.4650087890625,0.3734954595565796,-7.716811180114746,-5.313032627105713
1759440955494008800,2.4750087890625,0.2944868206977844,-7.656956195831299,-5.2340240478515625
1759440955504008700,2.4850087890625,0.1388636976480484,-7.589918613433838,-5.135861873626709
1759440955514008800,2.4950087890625,-0.026336219161748886,-7.50851583480835,-5.03291130065918
1759440955524008700,2.5050087890625,-0.05027823522686958,-7.388805866241455,-4.956296920776367
1759440955534008800,2.5150087890625,0.23942017555236816,-7.139808654785156,-4.8937482833862305
1759440955544008700,2.5250087890625,0.751779317855835,-6.967426300048828,-4.913201332092285
1759440955554008800,2.5350087890625,1.0295066833496094,-6.747159481048584,-4.8937482833862305
1759440955564008700,2.5450087890625,0.8188169598579407,-6.605901718139648,-4.881777286529541
1759440955574008800,2.5550087890625,0.17717093229293823,-6.596324920654297,-4.8051629066467285
1759440955584009000,2.565009033203125,-0.2777273952960968,-6.56998872756958,-4.786009311676025
1759440955594008800,2.5750087890625,-0.3758896589279175,-6.498162746429443,-4.867412090301514
1759440955604009000,2.585009033203125,-0.18914192914962769,-6.366481781005859,-4.9922099113464355
1759440955614008800,2.5950087890625,-0.07422025501728058,-6.230011940002441,-5.195716857910156
1759440955624009000,2.605009033203125,0.090979665517807,-6.028899192810059,-5.38246488571167
1759440955634008800,2.6150087890625,0.1604115068912506,-5.9427080154418945,-5.602731227874756
1759440955644008700,2.6250087890625,0.16998831927776337,-5.8780646324157715,-6.064812183380127
1759440955654008800,2.6350087890625,0.22505496442317963,-5.854122638702393,-6.687304496765137
1759440955664008700,2.6450087890625,0.28969839215278625,-5.684134006500244,-7.436689853668213
1759440955674008800,2.6550087890625,0.38067805767059326,-5.459079265594482,-8.07115364074707
1759440955684008700,2.6650087890625,0.3758896589279175,-5.33697509765625,-8.25311279296875
1759440955694008800,2.6750087890625,0.5003881454467773,-5.217264652252197,-8.368034362792969
1759440955704008700,2.6850087890625,0.9528923034667969,-5.109525680541992,-8.257901191711426
1759440955714008800,2.6950087890625,1.6543933153152466,-5.164592266082764,-7.896376609802246
1759440955724009000,2.705009033203125,2.006340980529785,-5.24838924407959,-7.407959461212158
1759440955734008800,2.7150087890625,1.8315643072128296,-5.296273231506348,-6.993762493133545
1759440955744008700,2.7250087890625,1.455674648284912,-5.320215225219727,-6.622661113739014
1759440955754008800,2.7350087890625,1.2425906658172607,-5.38246488571167,-6.392817974090576
1759440955764008700,2.7450087890625,1.2258312702178955,-5.485415458679199,-6.273107528686523
1759440955774008800,2.7550087890625,1.1755530834197998,-5.705681800842285,-6.285078525543213
1759440955784008700,2.7650087890625,0.9313444495201111,-5.983409404754639,-6.534075736999512
1759440955794008800,2.7750087890625,0.47644615173339844,-5.8780646324157715,-6.771101474761963
1759440955804008700,2.7850087890625,-0.016759412363171577,-5.86848783493042,-7.252336025238037
1759440955814008800,2.7950087890625,-0.043095629662275314,-5.748777389526367,-7.5875244140625
1759440955824008700,2.8050087890625,0.3016694188117981,-5.605125427246094,-7.85806941986084
1759440955834008800,2.8150087890625,0.4884171485900879,-5.423166275024414,-7.958625793457031
1759440955844009000,2.825009033203125,0.7445967197418213,-5.260360240936279,-7.987356185913086
1759440955854008800,2.8350087890625,1.216254472732544,-5.2340240478515625,-8.066365242004395
1759440955864009000,2.845009033203125,1.625662922859192,-5.1909284591674805,-8.214805603027344
1759440955874008800,2.8550087890625,1.987187385559082,-5.0807952880859375,-8.442254066467285
1759440955884008700,2.8650087890625,2.0254945755004883,-4.876988887786865,-8.660126686096191
1759440955894008800,2.8750087890625,1.8602946996688843,-4.527435302734375,-8.916306495666504
1759440955904008700,2.8850087890625,1.7334020137786865,-4.244919776916504,-9.22515869140625
1759440955914008800,2.8950087890625,1.6400281190872192,-4.065354347229004,-9.634567260742188
1759440955924008700,2.9050087890625,1.644816517829895,-4.067748546600342,-9.87159252166748
1759440955934008800,2.9150087890625,1.4867992401123047,-4.168305397033691,-9.857227325439453
1759440955944008700,2.9250087890625,1.2761094570159912,-4.2544965744018555,-9.821314811706543
1759440955954008800,2.9350087890625,1.316810965538025,-4.448426723480225,-9.663297653198242
1759440955964008700,2.9450087890625,1.455674648284912,-4.575319290161133,-9.541193008422852
1759440955974008800,2.9550087890625,1.4221558570861816,-4.627991676330566,-9.466972351074219
1759440955984008700,2.9650087890625,1.2114660739898682,-4.606443881988525,-9.244312286376953
1759440955994008800,2.9750087890625,1.0462661981582642,-4.527435302734375,-8.916306495666504
1759440956004008700,2.9850087890625,0.8882488012313843,-4.309563159942627,-8.672098159790039
1759440956014008800,2.9950087890625,0.8355764150619507,-4.173093795776367,-8.217199325561523
1759440956024008700,3.0050087890625,0.811634361743927,-4.043806552886963,-7.9538373947143555
1759440956034008800,3.0150087890625,0.706289529800415,-3.974374771118164,-7.915530204772949
1759440956044008700,3.0250087890625,0.6105214357376099,-4.23773717880249,-7.872434616088867
1759440956054008800,3.0350087890625,0.49559974670410156,-4.577713489532471,-8.044816970825195
1759440956064008700,3.0450087890625,0.47405192255973816,-4.89644193649292,-8.439860343933105
1759440956074008800,3.0550087890625,0.727837324142456,-5.150227069854736,-8.822932243347168
1759440956084008700,3.0650087890625,1.2042834758758545,-5.1693806648254395,-9.313743591308594
1759440956094008800,3.0750087890625,1.824381709098816,-4.961085319519043,-9.785401344299316
1759440956104008700,3.0850087890625,2.2457611560821533,-4.503493309020996,-10.094253540039062
1759440956114008800,3.0950087890625,2.3726539611816406,-4.141968727111816,-10.474931716918945
1759440956124008700,3.1050087890625,2.123656988143921,-3.7038300037384033,-10.802937507629395
1759440956134008800,3.1150087890625,1.9297266006469727,-3.466804027557373,-10.903493881225586
1759440956144008700,3.1250087890625,1.800439715385437,-3.3901896476745605,-10.84363842010498
1759440956154008800,3.1350087890625,1.7118542194366455,-3.40216064453125,-10.750265121459961
1759440956164008700,3.1450087890625,1.6424223184585571,-3.4955344200134277,-10.711957931518555
1759440956184008700,3.1650087890625,1.5753847360610962,-3.8163576126098633,-10.75265884399414
1759440956194008800,3.1750087890625,1.5083470344543457,-4.067748546600342,-10.757447242736816
1759440956204008700,3.1850087890625,1.5322890281677246,-4.326322555541992,-10.59464168548584
1759440956214008800,3.1950087890625,1.5203180313110352,-4.410119533538818,-10.506056785583496
1759440956224008700,3.2050087890625,1.6615760326385498,-4.46518611907959,-10.647314071655273
1759440956234008800,3.2150087890625,1.9704279899597168,-4.393360137939453,-10.848426818847656
1759440956244008700,3.2250087890625,2.4851813316345215,-4.134786128997803,-11.061511039733887
1759440956254008800,3.2350087890625,2.7964274883270264,-4.252102375030518,-11.224316596984863
1759440956264008700,3.2450087890625,2.935291290283203,-4.23773717880249,-11.425429344177246
1759440956274008800,3.2550087890625,3.0861260890960693,-4.0294413566589355,-11.581052780151367
1759440956284008700,3.2650087890625,3.265691041946411,-3.7636849880218506,-11.68879222869873
1759440956294008800,3.2750087890625,3.3039982318878174,-3.4332852363586426,-11.707945823669434
1759440956304008700,3.2850087890625,2.978386878967285,-3.002328872680664,-11.595417976379395
1759440956314008800,3.2950087890625,2.604891538619995,-2.561795711517334,-11.396698951721191
1759440956324008700,3.3050087890625,2.27209734916687,-1.9943699836730957,-11.08066463470459
1759440956334008800,3.3150087890625,2.051830768585205,-1.6615760326385498,-10.721534729003906
1759440956344009000,3.325009033203125,1.889025092124939,-1.3934253454208374,-10.352827072143555
1759440956354008800,3.3350087890625,1.7717092037200928,-1.2114660739898682,-10.16368579864502
1759440956364008700,3.3450087890625,1.7190368175506592,-1.1204863786697388,-10.070311546325684
1759440956374008800,3.3550087890625,1.7621324062347412,-1.1444283723831177,-10.053552627563477
1759440956384008700,3.3650087890625,1.8842366933822632,-1.170764684677124,-10.146925926208496
1759440956394008800,3.3750087890625,2.1523873805999756,-1.2042834758758545,-10.096648216247559
1759440956404008700,3.3850087890625,2.516305923461914,-1.1803414821624756,-9.818920135498047
1759440956414008800,3.3950087890625,2.765302896499634,-1.115697979927063,-9.402329444885254
1759440956424008700,3.4050087890625,2.851494312286377,-1.0271124839782715,-9.064746856689453
1759440956434008800,3.4150087890625,2.7246015071868896,-1.0103530883789062,-8.77504825592041
1759440956444009000,3.425009033203125,2.451662540435791,-0.9864110946655273,-8.605060577392578
1759440956454008800,3.4350087890625,2.2170307636260986,-0.950498104095459,-8.595483779907227
1759440956464009000,3.445009033203125,2.006340980529785,-0.9911994934082031,-8.703222274780273
1759440956474008800,3.4550087890625,1.941697597503662,-1.0558429956436157,-8.798990249633789
1759440956484009000,3.465009033203125,1.944091796875,-1.139639973640442,-9.028834342956543
1759440956494008800,3.4750087890625,1.9847931861877441,-1.2737152576446533,-9.323320388793945
1759440956504009000,3.485009033203125,2.0853497982025146,-1.3886369466781616,-9.641749382019043
1759440956514008800,3.4950087890625,2.1763293743133545,-1.4748282432556152,-9.87159252166748
1759440956524009000,3.505009033203125,2.252943754196167,-1.5059528350830078,-10.113407135009766
1759440956534008800,3.5150087890625,2.27209734916687,-1.4700398445129395,-10.28818416595459
1759440956544009000,3.525009033203125,2.231395959854126,-1.2976573705673218,-10.455778121948242
1759440956554008800,3.5350087890625,2.1284453868865967,-1.1851298809051514,-10.556334495544434
1759440956564009000,3.545009033203125,1.9943699836730957,-1.1180921792984009,-10.532392501831055
1759440956574008800,3.5550087890625,1.8914192914962769,-1.070208191871643,-10.450989723205566
1759440956584009000,3.565009033203125,1.845929503440857,-1.1228805780410767,-10.285789489746094
1759440956594008800,3.5750087890625,1.845929503440857,-1.2114660739898682,-10.091859817504883
1759440956604009000,3.585009033203125,1.941697597503662,-1.357512354850769,-9.92905330657959
1759440956614008800,3.5950087890625,2.030282974243164,-1.4460978507995605,-9.80455493927002
1759440956624009000,3.605009033203125,2.118868589401245,-1.4867992401123047,-9.692028045654297
1759440956634008800,3.6150087890625,2.123656988143921,-1.4748282432556152,-9.601048469543457
1759440956644008700,3.6250087890625,2.1475989818573,-1.4053963422775269,-9.5316162109375
1759440956654008800,3.6350087890625,2.1547815799713135,-1.3551181554794312,-9.483732223510742
1759440956664009000,3.645009033203125,2.1595699787139893,-1.314416766166687,-9.455001831054688
1759440956674008800,3.6550087890625,2.205059766769409,-1.2042834758758545,-9.433453559875488
1759440956684009000,3.665009033203125,2.255337953567505,-1.1252747774124146,-9.431059837341309
1759440956694008800,3.6750087890625,2.343923568725586,-1.039083480834961,-9.423876762390137
1759440956704009000,3.685009033203125,2.4157495498657227,-0.9888052940368652,-9.438241958618164
1759440956714008800,3.6950087890625,2.454056739807129,-0.9169792532920837,-9.447818756103516
1759440956724008700,3.7050087890625,2.4875755310058594,-0.8619126081466675,-9.510068893432617
1759440956734008800,3.7150087890625,2.5282769203186035,-0.8212111592292786,-9.581894874572754
1759440956744008700,3.7250087890625,2.5306711196899414,-0.7398083209991455,-9.718363761901855
1759440956754008800,3.7350087890625,2.5905263423919678,-0.667982280254364,-9.80216121673584
1759440956764008700,3.7450087890625,2.631227731704712,-0.5793967843055725,-9.847650527954102
1759440956774008800,3.7550087890625,2.6647465229034424,-0.5147533416748047,-9.850045204162598
1759440956784008700,3.7650087890625,2.7317841053009033,-0.40940847992897034,-9.814131736755371
1759440956794008800,3.7750087890625,2.75812029838562,-0.33518823981285095,-9.735123634338379
1759440956804008700,3.7850087890625,2.7676970958709717,-0.3064578175544739,-9.660902976989746
1759440956814008800,3.7950087890625,2.75812029838562,-0.31603461503982544,-9.584288597106934
1759440956824008700,3.8050087890625,2.734178304672241,-0.36152446269989014,-9.512462615966797
1759440956834008800,3.8150087890625,2.6839001178741455,-0.3926490843296051,-9.49809741973877
1759440956844008700,3.8250087890625,2.6623523235321045,-0.4357447028160095,-9.493309020996094
1759440956854008800,3.8350087890625,2.647987127304077,-0.47405192255973816,-9.478943824768066
1759440956864008700,3.8450087890625,2.6623523235321045,-0.49559974670410156,-9.486125946044922
1759440956874008800,3.8550087890625,2.6815059185028076,-0.5195417404174805,-9.490914344787598
1759440956884008700,3.8650087890625,2.6886885166168213,-0.5386953949928284,-9.502885818481445
1759440956894008800,3.8750087890625,2.650381326675415,-0.5339069962501526,-9.519645690917969
1759440956904008700,3.8850087890625,2.6886885166168213,-0.5147533416748047,-9.536404609680176
1759440956914008800,3.8950087890625,2.6647465229034424,-0.5339069962501526,-9.486125946044922
1759440956924008700,3.9050087890625,2.6671407222747803,-0.5722141861915588,-9.507674217224121
1759440956934008800,3.9150087890625,2.647987127304077,-0.6153098344802856,-9.522039413452148
1759440956944008700,3.9250087890625,2.580949544906616,-0.6416460275650024,-9.56274127960205
1759440956954008800,3.9350087890625,2.5761611461639404,-0.6129156351089478,-9.603442192077637
1759440956964008700,3.9450087890625,2.5546131134033203,-0.49559974670410156,-9.58668327331543
1759440956974008800,3.9550087890625,2.542642116546631,-0.38546648621559143,-9.490914344787598
1759440956984008700,3.9650087890625,2.604891538619995,-0.38546648621559143,-9.450213432312012
1759440956994008800,3.9750087890625,2.655169725418091,-0.3926490843296051,-9.464578628540039
1759440957004008700,3.9850087890625,2.7222073078155518,-0.45250412821769714,-9.452607154846191
1759440957014008800,3.9950087890625,2.695871114730835,-0.44532153010368347,-9.411906242370605
1759440957024008700,4.0050087890625,2.6839001178741455,-0.4644751250743866,-9.35205078125
1759440957034008800,4.0150087890625,2.6671407222747803,-0.49320554733276367,-9.313743591308594
1759440957044008700,4.0250087890625,2.676717519760132,-0.5051765441894531,-9.325715065002441
1759440957054008800,4.0350087890625,2.6839001178741455,-0.5746083855628967,-9.366415977478027
1759440957064008700,4.0450087890625,2.691082715988159,-0.646434485912323,-9.47415542602539
1759440957074008800,4.0550087890625,2.6647465229034424,-0.7182605266571045,-9.579500198364258
1759440957084008700,4.0650087890625,2.6455929279327393,-0.7924807667732239,-9.699210166931152
1759440957094008800,4.0750087890625,2.5977089405059814,-0.8451532125473022,-9.794978141784668
1759440957104008700,4.0850087890625,2.58813214302063,-0.8547300100326538,-9.852438926696777
1759440957114008800,4.0950087890625,2.5665841102600098,-0.8188169598579407,-9.833285331726074
1759440957124008700,4.1050087890625,2.559401512145996,-0.7541735172271729,-9.809343338012695
1759440957134008800,4.1150087890625,2.5546131134033203,-0.7038952708244324,-9.761459350585938
1759440957144008700,4.1250087890625,2.5905263423919678,-0.6799532771110535,-9.670479774475098
1759440957154008800,4.1350087890625,2.6360161304473877,-0.6368576288223267,-9.617807388305664
1759440957164008700,4.1450087890625,2.6886885166168213,-0.6440402865409851,-9.598653793334961
1759440957174008800,4.1550087890625,2.719813108444214,-0.6631938815116882,-9.62259578704834
1759440957184008700,4.1650087890625,2.693476915359497,-0.6967126727104187,-9.608230590820312
1759440957194008800,4.1750087890625,2.6671407222747803,-0.7374141216278076,-9.605836868286133
1759440957204008700,4.1850087890625,2.6384103298187256,-0.7206547260284424,-9.603442192077637
1759440957214008800,4.1950087890625,2.6001031398773193,-0.7326257228851318,-9.598653793334961
1759440957224008700,4.2050087890625,2.604891538619995,-0.7134721279144287,-9.591471672058105
1759440957244008700,4.2250087890625,2.6647465229034424,-0.6847416758537292,-9.569923400878906
1759440957254008800,4.2350087890625,2.7078421115875244,-0.7110779285430908,-9.560346603393555
1759440957264008700,4.2450087890625,2.782062292098999,-0.7158663272857666,-9.56274127960205
1759440957274008800,4.2550087890625,2.779668092727661,-0.7182605266571045,-9.574711799621582
1759440957284008700,4.2650087890625,2.8107926845550537,-0.7374141216278076,-9.569923400878906
1759440957294008800,4.2750087890625,2.7772738933563232,-0.7422025203704834,-9.555558204650879
1759440957304008700,4.2850087890625,2.736572504043579,-0.7110779285430908,-9.524434089660645
1759440957314008800,4.2950087890625,2.7126305103302,-0.7110779285430908,-9.505280494689941
1759440957324008700,4.3050087890625,2.7293899059295654,-0.6823474764823914,-9.478943824768066
1759440957334008800,4.3150087890625,2.762908697128296,-0.6416460275650024,-9.459790229797363
1759440957344008700,4.3250087890625,2.7916390895843506,-0.6655880808830261,-9.459790229797363
1759440957354008800,4.3350087890625,2.8107926845550537,-0.6607996821403503,-9.495702743530273
1759440957364008700,4.3450087890625,2.7772738933563232,-0.6560112833976746,-9.510068893432617
1759440957374008800,4.3550087890625,2.786850690841675,-0.6727706789970398,-9.512462615966797
1759440957384008700,4.3650087890625,2.7748796939849854,-0.6967126727104187,-9.56513500213623
1759440957394008800,4.3750087890625,2.762908697128296,-0.6919242739677429,-9.56513500213623
1759440957404008700,4.3850087890625,2.738966703414917,-0.7134721279144287,-9.545981407165527
1759440957414008800,4.3950087890625,2.738966703414917,-0.730231523513794,-9.543587684631348
1759440957424008700,4.4050087890625,2.734178304672241,-0.7374141216278076,-9.543587684631348
1759440957434008800,4.4150087890625,2.738966703414917,-0.7733271718025208,-9.5316162109375
1759440957444008700,4.4250087890625,2.734178304672241,-0.7374141216278076,-9.524434089660645
1759440957454008800,4.4350087890625,2.7485435009002686,-0.7541735172271729,-9.510068893432617
1759440957464008700,4.4450087890625,1.9967641830444336,-0.8140285611152649,-9.435848236083984
1759440957474008800,4.4550087890625,2.3056161403656006,-0.629675030708313,-9.447818756103516
1759440957494008800,4.4750087890625,3.07415509223938,-0.7326257228851318,-9.593865394592285
1759440957504008700,4.4850087890625,3.3877954483032227,-0.689530074596405,-9.718363761901855
1759440957514008800,4.4950087890625,3.4835634231567383,-0.629675030708313,-9.751882553100586
1759440957524008700,4.5050087890625,2.8826189041137695,-0.6871358752250671,-9.608230590820312
1759440957534008800,4.5150087890625,2.434903144836426,-0.727837324142456,-9.524434089660645
