time,seconds_elapsed,z,y,x
1759348261814854400,0.0228544921875,0.06805529909431934,-0.022240473380684852,0.06096314887627959
1759348261824912400,0.032912353515625,-0.05711494901552796,-0.050993689656257626,-0.059721916643530125
1759348261834970000,0.04297021484375,-0.15815686417147518,-0.049315527310967444,-0.1398575296320021
1759348261845029400,0.053029296875,-0.17709493500590323,-0.06775310127735137,-0.1527868615709245
1759348261855087400,0.06308740234375,-0.1667746165215969,-0.010313304221630095,-0.1392391054727137
1759348261865145000,0.07314501953125,-0.12178513571619987,0.00999766240119934,-0.12679288087561727
1759348261875203300,0.083203369140625,-0.11078779475316404,0.04285013068914413,-0.10944368666782975
1759348261885262300,0.093262451171875,-0.10802373686730861,0.043371524214744564,-0.09972031116336584
1759348261895320300,0.1033203125,-0.09087985597327351,0.019086393263936043,-0.10554536405503749
1759348261905378300,0.11337841796875,-0.047196197069436306,-0.007291326051950454,-0.09913695831745863
1759348261915436300,0.123436279296875,-0.0029617724150419232,-0.01640519135594368,-0.05172273458316922
1759348261925495300,0.133495361328125,0.028640403550863263,0.006144494104385376,-0.044356881990283724
1759348261935553300,0.14355322265625,0.04702405537292361,0.009638765960931777,-0.037954467602074146
1759348261945611300,0.153611328125,0.025510873353481293,0.020415596041083336,0.012129705993831157
1759348261955669500,0.16366943359375,-0.001744213318824768,0.01682078641951084,0.013451602247357367
1759348261965728300,0.173728271484375,-0.029054975701123475,-0.0006973346143960953,0.007015577850490808
1759348261975786200,0.1837861328125,-0.04103650539591908,-0.0315448928207159,0.0010468787044286727
1759348261985844500,0.193844482421875,-0.04309621440470218,-0.06152794315218925,-0.007389379598945379
1759348261995902200,0.203902099609375,-0.01248947921693325,-0.10952128194868564,-0.014954115764796733
1759348262005961500,0.21396142578125,-0.019535890597105025,-0.10282558370232582,-0.04356880035251379
1759348262016019500,0.22401953125,0.0047479251794517036,-0.0826093096256256,-0.06774082631766795
1759348262026077200,0.2340771484375,-0.01972176855802536,-0.02405775193572044,-0.04432444102540612
1759348262036135200,0.24413525390625,-0.0342756329588592,0.04819792145788669,0.032032676337659355
1759348262046194400,0.2541943359375,-0.07004691130295396,0.06852174756228924,0.08524111943393946
1759348262056252200,0.264252197265625,-0.1289250705987215,0.0896896232753992,0.09139481975808739
1759348262066310400,0.274310302734375,-0.13281784025356172,0.07988251501023769,0.12156623226851224
1759348262076369400,0.284369384765625,-0.12364508436918258,0.032923779958486554,0.13004223806038498
1759348262086427100,0.29442724609375,-0.09483926112353801,0.00032791678011417387,0.09117167852669954
1759348262096485400,0.3044853515625,-0.0716262894488871,-0.0317582433104515,0.04446399562656879
1759348262106543400,0.31454345703125,-0.04448109289184212,-0.03060731970965862,0.00606762947589159
1759348262116602400,0.324602294921875,-0.06713306968286634,-0.03439969772994518,-0.010350567492097616
1759348262126660400,0.334660400390625,-0.0794289260238409,-0.020393384209275243,-0.02273921668305993
1759348262136718300,0.34471826171875,-0.09074877693951129,-0.000983165818452835,-0.00990165468081832
1759348262146776300,0.3547763671875,-0.1253168169736862,-0.009107435563206673,0.032987492844462396
1759348262156835300,0.36483544921875,-0.11798925056457518,-0.044129064583778375,0.09452917226105928
1759348262166893300,0.374893310546875,-0.10436462983787059,-0.06819733791351318,0.1359156601384282
1759348262176951300,0.384951416015625,-0.11303455076664685,0.058444005662202834,0.05284516274183988
1759348262187009300,0.39500927734375,-0.08508183721899985,0.09557751227021216,0.02233180492594838
1759348262197068300,0.405068359375,-0.029938918928802013,0.061007718670368194,0.04771788285598159
1759348262207126300,0.415126220703125,-0.02633709504455328,0.008073416340351105,0.09619301382005215
1759348262217184300,0.425184326171875,-0.0894938084423542,0.024370471146702766,0.10892653092592954
1759348262227243500,0.435243408203125,-0.1407452722519636,0.052965281990170476,0.11606778098270297
1759348262237301200,0.44530126953125,-0.15544073708057402,0.01397825646996498,0.09355667396709322
1759348262247359200,0.455359130859375,-0.12970423827767372,-0.03674655311703682,0.09184913939684629
1759348262257417200,0.465417236328125,-0.1188730476617813,-0.0476572387099266,0.09813581845089793
1759348262267476200,0.475476318359375,-0.09127426211833953,-0.04387070590853691,0.10457315802201628
1759348262277534200,0.4855341796875,-0.07161796001195907,-0.02718494404554367,0.12449439467489719
1759348262287592400,0.495592529296875,-0.10852072660401463,0.02717617621719837,0.12297609906643628
1759348262297651200,0.505651123046875,-0.1554939285725355,0.061523851498961446,0.12511369561702013
1759348262307709200,0.515709228515625,-0.22180413756519554,0.0869885476231575,0.06919409386590122
1759348262317767400,0.525767333984375,-0.2515826052352786,0.11705576910674571,0.02487082188427448
1759348262327825400,0.535825439453125,-0.27397490817680953,0.04182020311951637,-0.000030249007791280744
1759348262337884400,0.545884521484375,-0.24258827465772628,-0.06287468158602715,-0.056022915995121
1759348262347942400,0.5559423828125,-0.17168460039496422,-0.1635281819462776,-0.10134586653858423
1759348262358000400,0.56600048828125,-0.05599515120536089,-0.22271628397405147,-0.14234291670694946
1759348262368059400,0.576059326171875,0.03552870175987482,-0.2561106040537357,-0.14811960041224956
1759348262378117400,0.586117431640625,0.09641030983254313,-0.09205693692862987,-0.2649487211562693
1759348262388175400,0.59617529296875,0.15876783567667008,0.04508768048286438,-0.23969576808661222
1759348262398233300,0.6062333984375,0.20152648869007825,0.108573187443614,-0.17273600914403794
1759348262408292400,0.616292236328125,0.19297288761734963,0.1054535941183567,-0.11484715314656495
1759348262418350300,0.626350341796875,0.1354261230558157,0.0777209530621767,-0.07472747033461928
1759348262428408300,0.636408203125,0.07839300710484386,0.04784428571462631,-0.008939823911339044
1759348262438467300,0.64646728515625,0.026763211502134798,0.0176198278427124,0.05579144532680511
1759348262448525300,0.656525390625,0.0038312487259507177,0.05279167898893356,0.06645590107366442
1759348262458583300,0.666583251953125,-0.012362199575453996,0.13439502644240856,0.07599968222752213
1759348262468642300,0.676642333984375,-0.016948942843824623,0.19016425993740557,0.08331117428466678
1759348262478700300,0.6867001953125,0.011390870325267314,0.21328911493718622,0.10244827482253313
1759348262488758300,0.69675830078125,0.04537731107920408,0.1183767885774374,0.10176716069057583
1759348262498816300,0.706816162109375,0.0797333157978952,0.005932312658429146,0.10084551580101252
1759348262508875300,0.716875244140625,0.08832534918487071,-0.06330488969683647,0.05674436213746666
1759348262518933200,0.726933349609375,0.051743631240725514,-0.12584113310873507,0.056972617935389276
1759348262528991200,0.7369912109375,0.024009821140766142,-0.08797522057294845,0.046394379167258734
1759348262539050200,0.74705029296875,0.05756941478475928,0.005979074409604072,0.0029817922897636888
1759348262549108200,0.757108154296875,0.10631342581808566,0.045862171986699105,-0.05033230313807725
1759348262559166200,0.767166259765625,0.14629413855075835,0.005653495717048645,-0.07870952570810913
1759348262569225200,0.77722509765625,0.157828947391361,-0.0010714286237955093,-0.12185717803910374
1759348262579283200,0.787283203125,0.14972411299943922,-0.02631517547369003,-0.16414938258454204
1759348262589341400,0.797341552734375,0.17597703689187763,-0.07557634224891663,-0.20167773372903466
1759348262599400200,0.807400146484375,0.15305647229254246,-0.12168225986361503,-0.2036465495839715
1759348262609458200,0.817458251953125,0.11374006868749856,-0.12129472185075282,-0.18223448985144494
1759348262619516400,0.827516357421875,0.04027341206893325,-0.01685878034234047,-0.19422887902781366
1759348262629574400,0.837574462890625,-0.09122925393283367,0.06761106245815754,-0.17003230314329265
1759348262639633400,0.84763330078125,-0.16305793408602476,0.12262801628112792,-0.15572393793612718
1759348262649691400,0.85769140625,-0.15347148283421994,0.1494564019739628,-0.11315832327678799
1759348262659749400,0.867749267578125,-0.09662702132314444,0.12013444589972495,-0.07857260145545006
1759348262669808400,0.877808349609375,0.003466799327731132,0.05988426759839058,-0.04429696849659085
1759348262679866400,0.887866455078125,0.07684767735898494,-0.04837795419991016,-0.00757058138474822
1759348262689924400,0.89792431640625,0.14372662615031004,-0.07373159116506577,-0.01036079662516713
1759348262699983400,0.9079833984375,0.11547756000459193,-0.06649579469263553,-0.02470101827532053
1759348262710041300,0.918041259765625,0.055738546095788474,0.0013613514810800551,-0.06089081429243087
1759348262720099300,0.928099365234375,-0.03860796307474375,0.09162497525215148,-0.05879018875136971
1759348262730158300,0.938158447265625,-0.1229654315419495,0.12176876910328864,-0.05721621743291616
1759348262740216600,0.948216552734375,-0.240721896263957,0.17069442031383514,-0.029281331802904605
1759348262750274300,0.9582744140625,-0.35366993779093026,0.25010931781232354,-0.014085077845305204
1759348262760333600,0.96833349609375,-0.38662396675720806,0.27638591484129427,0.0333021117515862
1759348262770391600,0.9783916015625,-0.4223661651372909,0.23226211095452307,0.09864479088634252
1759348262780449300,0.98844921875,-0.42990971238464115,0.10737082591652869,0.15384294649511573
1759348262790508500,0.998508544921875,-0.4266378511071205,-0.013655600386857985,0.17656228943392632
1759348262800566500,1.00856640625,-0.41149420411959287,-0.029901801788806914,0.1170624911084771
1759348262810624300,1.018624267578125,-0.3678951547592878,0.03741933781206608,0.0768123137846589
1759348262820683500,1.02868359375,-0.24230068988800046,0.04177344136834144,0.04329305215105414
1759348262830741500,1.038741455078125,-0.07183949380815029,0.0034440029740333555,0.029342706601321697
1759348262840799200,1.04879931640625,0.10274842681288719,-0.028032500785589217,-0.028212679658085105
1759348262850858500,1.0588583984375,0.2125152079552412,-0.05631751502752304,-0.07129910332113504
1759348262860916500,1.06891650390625,0.2862723719529807,-0.06415127739310264,-0.10195844547897577
1759348262870974500,1.078974365234375,0.3514607373088598,-0.018560323563218115,-0.15951237043365835
1759348262881033500,1.089033447265625,0.37309213888049125,0.02328793660700321,-0.18668328595384953
1759348262891091500,1.099091552734375,0.4680843986086547,0.10477613324820995,-0.3274944630488753
1759348262901149400,1.1091494140625,0.5022603705853224,0.10022446129322052,-0.450088430929929
1759348262911208400,1.11920849609375,0.43796091689318417,0.04489595730304718,-0.4975909174695611
1759348262921266400,1.129266357421875,0.3200514535665512,-0.004674421551823616,-0.511231612548232
1759348262931324400,1.139324462890625,0.1801907090641558,-0.04155015400648117,-0.4986294667370617
1759348262941383400,1.149383544921875,0.03129413293004036,-0.06105564946532249,-0.4087980969034135
1759348262951441400,1.15944140625,-0.0814832282051444,-0.11743512381315231,-0.35530206903740763
1759348262961499400,1.16949951171875,-0.16911153503656387,-0.0943950244873762,-0.2854590097434819
1759348262971558400,1.179558349609375,-0.22217866996601224,0.0022030630022287366,-0.23298297257497905
1759348262981616400,1.189616455078125,-0.2536955057360232,0.022153964141011236,-0.18009250938668847
1759348262991674400,1.19967431640625,-0.25156667701378466,0.041619712111353874,-0.12198036602735518
1759348263001733600,1.209733642578125,-0.2357800559476018,0.026935937720537186,-0.0007845014411956071
1759348263011791400,1.219791259765625,-0.21990356464087962,0.031248540222644804,0.06761208537146449
1759348263021850400,1.229850341796875,-0.19240385555773973,0.0029904139876365658,0.04327566262483597
1759348263031908600,1.23990869140625,-0.21296996598541734,0.01599251890182495,-0.06023315410129725
1759348263041966300,1.24996630859375,-0.2539434891477227,0.04578618414103985,-0.20106354735344648
1759348263052025300,1.260025390625,-0.30126258194446565,0.050423780813813206,-0.26728885454162954
1759348263062083600,1.27008349609375,-0.2980678775563836,0.03317980054616928,-0.26357056467086076
1759348263072141300,1.280141357421875,-0.24999533604383467,-0.012842530438303947,-0.16661021974012255
1759348263082200600,1.29020068359375,-0.2213219070062041,-0.010931143859028816,0.028064064967632293
1759348263092258600,1.300258544921875,-0.23495412651747463,0.11601941179633139,0.1516485782559961
1759348263102316300,1.31031640625,-0.3092722853988409,0.26439678636193276,0.25637152001224456
1759348263112375600,1.32037548828125,-0.4027870199203491,0.40452714158594605,0.3543978136740625
1759348263122433500,1.33043359375,-0.5120940745964646,0.4679115262597799,0.44367191495113073
1759348263132491300,1.3404912109375,-0.6513739504709839,0.4225087884783745,0.47855179741345344
1759348263142550500,1.350550537109375,-0.7169628594517707,0.30804595847427846,0.5414763825558125
1759348263152608500,1.3606083984375,-0.8005489051550626,0.2561217099696398,0.5845420556917786
1759348263162667500,1.37066748046875,-0.9014850218489766,0.16157763240039347,0.5591994515772909
1759348263172725500,1.3807255859375,-0.8450354048743843,0.045533086162805554,0.4953782463887706
1759348263182783500,1.390783447265625,-0.6806783708885311,-0.08820084602236747,0.38845794071871786
1759348263192842500,1.400842529296875,-0.3576327039420604,-0.13355039231181143,0.3530067611744627
1759348263202900500,1.410900390625,-0.00905044467896223,-0.11112170288264751,0.45955282670464365
1759348263212958200,1.420958251953125,0.26638591435253617,-0.06925006183683872,0.4719768760025501
1759348263223017500,1.431017578125,0.5769216438159346,-0.016585808619856833,0.3237322609711438
1759348263233075500,1.441075439453125,0.8684963599607348,-0.009033201283216476,0.028789347034879027
1759348263243134500,1.451134521484375,0.7342728906929492,-0.054282794329524035,-0.24824151464644817
1759348263253192400,1.4611923828125,0.4084299942433834,-0.24081951141953467,-0.30477997894827275
1759348263263250400,1.47125048828125,-0.15934300521612166,-0.6779922005444765,-0.4879490097034722
1759348263273309400,1.481309326171875,-0.5096551570117474,-0.8518319331467151,-0.7097457676798105
1759348263283367400,1.491367431640625,-0.6089958212077617,-0.7407984930694103,-0.615702771500498
1759348263293425400,1.50142529296875,-0.6866618292123079,-0.532798716711998,-0.32609701734110713
1759348263303484400,1.511484375,-0.8024220055505633,-0.2432353403896093,-0.11197406366197392
1759348263313542400,1.52154248046875,-0.7727011132866144,0.05140694663226604,0.06839048586543649
1759348263323601400,1.531601318359375,-0.7751116815596818,0.3119733610510826,0.19984503840915857
1759348263333659400,1.541659423828125,-0.6819871153995394,0.4288596188098192,0.252312983602751
1759348263343717400,1.55171728515625,-0.40112054801285263,0.3623708383798599,0.2972341301459819
1759348263353776400,1.5617763671875,0.009660101009905338,0.19031331301927565,0.24056086048334835
1759348263363834400,1.57183447265625,0.3645423372000456,-0.07741875524520873,0.15360468075983225
1759348263373892600,1.581892578125,0.378641005179286,-0.28667233105599876,-0.031037527820467946
1759348263383951400,1.591951416015625,0.29562925223261116,-0.36112229962348935,-0.1698894606065005
1759348263394009300,1.60200927734375,0.058334992329776285,-0.3067337068319321,-0.12691163928392343
1759348263404068400,1.612068359375,-0.22441724267303942,-0.1294599081277847,0.040097872838936746
1759348263414126300,1.622126220703125,-0.4413292242825031,0.042318800291419024,0.20394399816058575
1759348263424184300,1.632184326171875,-0.48716859991550443,0.15576280864179134,0.2893976095677353
1759348263434243300,1.642243408203125,-0.5464426266610622,0.2569084764331579,0.24842779446616767
1759348263444301300,1.65230126953125,-0.3950201853111386,0.3317150033533573,0.12923658423330633
1759348263454360600,1.662360595703125,-0.13819032707214354,0.25547347519397734,0.0611124211538583
1759348263464418300,1.672418212890625,0.1456213538557291,0.000862169787287712,-0.009644465049356222
1759348263474476300,1.682476318359375,0.22178280251622198,-0.19275895260572432,-0.0478003369750455
1759348263484535600,1.69253564453125,0.2407750877559185,-0.08621054898798465,-0.08233750694692134
1759348263494593300,1.70259326171875,0.2464116323381662,0.2545148592948913,-0.03083279902860522
1759348263504652500,1.712652587890625,0.450046491484344,0.6688146223545074,0.17404584963358938
1759348263514710500,1.72271044921875,0.5381096826016902,1.0652408750712872,0.3718795482203364
1759348263524768300,1.732768310546875,0.42412908315658565,1.1104647491544484,0.38774318004548547
1759348263534827500,1.74282763671875,0.39281770683079953,0.9568658405482768,0.48197329629473384
1759348263544885500,1.752885498046875,0.290429930023849,0.7095797634631394,0.5056223212990909
1759348263554944500,1.762944580078125,0.24928455742597577,0.45857320455014705,0.5012365804955363
1759348263565002500,1.77300244140625,0.22472060953378675,0.2729407428234815,0.5679221256066114
1759348263575060500,1.783060546875,0.21402444347441196,0.12411503996849059,0.4697738860655576
1759348263585119500,1.793119384765625,0.1511018310934305,0.0012228197932243347,0.2656517548590898
1759348263595177500,1.803177490234375,-0.058176879158616066,-0.07268471246063708,0.14503887779265642
1759348263605236500,1.813236572265625,-0.13701134642064572,-0.12931027052402497,0.04056888788416981
1759348263615294500,1.82329443359375,-0.06925503027290106,-0.21022622023522852,-0.10952800395041704
1759348263625352400,1.8333525390625,0.08794657900035381,-0.1514730024933815,-0.09151691176779568
1759348263635411500,1.843411376953125,0.21597090136706829,-0.11305062511861323,-0.09200257639288902
1759348263645469400,1.853469482421875,0.2068424230158329,-0.1974573395550251,-0.1417313606798649
1759348263655528400,1.863528564453125,0.06991232513785361,-0.11794599594473838,-0.23503902832195162
1759348263665586400,1.87358642578125,0.05063713130354881,0.08831307422518729,-0.2166075918354094
1759348263675645400,1.8836455078125,0.07543459569066763,0.20565935071110725,-0.15821473183855414
1759348263685703400,1.893703369140625,0.03569704406410455,0.39712826350629327,-0.11560527803748845
1759348263695761400,1.903761474609375,-0.26825170822441574,0.4566659096240997,-0.10950286950916051
1759348263705820400,1.9138203125,-0.5558189422935247,0.41120355060994623,-0.0224528009571135
1759348263715878400,1.92387841796875,-0.6509779368907213,0.23233692975640297,-0.062464054958522315
1759348263725937400,1.9339375,-0.599495002412796,0.01614683268070221,-0.012877163360267877
1759348263735995600,1.94399560546875,-0.3445592873573303,-0.20799510018229483,0.02383724105283618
1759348263746053400,1.954053466796875,-0.09789163443148136,-0.46284138338863845,-0.01100435522571206
1759348263756112400,1.9641123046875,0.026491116562485692,-0.5858066688001156,0.07809460868015886
1759348263766170600,1.974170654296875,-0.041453123372793194,-0.5847621281832456,0.11023366800174117
1759348263776229400,1.9842294921875,-0.15852584361433983,-0.5302858571082353,0.08805646911561489
1759348263786287600,1.99428759765625,-0.2672638662308454,-0.36128713479638097,0.09326792015358805
1759348263796346400,2.004346435546875,-0.3493190491050482,-0.22172844198048114,0.17201836239397525
1759348263806404400,2.014404296875,-0.24661095430254934,-0.08385024959743022,0.2245195340037346
1759348263816462600,2.024462646484375,-0.24290216291248798,-0.0068231240183115,0.30573242083489893
1759348263826521300,2.034521240234375,-0.28391689486801625,0.04442307909429073,0.2786339860290289
1759348263836579300,2.044579345703125,0.04735971706807613,0.0629419016033411,0.24630641839802264
1759348263846638300,2.054638427734375,0.23240707238316535,0.018765490746498106,0.16489304055869577
1759348263856696300,2.0646962890625,0.12027999185025691,-0.0016857611298561096,0.059576516823470586
1759348263866755600,2.074755615234375,-0.004998246678709984,-0.060060208687186235,-0.005533376468718052
1759348263876813300,2.084813232421875,-0.08326689675152302,-0.03516249879598617,-0.01876665979027748
1759348263886871300,2.094871337890625,-0.0643494303137064,-0.02214461179077625,0.04312017980217933
1759348263896930600,2.1049306640625,-0.1003472108900547,0.06314414617717266,0.05926058274209499
1759348263906988300,2.11498828125,-0.10911913088858127,0.2067062294155359,0.008528174370527266
1759348263917047600,2.125047607421875,-0.013518822264671325,0.31787118691802024,-0.01543576180189848
1759348263927105500,2.13510546875,0.05773030443489551,0.39583413204252715,0.024891280150413513
1759348263937164500,2.14516455078125,0.11098200215101242,0.4367272834450006,0.0019847440764307975
1759348263947222500,2.155222412109375,0.04244154988825321,0.38340368953645226,-0.043883857651054854
1759348263957280500,2.165280517578125,-0.06770283239483833,0.2813298009842634,-0.08983838409632444
1759348263967339500,2.175339599609375,-0.23518179779350756,0.14613924024999142,-0.11201982076615094
1759348263977397500,2.1853974609375,-0.34387364318072794,0.058465632972121234,-0.15544629003852606
1759348263987456300,2.195456298828125,-0.42528877458572384,0.00929272900223732,-0.15072335316985844
1759348263997514500,2.205514404296875,-0.3782669111698866,-0.03210486479103565,-0.15182780728042125
1759348264007573200,2.2155732421875,-0.23154373355209826,-0.046693362113833424,-0.19083587558865547
1759348264017631500,2.225631591796875,-0.01613163511157036,-0.06873042187690734,-0.215322374330461
1759348264027690500,2.2356904296875,0.05402794278562069,-0.12024024436175823,-0.21283435690701005
1759348264037748200,2.245748291015625,0.004009820163249969,-0.23599779035151003,-0.07300152332484722
1759348264047806500,2.255806396484375,-0.013128361642360687,-0.33323066861331463,0.009659808748960495
1759348264057865500,2.265865478515625,-0.09094225368499756,-0.3527162903279066,0.10421323866844176
1759348264067923500,2.27592333984375,-0.20074936683773995,-0.29685119524300096,0.19551672688126562
1759348264077982500,2.285982421875,-0.21241174758076667,-0.1745002423375845,0.24227029474973677
1759348264088040400,2.29604052734375,-0.2574059045612812,-0.11011749427616596,0.2728957346379757
1759348264098099500,2.306099365234375,-0.5430781186640262,-0.1390326231151819,0.27139351338148116
1759348264108157400,2.316157470703125,-0.37346623288989067,-0.14813830511271953,0.2548737557351589
1759348264118216400,2.326216552734375,-0.16750585340559482,-0.25427988149523734,0.23218290823847054
1759348264128274400,2.3362744140625,-0.17718962755203246,-0.377740256947279,0.2027446323081851
1759348264138332400,2.34633251953125,-0.10200900662243366,-0.493103835183382,0.07061287462264298
1759348264148391400,2.356391357421875,0.019636428362131118,-0.5209224009573459,0.019933657743036747
1759348264158449400,2.366449462890625,-0.044621232014894485,-0.43053895019888877,-0.006487023931741714
1759348264168508400,2.37650830078125,-0.12450082441568373,-0.33262451941370963,0.015041501787304878
1759348264178566400,2.38656640625,-0.08548281923532486,-0.26220482927560806,0.08202449547499417
1759348264188625400,2.39662548828125,-0.025600305202603337,-0.1291080259501934,-0.05046031343191862
1759348264198683400,2.406683349609375,-0.04679097726941108,-0.1480775148361921,0.07392360660582781
1759348264208742400,2.416742431640625,-0.15296061070263384,-0.19723171410560605,0.22037556606680153
1759348264218800600,2.426800537109375,-0.26692542805671693,-0.1907984661877155,0.33633506436944005
1759348264228859400,2.436859375,-0.3182043643951416,-0.09079320060312747,0.4110588814422488
1759348264238917400,2.44691748046875,-0.2394628361135721,-0.0483066425293684,0.5879454343944788
1759348264248975600,2.4569755859375,-0.3369406290471554,-0.10392156224548817,0.49927697086036205
1759348264259034400,2.467034423828125,-0.2860299414992332,-0.11819734035730362,0.5153790876165032
1759348264269092400,2.47709228515625,0.0068944356888532635,-0.21153379570245742,0.43497167194932695
1759348264279151400,2.4871513671875,0.24784955618679522,-0.3033019788175821,0.22502309961169956
1759348264289209300,2.497209228515625,0.5191466234564781,-0.2754325596392155,-0.1367728614896536
1759348264299268600,2.5072685546875,0.1784609626621008,-0.4145779954791069,-0.10296469991207122
1759348264309326300,2.517326416015625,0.32538229320049283,-0.3604980302453041,-0.3737216689556837
1759348264319385600,2.527385498046875,0.25875439656078814,-0.3213146053701639,-0.6173322723984718
1759348264329443300,2.537443359375,0.3069710227191448,-0.12383446946144103,-0.6164762400910258
1759348264339502300,2.54750244140625,0.4524824864596128,0.0413134226411581,-0.6037050213232636
1759348264349560600,2.557560546875,0.5108662863671779,0.18054887485206125,-0.5895359184563159
1759348264359619300,2.567619384765625,0.16492051308751104,0.19646891303956507,-0.6935577262058854
1759348264369677600,2.577677490234375,0.06333236222565174,0.3400497009783983,-0.9457257301136851
1759348264379735600,2.587735595703125,0.3431137647241354,0.34959085178375243,-0.8777011184185742
1759348264389794300,2.597794189453125,0.22308862441778182,0.19633505752682684,-0.9687342652574181
1759348264399852500,2.6078525390625,0.3851917419970035,0.3809317464649677,-0.9519918047711252
1759348264409911300,2.617911376953125,0.3500906179994345,0.33747312848865985,-0.810910140171647
1759348264419969300,2.62796923828125,0.37544893113970756,0.4384142136186361,-0.6680635117262601
1759348264430028500,2.638028564453125,0.4312912298709154,0.6924386590480804,-0.5343468229368329
1759348264440086300,2.648086181640625,0.08610124339461327,0.6601350568145513,-0.5634513368681073
1759348264450145500,2.6581455078125,-0.04678863918185234,0.5232201565057039,-0.6414972841009497
1759348264460203500,2.66820361328125,0.06287818871736527,0.5826514196395873,-0.3259673996120691
1759348264470262500,2.678262451171875,-0.1928945616841316,0.3881687119811773,-0.38889965660423037
1759348264480320500,2.688320556640625,-0.3905038769304752,0.41825171555578705,-0.5297571570590138
1759348264490379300,2.698379150390625,-0.44078386535942554,0.591214373062551,-0.3908741715475917
1759348264500437500,2.7084375,-0.5729916108906269,0.7828636108607053,-0.27765754221230743
1759348264510496300,2.718496337890625,-0.5617588537365198,0.9260288037359714,-0.19592267733365296
1759348264520554500,2.728554443359375,-0.32653029419183727,0.8820566832795739,-0.11080664558410644
1759348264530613500,2.738613525390625,0.10063128852844237,0.760579298338294,0.023833295530080793
1759348264540671200,2.748671142578125,0.1741647267729044,0.4562932769194245,0.05799947676509618
1759348264550729500,2.7587294921875,0.232583013471961,0.24741964033693073,-0.14065642492473124
1759348264560788500,2.76878857421875,0.1550590442866087,0.03358867360800504,-0.3985989205807447
1759348264570846200,2.77884619140625,0.0677694678902626,-0.03798223239183426,-0.3342474444404244
1759348264580905500,2.788905517578125,0.03621346915364265,0.05089461319595575,-0.3673012805193662
1759348264590963500,2.79896337890625,-0.06267477509975433,0.12963292660713194,-0.6387140831232071
1759348264601022500,2.8090224609375,-0.09361702585220337,0.13582009080946444,-0.5287947417676448
1759348264611080400,2.81908056640625,-0.02902794156372547,0.13398176946640014,-0.09751432555168867
1759348264621139500,2.829139404296875,-0.009406126248836516,0.13758826952576636,-0.04380611623972654
1759348264631197400,2.839197509765625,0.06331833370029925,0.1699962089166045,0.054415773059427734
1759348264641256400,2.84925634765625,0.11805530153810977,0.15626052903085946,0.1667246399000287
1759348264651314400,2.859314453125,0.14462591307759284,0.17250643817186354,0.13565905502885578
1759348264661373400,2.86937353515625,0.06563245586156845,0.1450683961480856,-0.006365443378686905
1759348264671431400,2.879431396484375,-0.00829319657087326,0.11439122607260942,-0.13802169250696897
1759348264681490400,2.889490478515625,-0.023133622828125953,0.08495528822988271,-0.17055676540881395
1759348264691548400,2.89954833984375,0.01194178220629692,0.028053543573617935,-0.1494856280684471
1759348264701607400,2.909607421875,0.08523848908543587,-0.07933423347771168,0.013838263477385043
1759348264711665400,2.91966552734375,0.16163900719881058,-0.1951689363569021,0.09731325002163647
1759348264721724400,2.929724365234375,0.11320786150693893,-0.377087345996499,0.10767799216955899
1759348264731782400,2.939782470703125,0.0834592044532299,-0.49212066936492915,0.14969108751267193
1759348264741842000,2.949842041015625,0.12185703190863131,-0.4799292963117361,0.28712796586900946
1759348264751899600,2.959899658203125,0.05880056401491165,-0.33771950446516275,0.3714958095997572
1759348264761959000,2.969958984375,-0.15554712006449697,-0.16461860753148794,-0.03135404642373323
1759348264772016600,2.9800166015625,-0.23640111045539378,0.05291121371537447,-0.3564826571241021
1759348264782076000,2.990075927734375,-0.1738151826828718,0.20240210248082874,-0.17561901723444462
1759348264792134000,3.0001337890625,-0.08010287976264953,0.15386954224109647,-0.04649783954173326
1759348264802193000,3.01019287109375,0.11095569866597652,0.14925503418296573,0.1869207479715347
1759348264812251000,3.0202509765625,0.16569968076646327,0.10743483106344938,0.2857005634143948
1759348264822309600,3.0303095703125,0.09204583101272583,-0.02668430104702711,0.18257161285132167
1759348264832367900,3.040367919921875,0.05842413191795349,-0.14213438852280377,0.08929039482474327
1759348264842425900,3.05042578125,0.04749532614648342,-0.20959113720208405,-0.03866963013410568
1759348264852484600,3.060484619140625,0.01710311049222946,-0.2185012966275215,-0.1482441035747528
1759348264862542800,3.07054296875,0.0259592016428709,-0.18604191931039094,-0.1690633119806647
1759348264872601900,3.080601806640625,0.020465280401706695,-0.11637158623486757,-0.1553980669826269
1759348264882659800,3.090659912109375,0.04952595519125461,-0.1209907704681158,-0.11546762313246726
1759348264892718800,3.10071875,0.05424480040669441,-0.11586539027839898,-0.10891162561774254
1759348264902776800,3.11077685546875,0.06313830095827579,-0.006696867290139198,-0.14269056110084055
1759348264912835800,3.1208359375,-0.03880523921251297,0.03777881877422332,-0.2627525262862444
1759348264922893800,3.130893798828125,-0.14424714289307594,0.1242778293147683,-0.15359861634522676
1759348264932952800,3.140952880859375,-0.22906945239305496,0.226400525444746,-0.10980565184801816
1759348264943010800,3.1510107421875,-0.33430209723711013,0.2715741306453943,-0.2546373166307807
1759348264953069800,3.16106982421875,-0.3418237249135971,0.27010055096149443,-0.21552871055752038
1759348264963127800,3.1711279296875,-0.28931378547549247,0.2143622971266508,-0.02618541161417961
1759348264973186800,3.181186767578125,-0.26917992898523807,0.15029986706078052,0.18260989903509617
1759348264983244800,3.191244873046875,-0.20027415054142475,0.11762860055863857,0.2486953593611717
1759348264993303800,3.2013037109375,-0.12895605025887488,0.14948445902466773,0.2889534277305007
1759348265003361800,3.21136181640625,0.0055991351813077924,0.19805501318722962,0.2726855990186334
1759348265013420800,3.2214208984375,0.13283902917206286,0.2543678520396352,0.20107816040068863
1759348265023478800,3.231478759765625,0.25505028134584423,0.3433250693872571,0.1876902710393071
1759348265033537800,3.241537841796875,0.33629473235905166,0.3610468962997198,0.17784049267619848
1759348265043595800,3.251595703125,0.25387130069434644,0.19114479540735482,0.19820289722532033
1759348265053654800,3.26165478515625,-0.007371405550837516,-0.07777998977303505,0.2720776962533593
1759348265063712800,3.271712646484375,-0.1484802504181862,-0.1326449679046869,0.2662435832723975
1759348265073771800,3.281771728515625,-0.29240707531571386,-0.05196896442919969,0.09352963982969521
1759348265083829800,3.291829833984375,-0.2902081039667129,0.06346680226027965,-0.06412789651751517
1759348265093888800,3.301888671875,-0.1297434012442827,0.18117519005686045,-0.1791302402257919
1759348265103947000,3.311947021484375,-0.017316460981965064,0.2954512653172016,-0.39744536663144825
1759348265114005800,3.322005859375,0.03228840466439724,0.3402271033719182,-0.38786651416420936
1759348265124063700,3.332063720703125,0.06188333246111869,0.322756036350131,-0.2980065027579665
1759348265134122800,3.342122802734375,0.046909050691127774,0.1888379797697067,-0.21384557977616786
1759348265144180700,3.3521806640625,0.07219371407330036,0.07389554955512284,-0.2371720948278904
1759348265154240000,3.362239990234375,0.06519932514131069,0.07216331893503665,-0.19465806422531604
1759348265164297700,3.372297607421875,-0.035980829441547395,0.09330109177082777,-0.17068623700737953
1759348265174356700,3.382356689453125,-0.13183832769691944,0.16261574327647685,-0.26258359946012494
1759348265184415000,3.3924150390625,-0.16158873831629753,0.1972176855802536,-0.16066753181815147
1759348265194473700,3.4024736328125,-0.15516951892375946,0.12930062591284514,0.11494739865064621
1759348265204532000,3.412531982421875,-0.0973012673228979,0.08621756325066089,0.2531663672953844
1759348265214590700,3.4225908203125,-0.0551905568242073,0.061709144937992094,0.28748130935132504
1759348265224648700,3.432648681640625,-0.04511515301167965,0.04666033662706613,0.2768757441848516
1759348265234707700,3.442707763671875,-0.016694529691338538,0.09220774357616901,0.2388072948142886
1759348265244765700,3.452765625,-0.038194413837790486,0.1690928303360939,0.033903730906546116
1759348265254825000,3.462824951171875,-0.028717560440301892,0.1765755873069167,-0.15708002872020005
1759348265264882700,3.472882568359375,0.0038397242933511733,0.2644546540290117,-0.15151801067888737
1759348265274942000,3.48294189453125,-0.009116203391551971,0.3428101056024432,-0.07120528755784035
1759348265285000000,3.493,-0.008456278178095817,0.20500673202127218,-0.08927958116978406
1759348265295058700,3.50305859375,-0.015306874725222587,0.12129033793658017,-0.07090133617520332
1759348265305118000,3.513117919921875,-0.07280804657936096,0.011711188320815562,-0.06915098537653684
1759348265315175700,3.52317578125,-0.15393325512707232,-0.05796703580021858,-0.07515636327117681
1759348265325235000,3.53323486328125,-0.2361480124771595,-0.019270809920132158,-0.0297302446141839
1759348265335293000,3.54329296875,-0.22446049729287623,0.07148702710866928,0.030160160464048385
1759348265345351700,3.5533515625,-0.17821487894654273,0.20068740751743316,0.08827011186629534
1759348265355410000,3.563409912109375,-0.12055354809463023,0.2541223528459668,0.08775660938620566
1759348265365468700,3.57346875,-0.04466156402528286,0.2663528888657689,0.057525429512560365
1759348265375527000,3.58352685546875,0.014525368958711623,0.2587529352560639,0.020740297950804232
1759348265385585700,3.593585693359375,0.0534650482058525,0.17448913642168043,-0.0024558687195181846
1759348265395643600,3.6036435546875,0.07345043613612652,0.10638561427146195,-0.05664455502480268
1759348265405703000,3.613702880859375,0.0385901351571083,0.05823416230380535,-0.10942395905405282
1759348265415760600,3.6237607421875,0.007508183673024177,0.039620062726736065,-0.13441753053516148
1759348265425820000,3.63381982421875,-0.00025718963146209714,-0.006265782396495342,-0.12101093647330999
1759348265435878000,3.6438779296875,0.013491349735856055,-0.06913549554646015,-0.17153087113797663
1759348265445937000,3.65393701171875,-0.010120996519923209,-0.1457698224157095,-0.21841595643162726
1759348265455995000,3.663994873046875,-0.029615386062860488,-0.19451281053572891,-0.2693874342560768
1759348265466053600,3.6740537109375,-0.05242693732976913,-0.18548282412290573,-0.280769244492054
1759348265476112000,3.68411181640625,-0.06158113464415073,-0.10313421126008034,-0.2759305722892284
1759348265486171000,3.6941708984375,-0.040569910797476766,-0.014046353270113467,-0.16506109060198068
1759348265496228600,3.704228515625,-0.07279167996644974,0.06831453455239533,-0.054822308033704754
1759348265506287900,3.714287841796875,-0.1587877094209194,0.11790274132490157,-0.0025078911677002907
1759348265516345900,3.724345947265625,-0.23255963259637355,0.09166998343765735,0.03807517137229442
1759348265526404900,3.73440478515625,-0.21421733569800852,0.06759031193107366,0.07301993576437235
1759348265536462800,3.744462890625,-0.1050134491354227,0.0062765960514545435,0.08644055835157632
1759348265546521900,3.75452197265625,-0.005651157629489898,-0.03296381970793009,0.05221095649152994
1759348265556579800,3.764579833984375,0.04488134425580501,0.000891103620827198,0.04417699537873268
1759348265566638600,3.774638671875,0.041322774991393085,0.03933423152267933,0.03474485790580511
1759348265576696800,3.78469677734375,0.03838905962705612,0.06844137580245734,-0.0032680618852376935
1759348265586755800,3.794755859375,0.02767418886721134,0.10119798250049353,-0.039601065765321256
1759348265596813800,3.804813720703125,-0.03276186739504337,0.10124883590489625,-0.07432488088309765
1759348265606872800,3.814872802734375,-0.06154021811187267,0.09050093965828418,-0.11306962208002805
1759348265616930800,3.824930908203125,-0.06855038913488387,0.0776838359221816,-0.13514847515821457
1759348265626989800,3.83498974609375,-0.0758732793688774,0.061066463120281696,-0.13764350684434173
1759348265637048800,3.845048828125,-0.1084732342004776,0.04191606470942497,-0.1585547774478793
1759348265647106800,3.85510693359375,-0.11033844355046749,0.06706073509901761,-0.15868161869794128
1759348265657165800,3.865165771484375,-0.10444938551187515,0.09369096787124871,-0.13121055118739605
1759348265667223800,3.875223876953125,-0.07356500242650509,0.11290624821186065,-0.07686462849378585
1759348265677282800,3.88528271484375,-0.042136429461836815,0.11901800909042358,-0.055282326760888095
1759348265687340800,3.8953408203125,-0.028630466678738593,0.14294365907907486,-0.005694412249326705
1759348265697399800,3.90539990234375,-0.048671384188532826,0.10335574505627154,0.017402677960693835
1759348265707457800,3.915457763671875,-0.02455459554195404,0.12272943082898854,0.03706599432975054
1759348265717516800,3.925516845703125,-0.02429097616970539,0.12262070975750684,0.09995178183168173
1759348265727574800,3.93557470703125,-0.025393968975543975,0.13842179774045943,0.12051818452030419
1759348265737633800,3.9456337890625,-0.036276597517728805,0.11974456979930401,0.10444938551187515
1759348265747691000,3.95569091796875,-0.03139934687018394,0.11160685605108737,0.07143295883387327
1759348265757750000,3.96575,-0.007493570625782013,0.08865969570577144,0.05097264686822891
1759348265767808000,3.97580810546875,0.01760638383924961,0.07874854254424571,-0.009237783944606781
1759348265777867000,3.985866943359375,0.019582652348279952,0.02897095067948103,-0.05727203927338123
1759348265787925000,3.995925048828125,0.009494973576068877,-0.002982230681180954,-0.1157750816464424
1759348265797984000,4.00598388671875,-0.010582184290885924,-0.03600099544674158,-0.15405600472390651
1759348265808042000,4.0160419921875,-0.04892214407920837,-0.028290274938941,-0.13349836986362934
1759348265818101000,4.02610107421875,-0.0936328079432249,0.005469079060852527,-0.1043207906961441
1759348265828159000,4.036158935546875,-0.10672083757519721,0.021128420485556125,-0.08448299454301596
1759348265838218000,4.046218017578125,-0.07703063271045685,0.03656242872178554,-0.029364918433129786
1759348265848276000,4.05627587890625,-0.040326749691367146,0.047671851757168766,-0.0013368015617132186
1759348265858335000,4.0663349609375,-0.024186346751451492,0.029961423021554946,-0.0019976035580039023
1759348265868393000,4.07639306640625,-0.0016027590215206145,0.02231763027012348,0.01977408326715231
1759348265878452000,4.086451904296875,-0.045456513795256615,0.017023615515232085,0.006809387753903866
1759348265888511000,4.096510986328125,-0.0500929414242506,0.028963644155859947,-0.02002192054837942
1759348265898569000,4.10656884765625,-0.024428923335671423,0.06613163755536079,-0.045026013423502445
1759348265908628000,4.1166279296875,0.004079378268122673,0.08091419614553451,-0.04560527461618185
1759348265918686000,4.12668603515625,0.024658640438318252,0.06983136885613203,-0.024810616129636764
1759348265928745000,4.136744873046875,0.028115502893924713,0.050068391504883764,0.012007248657941817
1759348265938803000,4.146802978515625,-0.036233342897892,0.0064393853977322574,-0.0011813187390565872
1759348265948862000,4.156862060546875,-0.07069558447003364,0.00639613077789545,-0.029959669455885886
1759348265958920000,4.166919921875,-0.10342354959547519,0.039893326710164545,-0.01665828933417797
1759348265968979000,4.17697900390625,-0.08681903627514839,0.05524141022861004,0.009753332251310348
1759348265979037000,4.187036865234375,-0.06158522629737854,0.08587678698897361,0.009506079491972923
1759348265989096000,4.197095947265625,-0.024183424142003057,0.07878390611857175,0.013347557350993156
1759348265999154200,4.207154296875,-0.00935936449766159,0.05054039293080568,-0.0062593526557087895
1759348266009213000,4.217212890625,0.007034720942378044,0.05121989962756633,-0.06941577379256486
1759348266019271000,4.22727099609375,-0.006344985112547874,0.06710574328452348,-0.08672989668697119
1759348266029330000,4.237329833984375,0.13931903884112834,0.07994418206959962,-0.08191840475201606
1759348266039388000,4.247387939453125,-0.12529635870754718,0.0969838719367981,-0.06751549312919378
1759348266049447200,4.257447265625,-0.2302870114892721,0.15637801793068645,-0.08470452833920716
1759348266059505000,4.2675048828125,-0.1461912626981735,0.15272563290297983,-0.039109190595149994
1759348266069564000,4.27756396484375,-0.08379004384279251,0.06945493675917387,-0.03567190962284803
1759348266079622100,4.2876220703125,-0.016008885514736174,-0.000566109450161457,-0.03416296636462211
1759348266089681000,4.297680908203125,0.02778524802625179,-0.056037529042363164,-0.07549655501097441
1759348266099740000,4.307739990234375,-0.04889934772551059,-0.04978022221326828,-0.14343465746641157
1759348266109798000,4.3177978515625,-0.07730418895483017,-0.009437690430879593,-0.16031974129378795
1759348266119857200,4.327857177734375,-0.03488601994216442,0.031180443422496318,-0.1837666678547859
1759348266129915000,4.337914794921875,0.05537175861001015,0.06428074899166822,-0.20308803891837596
