seconds_elapsed,acc_z,acc_y,acc_x,grav_z,grav_y,grav_x,gyro_z,gyro_y,gyro_x
0.0600,0.0272,0.0220,-0.0477,9.2036,3.3857,0.0317,-0.0057,0.0139,-0.0841
0.0700,0.0496,0.0068,-0.0389,9.2062,3.3786,0.0303,-0.0057,0.0139,-0.0841
0.0800,0.0546,0.0089,-0.0298,9.2079,3.3741,0.0294,-0.0057,0.0139,-0.0841
0.0900,0.0597,0.0111,-0.0208,9.2096,3.3695,0.0284,-0.0057,0.0139,-0.0841
0.1000,0.0720,0.0172,0.0019,9.2138,3.3578,0.0261,-0.0073,0.0167,-0.0202
0.1100,0.0726,0.0211,0.0099,9.2156,3.3531,0.0244,-0.0093,0.0190,0.0114
0.1200,0.0587,0.0232,0.0064,9.2152,3.3542,0.0224,-0.0083,0.0210,0.0152
0.1300,0.0368,0.0244,0.0006,9.2147,3.3555,0.0202,-0.0075,0.0084,0.0046
0.1400,0.0132,0.0209,-0.0066,9.2143,3.3565,0.0185,-0.0050,-0.0057,0.0016
0.1500,0.0020,0.0185,-0.0153,9.2143,3.3565,0.0185,-0.0042,-0.0285,-0.0082
0.1600,-0.0036,0.0179,-0.0273,9.2144,3.3563,0.0201,-0.0048,-0.0511,-0.0106
0.1700,-0.0144,0.0222,-0.0336,9.2148,3.3552,0.0240,-0.0030,-0.0616,-0.0013
0.1800,-0.0304,0.0257,-0.0316,9.2149,3.3549,0.0292,0.0005,-0.0584,-0.0007
0.1900,-0.0399,0.0255,-0.0323,9.2148,3.3551,0.0346,0.0033,-0.0476,-0.0141
0.2000,-0.0417,0.0229,-0.0257,9.2150,3.3546,0.0393,0.0053,-0.0195,-0.0180
0.2100,-0.0382,0.0188,-0.0046,9.2155,3.3530,0.0421,0.0031,0.0047,-0.0292
0.2200,-0.0174,0.0231,0.0001,9.2162,3.3511,0.0422,0.0009,0.0210,-0.0263
0.2300,-0.0016,0.0273,0.0049,9.2172,3.3485,0.0406,-0.0004,0.0159,-0.0271
0.2400,0.0016,0.0286,0.0045,9.2179,3.3464,0.0386,-0.0020,0.0027,-0.0286
0.2500,-0.0057,0.0271,-0.0027,9.2188,3.3439,0.0378,-0.0026,-0.0054,-0.0251
0.2600,-0.0208,0.0214,-0.0100,9.2197,3.3417,0.0380,-0.0026,-0.0083,-0.0290
0.2700,-0.0312,0.0140,-0.0130,9.2205,3.3395,0.0385,-0.0022,-0.0063,-0.0369
0.2800,-0.0291,0.0090,-0.0159,9.2215,3.3365,0.0391,-0.0020,-0.0079,-0.0473
0.2900,-0.0217,0.0087,-0.0196,9.2229,3.3328,0.0395,-0.0024,-0.0081,-0.0438
0.3000,-0.0136,0.0121,-0.0234,9.2244,3.3287,0.0401,-0.0034,-0.0075,-0.0271
0.3100,-0.0050,0.0189,-0.0247,9.2254,3.3258,0.0406,-0.0030,-0.0197,-0.0206
0.3200,-0.0056,0.0254,-0.0273,9.2260,3.3241,0.0416,-0.0014,-0.0270,-0.0186
0.3300,-0.0142,0.0277,-0.0279,9.2265,3.3226,0.0439,-0.0004,-0.0195,-0.0282
0.3400,-0.0340,0.0296,-0.0219,9.2272,3.3207,0.0458,0.0011,-0.0118,-0.0400
0.3500,-0.0414,0.0295,-0.0134,9.2283,3.3176,0.0469,-0.0004,-0.0087,-0.0546
0.3600,-0.0501,0.0272,-0.0125,9.2298,3.3135,0.0476,-0.0030,0.0053,-0.0660
0.3700,-0.0600,0.0159,-0.0091,9.2317,3.3081,0.0475,-0.0050,0.0170,-0.0693
0.3800,-0.0446,0.0114,-0.0083,9.2339,3.3021,0.0458,-0.0032,0.0141,-0.0727
0.3900,-0.0316,0.0095,-0.0113,9.2360,3.2961,0.0440,0.0001,0.0070,-0.0711
0.4000,-0.0195,0.0094,-0.0222,9.2383,3.2898,0.0430,-0.0010,-0.0201,-0.0654
0.4100,-0.0152,0.0160,-0.0340,9.2403,3.2841,0.0435,-0.0004,-0.0435,-0.0634
0.4200,-0.0155,0.0261,-0.0325,9.2422,3.2787,0.0468,0.0025,-0.0445,-0.0589
0.4300,-0.0156,0.0392,-0.0206,9.2440,3.2736,0.0509,0.0068,-0.0325,-0.0644
0.4400,-0.0190,0.0458,-0.0040,9.2458,3.2685,0.0543,0.0092,-0.0032,-0.0695
0.4500,-0.0106,0.0436,0.0146,9.2478,3.2628,0.0557,0.0051,0.0290,-0.0603
0.4600,0.0018,0.0394,0.0274,9.2497,3.2575,0.0540,-0.0028,0.0442,-0.0497
0.4700,0.0211,0.0380,0.0218,9.2512,3.2532,0.0500,-0.0077,0.0481,-0.0253
0.4800,0.0655,0.0281,-0.0023,9.2522,3.2504,0.0454,-0.0091,0.0328,-0.0121
0.4900,0.0716,0.0241,-0.0246,9.2525,3.2496,0.0414,-0.0061,0.0167,0.0103
0.5000,0.0581,0.0207,-0.0392,9.2524,3.2498,0.0392,-0.0020,-0.0036,0.0250
0.5100,0.0238,0.0200,-0.0419,9.2516,3.2521,0.0387,0.0009,-0.0240,0.0152
0.5200,-0.0202,0.0243,-0.0411,9.2509,3.2541,0.0403,0.0029,-0.0456,0.0020
0.5300,-0.0670,0.0324,-0.0470,9.2507,3.2548,0.0438,0.0051,-0.0704,-0.0265
0.5400,-0.1033,0.0359,-0.0494,9.2510,3.2537,0.0494,0.0080,-0.0745,-0.0560
0.5500,-0.1158,0.0352,-0.0468,9.2524,3.2496,0.0564,0.0102,-0.0539,-0.0813
0.5600,-0.0916,0.0335,-0.0238,9.2546,3.2434,0.0621,0.0096,-0.0179,-0.0892
0.5700,-0.0206,0.0236,0.0385,9.2577,3.2343,0.0645,-0.0002,0.0099,-0.0884
0.5800,-0.0004,0.0246,0.0460,9.2591,3.2303,0.0642,-0.0047,0.0171,-0.0881
0.5900,0.0486,0.0299,0.0506,9.2628,3.2198,0.0627,-0.0044,0.0398,-0.0666
0.6000,0.0678,0.0357,0.0147,9.2651,3.2132,0.0596,0.0001,0.0316,-0.0475
0.6100,0.0471,0.0280,-0.0320,9.2666,3.2089,0.0559,0.0003,-0.0309,-0.0497
0.6200,-0.0468,0.0096,-0.0770,9.2679,3.2051,0.0563,-0.0018,-0.1180,-0.0660
0.6300,-0.1793,-0.0149,-0.1033,9.2696,3.2000,0.0642,-0.0063,-0.1602,-0.1096
0.6400,-0.2713,-0.0431,-0.0754,9.2722,3.1923,0.0778,-0.0081,-0.0938,-0.1436
0.6500,-0.2624,-0.0482,0.0165,9.2761,3.1806,0.0888,-0.0097,0.0182,-0.1607
0.6600,-0.1752,-0.0260,0.1003,9.2807,3.1672,0.0897,-0.0122,0.1045,-0.1674
0.6700,-0.0613,0.0131,0.1275,9.2857,3.1528,0.0816,-0.0122,0.1463,-0.1558
0.6800,0.0416,0.0565,0.1124,9.2905,3.1389,0.0687,-0.0101,0.1485,-0.1389
0.6900,0.1301,0.0892,0.0799,9.2946,3.1270,0.0550,-0.0032,0.1257,-0.1133
0.7000,0.1986,0.0998,0.0437,9.2979,3.1172,0.0433,0.0027,0.0886,-0.0677
0.7100,0.2355,0.0838,0.0104,9.3001,3.1108,0.0351,0.0082,-0.0081,-0.0080
0.7200,0.2118,0.0495,-0.0171,9.3006,3.1093,0.0331,0.0180,-0.1759,0.0891
0.7300,0.1179,0.0026,-0.0595,9.2988,3.1146,0.0444,0.0108,-0.2752,0.1757
0.7400,0.0422,-0.0459,-0.1071,9.2939,3.1289,0.0688,-0.0101,-0.2543,0.2162
0.7500,0.0274,-0.0660,-0.1276,9.2871,3.1482,0.0941,-0.0183,-0.1468,0.1877
0.7600,0.0517,-0.0508,-0.1183,9.2804,3.1672,0.1111,0.0068,-0.0840,0.1388
0.7700,0.0710,-0.0210,-0.1034,9.2755,3.1814,0.1193,0.0288,-0.0621,0.1130
0.7800,0.0827,0.0161,-0.0766,9.2717,3.1921,0.1261,0.0261,-0.0456,0.1020
0.7900,0.0988,0.0433,-0.0348,9.2684,3.2016,0.1314,0.0127,-0.0417,0.1003
0.8000,0.1084,0.0487,0.0002,9.2652,3.2106,0.1355,0.0029,-0.0407,0.1083
0.8100,0.1070,0.0296,0.0172,9.2618,3.2202,0.1393,-0.0020,-0.0342,0.1229
0.8200,0.0932,0.0005,0.0219,9.2580,3.2309,0.1425,-0.0024,-0.0175,0.1362
0.8300,0.0711,-0.0260,0.0207,9.2538,3.2430,0.1445,-0.0008,0.0033,0.1445
0.8400,0.0438,-0.0477,0.0126,9.2492,3.2559,0.1447,0.0015,0.0098,0.1329
0.8500,0.0123,-0.0644,0.0056,9.2448,3.2686,0.1437,0.0047,0.0047,0.1244
0.8600,-0.0220,-0.0717,0.0030,9.2408,3.2799,0.1430,0.0092,0.0206,0.1138
0.8700,-0.0430,-0.0736,0.0031,9.2370,3.2906,0.1422,0.0100,0.0347,0.0857
0.8800,-0.0471,-0.0647,0.0026,9.2339,3.2993,0.1395,0.0113,0.0290,0.0578
0.8900,-0.0530,-0.0394,0.0021,9.2319,3.3051,0.1367,0.0153,0.0163,0.0464
0.9000,-0.0627,-0.0124,0.0052,9.2304,3.3092,0.1353,0.0170,-0.0026,0.0399
0.9100,-0.0758,0.0007,0.0115,9.2291,3.3129,0.1354,0.0157,-0.0042,0.0460
0.9200,-0.0848,-0.0014,0.0215,9.2278,3.3166,0.1365,0.0127,0.0165,0.0470
0.9300,-0.0824,-0.0114,0.0345,9.2262,3.3210,0.1363,0.0086,0.0467,0.0405
0.9400,-0.0691,-0.0105,0.0431,9.2249,3.3249,0.1333,0.0072,0.0622,0.0270
0.9500,-0.0466,-0.0023,0.0427,9.2239,3.3278,0.1281,0.0108,0.0552,0.0122
0.9600,-0.0286,0.0082,0.0367,9.2234,3.3293,0.1229,0.0143,0.0339,0.0054
0.9700,-0.0212,0.0125,0.0313,9.2233,3.3298,0.1195,0.0163,0.0178,0.0138
0.9800,-0.0202,0.0094,0.0262,9.2230,3.3305,0.1183,0.0137,0.0086,0.0221
0.9900,-0.0196,0.0004,0.0218,9.2224,3.3323,0.1179,0.0121,0.0190,0.0219
1.0000,-0.0125,-0.0064,0.0191,9.2217,3.3343,0.1173,0.0125,0.0328,0.0120
1.0100,-0.0080,-0.0054,0.0229,9.2212,3.3358,0.1152,0.0143,0.0353,-0.0051
1.0200,-0.0208,0.0001,0.0303,9.2212,3.3358,0.1125,0.0204,0.0453,-0.0135
1.0300,-0.0428,0.0006,0.0372,9.2217,3.3346,0.1096,0.0210,0.0607,-0.0231
1.0400,-0.0554,-0.0065,0.0398,9.2223,3.3328,0.1054,0.0188,0.0654,-0.0363
1.0500,-0.0534,-0.0139,0.0321,9.2235,3.3299,0.1003,0.0153,0.0607,-0.0453
1.0600,-0.0357,-0.0132,0.0171,9.2249,3.3259,0.0954,0.0139,0.0467,-0.0520
1.0700,-0.0070,-0.0006,0.0044,9.2266,3.3214,0.0914,0.0159,0.0286,-0.0473
1.0800,0.0224,0.0135,0.0028,9.2283,3.3168,0.0889,0.0165,0.0098,-0.0263
1.0900,0.0444,0.0159,0.0068,9.2294,3.3136,0.0882,0.0110,-0.0103,0.0114
1.1000,0.0587,0.0145,0.0114,9.2295,3.3134,0.0891,0.0055,-0.0111,0.0348
1.1100,0.0669,0.0125,0.0146,9.2285,3.3162,0.0908,0.0066,0.0058,0.0429
1.1200,0.0699,0.0103,0.0142,9.2271,3.3200,0.0912,0.0074,0.0135,0.0464
1.1300,0.0682,0.0061,0.0143,9.2256,3.3242,0.0903,0.0068,0.0025,0.0549
1.1400,0.0539,0.0023,0.0131,9.2239,3.3288,0.0898,0.0049,-0.0166,0.0629
1.1500,0.0256,-0.0032,0.0111,9.2219,3.3344,0.0910,0.0025,-0.0230,0.0653
1.1600,-0.0018,-0.0163,0.0072,9.2198,3.3403,0.0933,0.0021,-0.0211,0.0647
1.1700,-0.0236,-0.0302,0.0035,9.2176,3.3462,0.0954,0.0035,-0.0321,0.0553
1.1800,-0.0495,-0.0324,-0.0038,9.2156,3.3515,0.0980,0.0045,-0.0478,0.0407
1.1900,-0.0656,-0.0300,-0.0111,9.2141,3.3556,0.1021,0.0100,-0.0449,0.0250
1.2000,-0.0630,-0.0231,-0.0095,9.2131,3.3582,0.1068,0.0167,-0.0305,0.0099
1.2100,-0.0521,-0.0020,0.0051,9.2126,3.3595,0.1106,0.0249,-0.0150,-0.0027
1.2200,-0.0233,0.0036,0.0153,9.2126,3.3595,0.1131,0.0255,-0.0038,-0.0037
1.2300,0.0228,0.0041,0.0170,9.2127,3.3590,0.1147,0.0194,0.0066,0.0156
1.2400,0.0845,0.0043,0.0238,9.2125,3.3595,0.1151,0.0117,-0.0012,0.0433
1.2500,0.1470,-0.0067,0.0317,9.2114,3.3626,0.1152,-0.0048,-0.0419,0.0755
1.2600,0.1707,-0.0157,0.0078,9.2093,3.3684,0.1175,-0.0219,-0.0643,0.1158
1.2700,0.1861,-0.0176,-0.0189,9.2059,3.3774,0.1226,-0.0238,-0.0712,0.1559
1.2800,0.1860,-0.0262,-0.0338,9.2012,3.3900,0.1280,-0.0185,-0.0942,0.1838
1.2900,0.1454,-0.0303,-0.0390,9.1954,3.4053,0.1348,-0.0146,-0.1107,0.1962
1.3000,0.0878,-0.0308,-0.0287,9.1892,3.4218,0.1436,-0.0132,-0.1044,0.1901
1.3100,0.0198,-0.0365,-0.0129,9.1830,3.4379,0.1525,-0.0134,-0.0924,0.1635
1.3200,-0.0554,-0.0332,-0.0029,9.1776,3.4521,0.1601,-0.0071,-0.0561,0.1014
1.3300,-0.1034,-0.0152,0.0107,9.1737,3.4620,0.1657,0.0064,-0.0264,0.0413
1.3400,-0.1138,0.0039,0.0241,9.1721,3.4661,0.1682,0.0188,-0.0054,-0.0001
1.3500,-0.0889,0.0140,0.0315,9.1720,3.4664,0.1696,0.0241,0.0110,-0.0178
1.3600,-0.0497,0.0134,0.0379,9.1727,3.4645,0.1696,0.0241,0.0271,-0.0129
1.3700,-0.0089,0.0120,0.0438,9.1734,3.4628,0.1684,0.0212,0.0369,0.0081
1.3800,0.0277,0.0090,0.0407,9.1735,3.4626,0.1660,0.0139,0.0222,0.0329
1.3900,0.0380,0.0061,0.0197,9.1727,3.4647,0.1638,0.0080,0.0053,0.0525
1.4000,0.0332,-0.0013,0.0058,9.1712,3.4689,0.1633,0.0041,-0.0124,0.0635
1.4100,0.0106,-0.0091,-0.0029,9.1691,3.4743,0.1641,0.0025,-0.0285,0.0625
1.4200,-0.0239,-0.0125,-0.0092,9.1669,3.4801,0.1664,0.0039,-0.0270,0.0537
1.4300,-0.0603,-0.0135,-0.0128,9.1649,3.4851,0.1693,0.0060,-0.0195,0.0405
1.4400,-0.0938,-0.0111,-0.0110,9.1634,3.4891,0.1714,0.0102,-0.0026,0.0124
1.4500,-0.1169,-0.0076,-0.0042,9.1625,3.4912,0.1726,0.0153,0.0190,-0.0139
1.4600,-0.1244,0.0002,0.0044,9.1628,3.4906,0.1720,0.0174,0.0310,-0.0306
1.4700,-0.1174,0.0106,0.0120,9.1638,3.4881,0.1700,0.0155,0.0302,-0.0426
1.4800,-0.1019,0.0248,0.0219,9.1654,3.4839,0.1673,0.0121,0.0351,-0.0499
1.4900,-0.0773,0.0353,0.0304,9.1672,3.4794,0.1647,0.0102,0.0454,-0.0530
1.5000,-0.0468,0.0435,0.0377,9.1690,3.4747,0.1610,0.0087,0.0490,-0.0509
1.5100,-0.0222,0.0503,0.0370,9.1707,3.4703,0.1570,0.0060,0.0347,-0.0408
1.5200,-0.0139,0.0513,0.0325,9.1721,3.4670,0.1542,0.0020,0.0157,-0.0270
1.5300,-0.0112,0.0426,0.0324,9.1729,3.4649,0.1531,-0.0020,0.0176,-0.0188
1.5400,0.0039,0.0295,0.0314,9.1734,3.4636,0.1517,-0.0032,0.0341,-0.0154
1.5500,0.0238,0.0270,0.0248,9.1738,3.4626,0.1488,-0.0047,0.0209,-0.0053
1.5600,0.0321,0.0367,0.0194,9.1739,3.4624,0.1470,-0.0053,-0.0020,0.0102
1.5700,0.0290,0.0414,0.0180,9.1734,3.4637,0.1472,-0.0029,0.0035,0.0185
1.5800,0.0273,0.0383,0.0206,9.1727,3.4656,0.1470,-0.0011,0.0231,0.0197
1.5900,0.0268,0.0351,0.0226,9.1720,3.4676,0.1450,-0.0002,0.0383,0.0185
1.6000,0.0251,0.0357,0.0199,9.1713,3.4694,0.1417,0.0005,0.0429,0.0157
1.6100,0.0185,0.0365,0.0164,9.1708,3.4710,0.1380,0.0014,0.0380,0.0139
1.6200,0.0058,0.0315,0.0125,9.1703,3.4724,0.1348,0.0014,0.0283,0.0105
1.6300,-0.0058,0.0208,0.0064,9.1699,3.4736,0.1324,0.0005,0.0194,0.0069
1.6400,-0.0175,0.0093,-0.0003,9.1697,3.4743,0.1308,-0.0014,0.0084,0.0032
1.6500,-0.0317,0.0041,-0.0020,9.1695,3.4747,0.1301,-0.0026,-0.0035,0.0020
1.6600,-0.0472,0.0050,0.0024,9.1694,3.4750,0.1305,-0.0032,-0.0111,0.0002
1.6700,-0.0472,0.0049,0.0122,9.1694,3.4750,0.1314,-0.0032,-0.0002,-0.0081
1.6800,-0.0271,0.0044,0.0218,9.1696,3.4744,0.1314,-0.0023,0.0154,-0.0136
1.6900,-0.0048,0.0104,0.0268,9.1701,3.4732,0.1300,-0.0011,0.0182,-0.0108
1.7000,0.0164,0.0184,0.0296,9.1704,3.4723,0.1284,0.0014,0.0224,-0.0053
1.7100,0.0330,0.0224,0.0315,9.1706,3.4719,0.1265,0.0029,0.0258,-0.0014
1.7200,0.0401,0.0237,0.0349,9.1707,3.4718,0.1243,0.0017,0.0191,0.0014
1.7300,0.0354,0.0223,0.0352,9.1706,3.4720,0.1228,-0.0005,0.0090,0.0047
1.7400,0.0248,0.0170,0.0335,9.1704,3.4725,0.1221,-0.0020,0.0090,0.0081
1.7500,0.0167,0.0090,0.0307,9.1701,3.4734,0.1214,-0.0038,0.0139,0.0069
1.7600,0.0050,0.0059,0.0235,9.1699,3.4740,0.1201,-0.0044,0.0130,0.0038
1.7700,-0.0116,0.0067,0.0139,9.1698,3.4744,0.1189,-0.0032,0.0075,0.0017
1.7800,-0.0248,0.0066,0.0062,9.1697,3.4746,0.1183,-0.0014,-0.0011,-0.0044
1.7900,-0.0297,0.0069,0.0037,9.1698,3.4742,0.1184,0.0011,-0.0069,-0.0111
1.8000,-0.0324,0.0103,0.0017,9.1702,3.4733,0.1192,0.0029,-0.0069,-0.0154
1.8100,-0.0329,0.0128,0.0008,9.1707,3.4720,0.1201,0.0029,-0.0014,-0.0188
1.8200,-0.0287,0.0120,0.0029,9.1713,3.4704,0.1204,0.0017,0.0069,-0.0231
1.8300,-0.0211,0.0152,0.0046,9.1720,3.4684,0.1199,0.0020,0.0108,-0.0289
1.8400,-0.0161,0.0189,0.0030,9.1730,3.4659,0.1191,0.0041,0.0087,-0.0322
1.8500,-0.0159,0.0168,0.0012,9.1740,3.4632,0.1185,0.0044,0.0057,-0.0319
1.8600,-0.0085,0.0099,0.0026,9.1750,3.4605,0.1183,0.0026,0.0111,-0.0310
1.8700,0.0060,0.0065,0.0059,9.1760,3.4579,0.1174,0.0023,0.0185,-0.0295
1.8800,0.0134,0.0102,0.0074,9.1770,3.4554,0.1159,0.0029,0.0151,-0.0270
1.8900,0.0138,0.0125,0.0074,9.1779,3.4531,0.1147,0.0011,0.0096,-0.0218
1.9000,0.0131,0.0095,0.0081,9.1786,3.4513,0.1140,-0.0020,0.0105,-0.0142
1.9100,0.0078,0.0095,0.0067,9.1790,3.4501,0.1130,-0.0026,0.0081,-0.0115
1.9200,-0.0057,0.0140,0.0027,9.1794,3.4492,0.1123,-0.0011,0.0057,-0.0151
1.9300,-0.0157,0.0140,0.0032,9.1798,3.4480,0.1118,0.0005,0.0115,-0.0218
1.9400,-0.0152,0.0135,0.0053,9.1805,3.4461,0.1108,0.0026,0.0142,-0.0255
1.9500,-0.0113,0.0168,0.0016,9.1814,3.4440,0.1097,0.0041,0.0102,-0.0240
1.9600,-0.0084,0.0200,-0.0000,9.1821,3.4420,0.1090,0.0050,0.0087,-0.0182
1.9700,-0.0090,0.0215,0.0053,9.1827,3.4405,0.1084,0.0060,0.0108,-0.0157
1.9800,-0.0154,0.0215,0.0096,9.1831,3.4393,0.1077,0.0066,0.0130,-0.0206
1.9900,-0.0209,0.0196,0.0117,9.1838,3.4376,0.1068,0.0060,0.0151,-0.0273
2.0000,-0.0097,0.0147,0.0152,9.1846,3.4354,0.1057,0.0041,0.0298,-0.0319
2.0100,0.0180,0.0137,0.0140,9.1856,3.4327,0.1033,0.0029,0.0481,-0.0240
2.0200,0.0436,0.0180,0.0050,9.1864,3.4308,0.0992,0.0008,0.0414,-0.0060
2.0300,0.0542,0.0219,-0.0046,9.1866,3.4305,0.0956,0.0002,0.0206,0.0130
2.0400,0.0499,0.0242,-0.0076,9.1861,3.4319,0.0938,0.0023,0.0035,0.0273
2.0500,0.0329,0.0240,-0.0039,9.1851,3.4344,0.0936,0.0041,-0.0099,0.0301
2.0600,0.0112,0.0224,0.0058,9.1840,3.4372,0.0947,0.0047,-0.0111,0.0264
2.0700,-0.0023,0.0187,0.0226,9.1831,3.4397,0.0959,0.0047,0.0020,0.0194
2.0800,-0.0064,0.0182,0.0370,9.1825,3.4415,0.0959,0.0035,0.0145,0.0078
2.0900,-0.0097,0.0186,0.0441,9.1822,3.4422,0.0947,0.0002,0.0163,0.0011
2.1000,-0.0180,0.0161,0.0443,9.1822,3.4423,0.0933,-0.0044,0.0099,-0.0014
2.1100,-0.0241,0.0090,0.0369,9.1822,3.4423,0.0924,-0.0078,0.0084,-0.0063
2.1200,-0.0195,-0.0013,0.0295,9.1824,3.4418,0.0914,-0.0072,0.0160,-0.0127
2.1300,-0.0115,-0.0074,0.0203,9.1828,3.4407,0.0899,-0.0038,0.0212,-0.0185
2.1400,-0.0002,-0.0069,0.0090,9.1834,3.4390,0.0879,-0.0011,0.0273,-0.0163
2.1500,0.0172,-0.0031,0.0007,9.1840,3.4376,0.0855,0.0005,0.0310,-0.0066
2.1600,0.0301,0.0023,-0.0038,9.1842,3.4370,0.0828,0.0017,0.0209,0.0029
2.1700,0.0314,0.0080,-0.0080,9.1842,3.4373,0.0810,0.0023,0.0078,0.0099
2.1800,0.0270,0.0118,-0.0134,9.1838,3.4382,0.0804,0.0023,-0.0014,0.0133
2.1900,0.0203,0.0130,-0.0172,9.1834,3.4394,0.0807,0.0017,-0.0108,0.0087
2.2000,0.0182,0.0098,-0.0159,9.1831,3.4402,0.0817,0.0029,-0.0060,0.0029
2.2100,0.0290,0.0059,-0.0082,9.1829,3.4405,0.0824,0.0066,0.0096,-0.0029
2.2200,0.0421,0.0086,0.0021,9.1831,3.4402,0.0817,0.0069,0.0127,-0.0044
2.2300,0.0455,0.0138,0.0114,9.1832,3.4398,0.0808,0.0041,0.0099,0.0096
2.2400,0.0375,0.0129,0.0146,9.1829,3.4407,0.0800,-0.0005,0.0105,0.0270
2.2500,0.0228,0.0069,0.0120,9.1820,3.4432,0.0790,-0.0038,0.0096,0.0322
2.2600,-0.0000,0.0027,0.0082,9.1809,3.4461,0.0780,-0.0026,0.0053,0.0267
2.2700,-0.0254,0.0003,0.0075,9.1800,3.4486,0.0774,0.0002,0.0026,0.0188
2.2800,-0.0415,0.0010,0.0102,9.1793,3.4503,0.0772,0.0053,0.0008,0.0127
2.2900,-0.0507,0.0046,0.0148,9.1789,3.4514,0.0774,0.0111,-0.0032,0.0127
2.3000,-0.0491,0.0058,0.0201,9.1784,3.4526,0.0781,0.0142,-0.0057,0.0160
2.3100,-0.0353,0.0068,0.0263,9.1779,3.4541,0.0791,0.0154,-0.0087,0.0182
2.3200,-0.0048,0.0111,0.0309,9.1772,3.4557,0.0804,0.0166,-0.0154,0.0231
2.3300,0.0320,0.0197,0.0301,9.1764,3.4578,0.0825,0.0173,-0.0338,0.0331
2.3400,0.0523,0.0215,0.0239,9.1753,3.4609,0.0862,0.0182,-0.0557,0.0487
2.3500,0.0528,0.0099,0.0158,9.1735,3.4653,0.0919,0.0182,-0.0640,0.0677
2.3600,0.0361,-0.0130,0.0045,9.1711,3.4715,0.0984,0.0127,-0.0698,0.0725
2.3700,0.0147,-0.0484,-0.0155,9.1686,3.4780,0.1053,0.0014,-0.0786,0.0551
2.3800,-0.0025,-0.0892,-0.0418,9.1666,3.4829,0.1125,-0.0081,-0.0768,0.0279
2.3900,-0.0051,-0.1250,-0.0712,9.1657,3.4852,0.1190,-0.0066,-0.0640,-0.0044
2.4000,0.0078,-0.1468,-0.0956,9.1659,3.4844,0.1243,0.0032,-0.0591,-0.0304
2.4100,0.0149,-0.1469,-0.1113,9.1672,3.4809,0.1292,0.0130,-0.0664,-0.0377
2.4200,0.0133,-0.1389,-0.1204,9.1688,3.4764,0.1348,0.0179,-0.0686,-0.0334
2.4300,-0.0218,-0.1299,-0.1248,9.1703,3.4722,0.1404,0.0173,-0.0469,-0.0234
2.4400,-0.0829,-0.1109,-0.1257,9.1716,3.4688,0.1437,0.0148,-0.0017,-0.0130
2.4500,-0.1305,-0.0738,-0.1211,9.1725,3.4663,0.1427,0.0160,0.0536,-0.0069
2.4600,-0.1683,-0.0231,-0.1152,9.1732,3.4647,0.1368,0.0228,0.1077,-0.0050
2.4700,-0.1940,0.0259,-0.1145,9.1737,3.4636,0.1265,0.0319,0.1498,-0.0081
2.4800,-0.2053,0.0713,-0.1190,9.1743,3.4626,0.1130,0.0380,0.1550,-0.0191
2.4900,-0.2050,0.1149,-0.1282,9.1751,3.4608,0.0994,0.0405,0.1150,-0.0444
2.5000,-0.1945,0.1593,-0.1386,9.1766,3.4571,0.0895,0.0447,0.0512,-0.0820
2.5100,-0.1802,0.2018,-0.1463,9.1792,3.4505,0.0853,0.0545,-0.0176,-0.1272
2.5200,-0.1695,0.2294,-0.1469,9.1827,3.4409,0.0870,0.0673,-0.0738,-0.1684
2.5300,-0.1595,0.2329,-0.1341,9.1871,3.4290,0.0934,0.0793,-0.0942,-0.1962
2.5400,-0.1570,0.2169,-0.1000,9.1918,3.4163,0.1012,0.0896,-0.0725,-0.2100
2.5500,-0.1616,0.1924,-0.0457,9.1964,3.4037,0.1067,0.0973,-0.0084,-0.2054
2.5600,-0.1538,0.1691,0.0140,9.2006,3.3923,0.1069,0.1003,0.0829,-0.1859
2.5700,-0.1322,0.1497,0.0678,9.2041,3.3830,0.0998,0.1022,0.1703,-0.1581
2.5800,-0.1062,0.1304,0.1163,9.2069,3.3759,0.0860,0.1074,0.2460,-0.1269
2.5900,-0.0877,0.1064,0.1641,9.2088,3.3712,0.0670,0.1211,0.3077,-0.0875
2.6000,-0.0750,0.0770,0.2128,9.2104,3.3670,0.0433,0.1336,0.3319,-0.0518
2.6100,-0.0597,0.0424,0.2538,9.2118,3.3634,0.0179,0.1330,0.2967,-0.0386
2.6200,-0.0462,0.0029,0.2662,9.2127,3.3609,-0.0040,0.1229,0.2088,-0.0475
2.6300,-0.0355,-0.0392,0.2561,9.2139,3.3576,-0.0179,0.1067,0.0933,-0.0735
2.6400,-0.0268,-0.0800,0.2371,9.2161,3.3517,-0.0216,0.0860,-0.0276,-0.1104
2.6500,-0.0375,-0.1101,0.2100,9.2195,3.3422,-0.0149,0.0588,-0.1468,-0.1471
2.6600,-0.0829,-0.1270,0.1803,9.2242,3.3292,0.0017,0.0246,-0.2469,-0.1703
2.6700,-0.1506,-0.1332,0.1404,9.2297,3.3139,0.0260,-0.0139,-0.3086,-0.1834
2.6800,-0.2079,-0.1273,0.0867,9.2355,3.2972,0.0546,-0.0502,-0.3215,-0.1965
2.6900,-0.2153,-0.1082,0.0440,9.2417,3.2793,0.0829,-0.0753,-0.2689,-0.2213
2.7000,-0.1528,-0.0748,0.0238,9.2486,3.2591,0.1055,-0.0786,-0.1177,-0.2561
2.7100,-0.0292,-0.0311,0.0022,9.2567,3.2357,0.1140,-0.0661,0.0331,-0.2720
2.7200,0.1548,0.0141,-0.0526,9.2655,3.2109,0.1089,-0.0521,0.0930,-0.2595
2.7300,0.4183,0.0474,-0.1741,9.2738,3.1872,0.0987,-0.0417,0.0869,-0.2301
2.7400,0.7246,0.0673,-0.3551,9.2811,3.1661,0.0894,-0.0313,0.0279,-0.1801
2.7500,0.9919,0.0695,-0.5274,9.2867,3.1496,0.0857,-0.0060,-0.0444,-0.0964
2.7600,1.1505,0.0388,-0.6328,9.2897,3.1407,0.0893,0.0377,-0.0906,0.0142
2.7700,1.1737,0.0042,-0.6643,9.2892,3.1418,0.0981,0.1003,-0.0866,0.1199
2.7800,1.0793,-0.0209,-0.6300,9.2855,3.1525,0.1081,0.1978,-0.0478,0.2033
2.7900,0.8976,-0.0880,-0.5197,9.2792,3.1706,0.1174,0.3031,-0.0179,0.2836
2.8000,0.6538,-0.2078,-0.3620,9.2704,3.1958,0.1274,0.3425,-0.0234,0.3535
2.8100,0.3907,-0.3254,-0.2193,9.2594,3.2271,0.1391,0.3025,-0.0173,0.3945
2.8200,0.1900,-0.3996,-0.1071,9.2471,3.2619,0.1490,0.2402,0.0716,0.3480
2.8300,0.0103,-0.4008,-0.0205,9.2364,3.2918,0.1486,0.2246,0.1446,0.1901
2.8400,-0.1868,-0.3236,0.0458,9.2312,3.3068,0.1410,0.2561,0.1862,-0.0087
2.8500,-0.3331,-0.2039,0.1230,9.2327,3.3032,0.1307,0.2732,0.2518,-0.2069
2.8600,-0.4344,-0.0542,0.2162,9.2406,3.2816,0.1154,0.2506,0.2815,-0.3954
2.8700,-0.5246,0.1215,0.2992,9.2542,3.2436,0.0970,0.2048,0.2821,-0.5811
2.8800,-0.5807,0.2979,0.3583,9.2732,3.1893,0.0775,0.1471,0.2686,-0.7613
2.8900,-0.5640,0.4496,0.3650,9.2972,3.1189,0.0575,0.0857,0.1996,-0.9039
2.9000,-0.4884,0.5714,0.3069,9.3245,3.0366,0.0427,0.0377,0.0509,-0.9861
2.9100,-0.4353,0.6768,0.2204,9.3529,2.9480,0.0406,0.0118,-0.1623,-1.0047
2.9200,-0.4474,0.7602,0.1436,9.3805,2.8586,0.0575,0.0050,-0.3935,-0.9516
2.9300,-0.5176,0.8175,0.0814,9.4052,2.7750,0.0957,0.0053,-0.6028,-0.8092
2.9400,-0.6138,0.8619,0.0408,9.4247,2.7055,0.1532,0.0011,-0.6782,-0.6501
2.9500,-0.6901,0.9304,0.0295,9.4389,2.6513,0.2171,-0.0066,-0.5841,-0.5405
2.9600,-0.7188,1.0433,0.0467,9.4496,2.6079,0.2717,0.0032,-0.3905,-0.4574
2.9700,-0.6556,1.1756,0.0881,9.4582,2.5726,0.3081,0.0313,-0.1416,-0.4030
2.9800,-0.5351,1.3214,0.1390,9.4658,2.5428,0.3219,0.0527,0.0396,-0.3871
2.9900,-0.4504,1.4712,0.1823,9.4732,2.5152,0.3193,0.0631,0.1129,-0.4024
3.0000,-0.4139,1.5345,0.2068,9.4811,2.4865,0.3103,0.0756,0.1348,-0.4424
3.0100,-0.3364,1.5414,0.2305,9.4897,2.4546,0.2999,0.1165,0.1147,-0.5252
3.0200,-0.1576,1.6538,0.2701,9.5001,2.4152,0.2925,0.1361,-0.0185,-0.6431
3.0300,0.0633,1.8276,0.2918,9.5126,2.3647,0.2984,0.1150,-0.2366,-0.7314
3.0400,0.2950,1.9005,0.2945,9.5263,2.3049,0.3244,0.1129,-0.3905,-0.7314
3.0500,0.5703,1.8624,0.3356,9.5395,2.2436,0.3647,0.0863,-0.4354,-0.6248
3.0600,0.8782,1.8303,0.4414,9.5500,2.1908,0.4085,0.0160,-0.3596,-0.4849
3.0700,1.1900,1.8870,0.5967,9.5578,2.1496,0.4435,-0.0423,-0.1287,-0.3761
3.0800,1.4837,1.9880,0.7180,9.5646,2.1168,0.4552,-0.0646,0.1700,-0.2943
3.0900,1.7176,2.0366,0.7331,9.5714,2.0899,0.4377,-0.0606,0.3881,-0.2439
3.1000,1.8402,1.9962,0.6446,9.5780,2.0668,0.3992,-0.0399,0.4980,-0.2243
3.1100,1.8565,1.8691,0.5124,9.5845,2.0454,0.3507,-0.0005,0.5750,-0.2356
3.1200,1.8618,1.6666,0.4143,9.5912,2.0228,0.2955,0.0466,0.6504,-0.2729
3.1300,2.0222,1.4152,0.3765,9.5983,1.9965,0.2341,0.0863,0.6935,-0.3349
3.1400,2.4547,1.1734,0.3683,9.6064,1.9642,0.1692,0.1242,0.6495,-0.4259
3.1500,3.1351,1.0050,0.3421,9.6156,1.9231,0.1092,0.1846,0.4665,-0.5231
3.1600,3.9160,0.8975,0.2938,9.6259,1.8726,0.0678,0.3144,0.0536,-0.5683
3.1700,4.5770,0.7932,0.2632,9.6364,1.8177,0.0684,0.4394,-0.3725,-0.5108
3.1800,4.9586,0.6777,0.3008,9.6452,1.7680,0.1122,0.4724,-0.5600,-0.3490
3.1900,5.0276,0.5743,0.4253,9.6505,1.7337,0.1745,0.4421,-0.5316,-0.1245
3.2000,4.8479,0.4963,0.6022,9.6516,1.7208,0.2334,0.3636,-0.3270,0.1144
3.2100,4.5299,0.4203,0.7750,9.6489,1.7309,0.2712,0.2335,-0.0334,0.3309
3.2200,4.1970,0.3315,0.8827,9.6430,1.7622,0.2785,0.0545,0.2628,0.4888
3.2300,3.9465,0.2499,0.8759,9.6349,1.8092,0.2542,-0.1358,0.4592,0.5560
3.2400,3.8096,0.1912,0.7575,9.6258,1.8630,0.2074,-0.2964,0.4940,0.5340
3.2500,3.7745,0.1549,0.5640,9.6166,1.9149,0.1543,-0.4180,0.3621,0.4388
3.2600,3.7466,0.1277,0.3627,9.6086,1.9576,0.1113,-0.5059,0.1187,0.3108
3.2700,3.6939,0.0962,0.1842,9.6026,1.9880,0.0899,-0.5490,-0.0948,0.1605
3.2800,3.6648,0.0659,0.0400,9.5993,2.0039,0.0881,-0.5542,-0.2137,0.0762
3.2900,3.6187,0.0437,-0.0592,9.5976,2.0117,0.0975,-0.5423,-0.3019,0.1071
3.3000,3.4943,0.0209,-0.1311,9.5951,2.0226,0.1155,-0.5173,-0.3639,0.1776
3.3100,3.2566,-0.0207,-0.1626,9.5910,2.0402,0.1399,-0.4815,-0.3548,0.2628
3.3200,2.9249,-0.0790,-0.1592,9.5851,2.0662,0.1640,-0.4336,-0.2411,0.3355
3.3300,2.5516,-0.1334,-0.1578,9.5777,2.0991,0.1781,-0.3832,-0.0325,0.3676
3.3400,2.1824,-0.1717,-0.1683,9.5699,2.1349,0.1731,-0.3529,0.1917,0.3621
3.3500,1.8559,-0.1973,-0.1807,9.5624,2.1701,0.1472,-0.3477,0.3520,0.3444
3.3600,1.5721,-0.2259,-0.1969,9.5553,2.2035,0.1059,-0.3456,0.4042,0.3227
3.3700,1.3287,-0.2654,-0.2332,9.5484,2.2346,0.0596,-0.3151,0.3548,0.3089
3.3800,1.1536,-0.3201,-0.3012,9.5416,2.2642,0.0187,-0.2411,0.2427,0.3190
3.3900,1.0567,-0.3733,-0.3851,9.5344,2.2947,-0.0100,-0.1196,0.0160,0.3398
3.4000,1.0298,-0.4117,-0.4335,9.5265,2.3270,-0.0142,0.0075,-0.2479,0.3508
3.4100,0.8932,-0.4391,-0.4776,9.5183,2.3604,0.0095,0.1116,-0.4006,0.3505
3.4200,0.6431,-0.4939,-0.5040,9.5098,2.3937,0.0503,0.1953,-0.3862,0.3441
3.4300,0.4194,-0.5875,-0.4880,9.5013,2.4263,0.0917,0.2182,-0.3016,0.3352
3.4400,0.1262,-0.6862,-0.4788,9.4928,2.4579,0.1257,0.1935,-0.2463,0.3306
3.4500,-0.2483,-0.7867,-0.4567,9.4843,2.4890,0.1539,0.1666,-0.1388,0.3416
3.4600,-0.6313,-0.8897,-0.4029,9.4758,2.5201,0.1707,0.1333,0.0029,0.3618
3.4700,-0.9833,-0.9816,-0.3218,9.4675,2.5510,0.1721,0.0866,0.1126,0.3651
3.4800,-1.2989,-1.0499,-0.2328,9.4599,2.5798,0.1610,0.0454,0.1804,0.3508
3.4900,-1.5782,-1.1021,-0.1444,9.4531,2.6057,0.1420,0.0209,0.2326,0.3343
3.5000,-1.8110,-1.1501,-0.0632,9.4464,2.6309,0.1183,-0.0017,0.2906,0.3089
3.5100,-2.0173,-1.1993,0.0097,9.4396,2.6562,0.0896,-0.0286,0.3392,0.2897
3.5200,-2.2078,-1.2539,0.0764,9.4326,2.6820,0.0565,-0.0548,0.3719,0.2894
3.5300,-2.3618,-1.3205,0.1285,9.4250,2.7092,0.0199,-0.0939,0.3807,0.2854
3.5400,-2.5156,-1.3761,0.1693,9.4172,2.7360,-0.0185,-0.1361,0.3331,0.2876
3.5500,-2.7051,-1.3948,0.2056,9.4092,2.7631,-0.0536,-0.1513,0.2720,0.3099
3.5600,-2.9010,-1.3795,0.2438,9.4004,2.7921,-0.0834,-0.1376,0.2488,0.3428
3.5700,-3.0719,-1.3541,0.2842,9.3905,2.8242,-0.1106,-0.1086,0.2491,0.3813
3.5800,-3.1877,-1.3479,0.3298,9.3794,2.8598,-0.1371,-0.0814,0.2497,0.4033
3.5900,-3.2427,-1.3640,0.3879,9.3674,2.8975,-0.1628,-0.0677,0.2332,0.4107
3.6000,-3.2483,-1.3928,0.4560,9.3550,2.9358,-0.1866,-0.0640,0.2124,0.4198
3.6100,-3.1983,-1.4211,0.5376,9.3422,2.9750,-0.2084,-0.0661,0.2115,0.4253
3.6200,-3.0391,-1.4391,0.6252,9.3290,3.0145,-0.2301,-0.0759,0.2378,0.4183
3.6300,-2.7840,-1.4325,0.7059,9.3157,3.0533,-0.2546,-0.0991,0.2237,0.4024
3.6400,-2.5185,-1.3978,0.7789,9.3027,3.0905,-0.2785,-0.1458,0.1761,0.3871
3.6500,-2.2713,-1.3484,0.8620,9.2902,3.1261,-0.2994,-0.2152,0.1648,0.3700
3.6600,-2.0700,-1.3043,0.9523,9.2781,3.1598,-0.3215,-0.2842,0.1752,0.3435
3.6700,-1.9245,-1.2801,1.0183,9.2666,3.1907,-0.3467,-0.3386,0.2014,0.2986
3.6800,-1.8052,-1.2778,1.0526,9.2563,3.2171,-0.3762,-0.3777,0.2317,0.2485
3.6900,-1.6969,-1.2897,1.0599,9.2473,3.2386,-0.4099,-0.4045,0.2347,0.2023
3.7000,-1.6020,-1.2983,1.0444,9.2398,3.2556,-0.4447,-0.4171,0.2133,0.1672
3.7100,-1.5046,-1.2783,1.0431,9.2333,3.2691,-0.4780,-0.4103,0.1999,0.1608
3.7200,-1.4073,-1.2624,1.0486,9.2271,3.2819,-0.5099,-0.3725,0.1962,0.1895
3.7300,-1.2911,-1.2229,1.1149,9.2198,3.2974,-0.5403,-0.3493,0.2057,0.2335
3.7400,-1.1841,-1.1934,1.1801,9.2110,3.3170,-0.5708,-0.3731,0.1773,0.2796
3.7500,-1.1642,-1.2492,1.0987,9.2006,3.3406,-0.5995,-0.4265,0.1892,0.3132
3.7600,-1.1585,-1.3137,0.9640,9.1889,3.3667,-0.6312,-0.4870,0.2973,0.3199
3.7700,-1.1062,-1.3351,0.8498,9.1762,3.3929,-0.6750,-0.5176,0.3407,0.3111
3.7800,-1.0609,-1.3157,0.7406,9.1632,3.4178,-0.7239,-0.5136,0.2888,0.2906
3.7900,-1.0560,-1.2655,0.6339,9.1511,3.4406,-0.7679,-0.4785,0.2054,0.2677
3.8000,-1.0918,-1.2012,0.5363,9.1402,3.4614,-0.8032,-0.4256,0.1116,0.2585
3.8100,-1.1645,-1.1400,0.4523,9.1304,3.4815,-0.8282,-0.3780,0.0197,0.2711
3.8200,-1.2459,-1.0765,0.3883,9.1207,3.5031,-0.8432,-0.3520,-0.0505,0.2836
3.8300,-1.2962,-1.0192,0.3362,9.1112,3.5259,-0.8510,-0.3487,-0.1199,0.2677
3.8400,-1.3177,-0.9820,0.2790,9.1027,3.5474,-0.8524,-0.3593,-0.2191,0.2320
3.8500,-1.3209,-0.9581,0.2084,9.0964,3.5654,-0.8453,-0.3615,-0.3474,0.1819
3.8600,-1.2850,-0.9549,0.1131,9.0928,3.5789,-0.8266,-0.3395,-0.4439,0.1364
3.8700,-1.2119,-0.9729,0.0047,9.0915,3.5886,-0.7984,-0.3401,-0.4901,0.0942
3.8800,-1.1501,-0.9489,-0.0791,9.0919,3.5945,-0.7660,-0.3822,-0.5188,0.0524
3.8900,-1.1102,-0.8514,-0.1065,9.0939,3.5964,-0.7326,-0.4100,-0.5001,0.0432
3.9000,-1.0535,-0.7195,-0.0702,9.0960,3.5974,-0.7019,-0.3920,-0.4372,0.0597
3.9100,-0.9790,-0.6038,-0.0049,9.0968,3.6001,-0.6762,-0.3300,-0.3847,0.0783
3.9200,-0.9105,-0.5261,0.0354,9.0966,3.6050,-0.6531,-0.2372,-0.3532,0.0890
3.9300,-0.8377,-0.4848,0.0322,9.0956,3.6116,-0.6295,-0.1373,-0.3141,0.0890
3.9400,-0.7479,-0.4753,0.0098,9.0943,3.6188,-0.6059,-0.0673,-0.2711,0.0615
3.9500,-0.6551,-0.4697,-0.0040,9.0937,3.6240,-0.5837,-0.0441,-0.2607,-0.0066
3.9600,-0.5850,-0.4449,0.0038,9.0955,3.6232,-0.5616,-0.0493,-0.2702,-0.1342
3.9700,-0.5470,-0.3917,0.0396,9.1018,3.6107,-0.5388,-0.0539,-0.2359,-0.2757
3.9800,-0.5414,-0.3412,0.0572,9.1130,3.5853,-0.5193,-0.0521,-0.1516,-0.3844
3.9900,-0.5296,-0.2831,0.1518,9.1274,3.5500,-0.5073,-0.0612,-0.0579,-0.4754
4.0000,-0.4880,-0.2237,0.2924,9.1445,3.5062,-0.5042,-0.0838,0.0160,-0.5402
4.0100,-0.4373,-0.1989,0.3422,9.1633,3.4563,-0.5086,-0.1009,0.0658,-0.5631
4.0200,-0.3581,-0.1935,0.3337,9.1822,3.4041,-0.5181,-0.1006,0.1122,-0.5383
4.0300,-0.2380,-0.2046,0.2767,9.1998,3.3541,-0.5317,-0.0878,0.1474,-0.4720
4.0400,-0.1033,-0.2170,0.1947,9.2148,3.3103,-0.5479,-0.0643,0.1507,-0.3740
4.0500,0.0193,-0.2146,0.1074,9.2262,3.2756,-0.5635,-0.0334,0.1312,-0.2537
4.0600,0.1147,-0.1983,0.0255,9.2338,3.2521,-0.5762,-0.0014,0.1009,-0.1235
4.0700,0.1687,-0.1797,-0.0446,9.2372,3.2407,-0.5851,0.0258,0.0667,-0.0069
4.0800,0.1593,-0.1624,-0.0887,9.2371,3.2401,-0.5900,0.0484,0.0307,0.0704
4.0900,0.0850,-0.1546,-0.1129,9.2347,3.2467,-0.5910,0.0750,0.0203,0.0783
4.1000,-0.0225,-0.1657,-0.1388,9.2321,3.2542,-0.5903,0.1016,0.0457,0.0209
4.1100,-0.1234,-0.1871,-0.1822,9.2313,3.2564,-0.5911,0.1177,0.0680,-0.0673
4.1200,-0.1947,-0.2029,-0.2265,9.2332,3.2507,-0.5935,0.1336,0.0686,-0.1513
4.1300,-0.2436,-0.2098,-0.2531,9.2377,3.2373,-0.5956,0.1669,0.0637,-0.2030
4.1400,-0.2774,-0.2182,-0.2608,9.2439,3.2193,-0.5963,0.2115,0.0759,-0.2143
4.1500,-0.2898,-0.2354,-0.2447,9.2504,3.2006,-0.5969,0.2500,0.1126,-0.1865
4.1600,-0.2544,-0.2494,-0.2071,9.2557,3.1846,-0.5997,0.2760,0.1568,-0.1287
4.1700,-0.1678,-0.2497,-0.1662,9.2589,3.1742,-0.6060,0.2851,0.1804,-0.0649
4.1800,-0.0767,-0.2367,-0.1401,9.2599,3.1696,-0.6141,0.2787,0.1804,-0.0118
4.1900,0.0149,-0.2083,-0.1377,9.2593,3.1699,-0.6225,0.2735,0.1752,0.0356
4.2000,0.1296,-0.1841,-0.1595,9.2572,3.1744,-0.6306,0.2827,0.1492,0.0710
4.2100,0.2463,-0.1714,-0.1876,9.2542,3.1821,-0.6360,0.2851,0.0689,0.0680
4.2200,0.3085,-0.1570,-0.2051,9.2519,3.1893,-0.6341,0.2769,-0.0530,0.0380
4.2300,0.2735,-0.1222,-0.1866,9.2517,3.1931,-0.6163,0.2684,-0.1466,0.0089
4.2400,0.2306,-0.0953,-0.1635,9.2523,3.1941,-0.6018,0.2621,-0.1738,-0.0049
4.2500,0.1867,-0.0675,-0.1530,9.2540,3.1944,-0.5748,0.2421,-0.1923,-0.0307
4.2600,0.1256,-0.0373,-0.0967,9.2563,3.1917,-0.5509,0.2121,-0.1599,-0.0600
4.2700,0.0592,0.0004,-0.0055,9.2594,3.1863,-0.5308,0.1840,-0.0988,-0.0967
4.2800,0.0734,0.0126,0.0297,9.2631,3.1777,-0.5169,0.1629,-0.0099,-0.1281
4.2900,0.1362,0.0121,0.0351,9.2673,3.1662,-0.5116,0.1452,0.0802,-0.1513
4.3000,0.2275,-0.0043,0.0037,9.2718,3.1527,-0.5149,0.1251,0.1275,-0.1639
4.3100,0.3200,-0.0244,-0.0527,9.2763,3.1380,-0.5231,0.0945,0.1061,-0.1394
4.3200,0.3904,-0.0430,-0.1151,9.2801,3.1255,-0.5301,0.0689,0.0414,-0.0832
4.3300,0.4191,-0.0630,-0.1671,9.2825,3.1180,-0.5320,0.0619,-0.0218,-0.0163
4.3400,0.4088,-0.0879,-0.2055,9.2832,3.1166,-0.5283,0.0622,-0.0625,0.0545
4.3500,0.3718,-0.1205,-0.2296,9.2819,3.1216,-0.5209,0.0609,-0.0863,0.1202
4.3600,0.3043,-0.1566,-0.2414,9.2788,3.1326,-0.5116,0.0582,-0.1061,0.1764
4.3700,0.2145,-0.1927,-0.2390,9.2740,3.1484,-0.5008,0.0567,-0.1119,0.2213
4.3800,0.1165,-0.2219,-0.2214,9.2679,3.1680,-0.4897,0.0591,-0.1016,0.2497
4.3900,0.0121,-0.2414,-0.1965,9.2609,3.1898,-0.4798,0.0649,-0.0759,0.2549
4.4000,-0.0920,-0.2561,-0.1728,9.2537,3.2118,-0.4724,0.0741,-0.0307,0.2347
4.4100,-0.1871,-0.2664,-0.1583,9.2470,3.2316,-0.4690,0.0875,0.0255,0.1938
4.4200,-0.2521,-0.2810,-0.1545,9.2414,3.2474,-0.4704,0.0985,0.0875,0.1413
4.4300,-0.2658,-0.3076,-0.1562,9.2372,3.2584,-0.4771,0.1016,0.1122,0.1016
4.4400,-0.2495,-0.3367,-0.1702,9.2341,3.2660,-0.4858,0.0997,0.0802,0.0899
4.4500,-0.2230,-0.3599,-0.1969,9.2315,3.2725,-0.4915,0.0942,0.0505,0.0945
4.4600,-0.1880,-0.3752,-0.2105,9.2288,3.2794,-0.4946,0.0820,0.0496,0.0991
4.4700,-0.1542,-0.3800,-0.1999,9.2261,3.2866,-0.4980,0.0649,0.0689,0.0884
4.4800,-0.1182,-0.3717,-0.1725,9.2236,3.2926,-0.5038,0.0475,0.0985,0.0585
4.4900,-0.0782,-0.3546,-0.1360,9.2220,3.2959,-0.5128,0.0396,0.1196,0.0200
4.5000,-0.0418,-0.3398,-0.0975,9.2215,3.2955,-0.5238,0.0389,0.1162,-0.0185
4.5100,-0.0091,-0.3336,-0.0557,9.2223,3.2916,-0.5344,0.0362,0.0985,-0.0509
4.5200,0.0190,-0.3244,-0.0121,9.2242,3.2848,-0.5433,0.0286,0.0741,-0.0750
4.5300,0.0389,-0.3071,0.0256,9.2269,3.2759,-0.5500,0.0157,0.0423,-0.0976
4.5400,0.0520,-0.2914,0.0559,9.2306,3.2650,-0.5539,-0.0032,0.0136,-0.1138
4.5500,0.0633,-0.2886,0.0732,9.2348,3.2526,-0.5556,-0.0231,-0.0020,-0.1159
4.5600,0.0793,-0.2940,0.0740,9.2392,3.2400,-0.5564,-0.0399,-0.0078,-0.1049
4.5700,0.1005,-0.2932,0.0675,9.2432,3.2284,-0.5571,-0.0545,-0.0130,-0.0848
4.5800,0.1270,-0.2797,0.0692,9.2466,3.2186,-0.5577,-0.0646,-0.0145,-0.0579
4.5900,0.1640,-0.2544,0.0879,9.2492,3.2112,-0.5583,-0.0713,-0.0121,-0.0298
4.6000,0.2138,-0.2207,0.1188,9.2508,3.2063,-0.5593,-0.0756,-0.0078,-0.0011
4.6100,0.2693,-0.1789,0.1549,9.2515,3.2039,-0.5607,-0.0719,-0.0105,0.0237
4.6200,0.3256,-0.1345,0.1904,9.2515,3.2039,-0.5615,-0.0557,-0.0258,0.0432
4.6300,0.3573,-0.1053,0.2275,9.2509,3.2058,-0.5603,-0.0316,-0.0530,0.0649
4.6400,0.3501,-0.0927,0.2612,9.2497,3.2100,-0.5557,-0.0075,-0.0780,0.0942
4.6500,0.3066,-0.0865,0.2893,9.2478,3.2170,-0.5478,0.0157,-0.0967,0.1297
4.6600,0.2282,-0.0874,0.3171,9.2448,3.2274,-0.5374,0.0325,-0.1052,0.1538
4.6700,0.1350,-0.0917,0.3411,9.2410,3.2401,-0.5255,0.0429,-0.0970,0.1575
4.6800,0.0264,-0.0904,0.3558,9.2371,3.2531,-0.5138,0.0573,-0.0808,0.1397
4.6900,-0.0898,-0.0852,0.3569,9.2336,3.2647,-0.5030,0.0728,-0.0399,0.1046
4.7000,-0.1903,-0.0941,0.3444,9.2323,3.2700,-0.4916,0.0808,0.0252,0.0542
4.7100,-0.2573,-0.1044,0.3191,9.2334,3.2683,-0.4819,0.0732,0.0826,-0.0154
4.7200,-0.2922,-0.0953,0.2801,9.2360,3.2617,-0.4776,0.0646,0.1257,-0.0881
4.7300,-0.2999,-0.0836,0.2267,9.2401,3.2500,-0.4781,0.0683,0.1636,-0.1513
4.7400,-0.2753,-0.0857,0.1691,9.2454,3.2340,-0.4828,0.0756,0.1901,-0.1984
4.7500,-0.2262,-0.0956,0.1198,9.2514,3.2152,-0.4933,0.0790,0.1926,-0.2207
4.7600,-0.1737,-0.1018,0.0847,9.2576,3.1951,-0.5072,0.0747,0.1709,-0.2188
4.7700,-0.1296,-0.1059,0.0550,9.2638,3.1753,-0.5195,0.0683,0.1147,-0.1904
4.7800,-0.0944,-0.1066,0.0266,9.2693,3.1581,-0.5270,0.0643,0.0420,-0.1526
4.7900,-0.0727,-0.1073,0.0098,9.2739,3.1443,-0.5281,0.0606,-0.0072,-0.1184
4.8000,-0.0561,-0.1158,0.0031,9.2776,3.1337,-0.5251,0.0502,-0.0402,-0.0860
4.8100,-0.0470,-0.1272,-0.0013,9.2806,3.1260,-0.5194,0.0325,-0.0713,-0.0625
4.8200,-0.0458,-0.1312,-0.0043,9.2829,3.1203,-0.5116,0.0139,-0.0912,-0.0478
4.8300,-0.0417,-0.1280,0.0046,9.2849,3.1159,-0.5026,-0.0047,-0.0942,-0.0454
4.8400,-0.0329,-0.1237,0.0247,9.2868,3.1117,-0.4940,-0.0234,-0.0890,-0.0597
4.8500,-0.0088,-0.1204,0.0458,9.2891,3.1060,-0.4864,-0.0408,-0.0713,-0.0799
4.8600,0.0362,-0.1139,0.0680,9.2919,3.0983,-0.4810,-0.0603,-0.0502,-0.0973
4.8700,0.0916,-0.1010,0.0903,9.2952,3.0889,-0.4781,-0.0790,-0.0432,-0.1104
4.8800,0.1466,-0.0842,0.1185,9.2988,3.0782,-0.4765,-0.0924,-0.0429,-0.1147
4.8900,0.1788,-0.0683,0.1580,9.3026,3.0670,-0.4752,-0.1049,-0.0392,-0.1089
4.9000,0.1740,-0.0563,0.1969,9.3061,3.0563,-0.4746,-0.1159,-0.0231,-0.0921
4.9100,0.1399,-0.0411,0.2255,9.3091,3.0470,-0.4757,-0.1180,0.0075,-0.0622
4.9200,0.0901,-0.0226,0.2438,9.3110,3.0405,-0.4796,-0.1113,0.0313,-0.0328
4.9300,0.0473,-0.0069,0.2507,9.3120,3.0368,-0.4853,-0.1019,0.0417,-0.0099
4.9400,0.0267,-0.0005,0.2461,9.3122,3.0352,-0.4915,-0.0930,0.0472,0.0118
4.9500,0.0236,0.0026,0.2331,9.3117,3.0357,-0.4977,-0.0841,0.0405,0.0237
4.9600,0.0137,0.0129,0.2096,9.3109,3.0373,-0.5029,-0.0741,0.0200,0.0304
4.9700,-0.0072,0.0240,0.1838,9.3102,3.0394,-0.5034,-0.0619,0.0026,0.0350
4.9800,-0.0300,0.0336,0.1435,9.3090,3.0441,-0.4955,-0.0338,-0.0160,0.0148
4.9900,-0.0347,0.0313,0.1074,9.3089,3.0452,-0.4904,-0.0240,-0.0276,-0.0118
5.0000,-0.0366,0.0217,0.0682,9.3096,3.0441,-0.4848,-0.0160,-0.0325,-0.0460
5.0100,-0.0334,0.0042,0.0424,9.3112,3.0400,-0.4794,-0.0002,-0.0267,-0.0817
5.0200,-0.0216,-0.0173,0.0283,9.3138,3.0328,-0.4748,0.0194,-0.0255,-0.1022
5.0300,-0.0068,-0.0382,0.0202,9.3170,3.0237,-0.4703,0.0338,-0.0362,-0.1006
5.0400,0.0032,-0.0604,0.0196,9.3201,3.0148,-0.4649,0.0487,-0.0454,-0.0893
5.0500,0.0039,-0.0848,0.0240,9.3230,3.0069,-0.4585,0.0677,-0.0478,-0.0732
5.0600,-0.0021,-0.1119,0.0315,9.3254,3.0005,-0.4516,0.0863,-0.0405,-0.0530
5.0700,-0.0087,-0.1373,0.0428,9.3272,2.9959,-0.4450,0.0991,-0.0194,-0.0399
5.0800,-0.0148,-0.1554,0.0570,9.3285,2.9925,-0.4400,0.1058,0.0139,-0.0377
5.0900,-0.0231,-0.1641,0.0692,9.3297,2.9892,-0.4379,0.1071,0.0530,-0.0420
5.1000,-0.0435,-0.1662,0.0765,9.3309,2.9853,-0.4392,0.1040,0.0845,-0.0493
5.1100,-0.0747,-0.1698,0.0807,9.3322,2.9805,-0.4434,0.1000,0.1058,-0.0515
5.1200,-0.1000,-0.1694,0.0868,9.3336,2.9754,-0.4495,0.0951,0.1193,-0.0512
5.1300,-0.0966,-0.1569,0.0893,9.3349,2.9701,-0.4568,0.0796,0.1144,-0.0612
5.1400,-0.0659,-0.1301,0.0808,9.3366,2.9637,-0.4639,0.0564,0.0863,-0.0747
5.1500,-0.0262,-0.0961,0.0715,9.3388,2.9559,-0.4690,0.0353,0.0539,-0.0884
5.1600,0.0226,-0.0692,0.0647,9.3415,2.9470,-0.4717,0.0182,0.0368,-0.1009
5.1700,0.0757,-0.0471,0.0569,9.3445,2.9369,-0.4735,0.0069,0.0338,-0.1009
5.1800,0.1278,-0.0204,0.0503,9.3476,2.9270,-0.4753,-0.0023,0.0325,-0.0985
5.1900,0.1787,0.0096,0.0405,9.3505,2.9173,-0.4774,-0.0111,0.0279,-0.0942
5.2000,0.2203,0.0439,0.0245,9.3533,2.9081,-0.4794,-0.0191,0.0197,-0.0841
5.2100,0.2430,0.0736,0.0118,9.3557,2.9000,-0.4811,-0.0215,0.0111,-0.0725
5.2200,0.2420,0.0914,0.0069,9.3578,2.8930,-0.4821,-0.0160,0.0096,-0.0554
5.2300,0.2177,0.1014,0.0054,9.3594,2.8877,-0.4831,-0.0057,0.0127,-0.0316
5.2400,0.1798,0.1056,0.0040,9.3602,2.8848,-0.4841,0.0121,0.0240,-0.0066
5.2500,0.1318,0.1144,0.0020,9.3603,2.8843,-0.4857,0.0313,0.0313,0.0121
5.2600,0.0749,0.1285,0.0014,9.3598,2.8858,-0.4874,0.0451,0.0316,0.0203
5.2700,0.0206,0.1358,0.0028,9.3590,2.8881,-0.4888,0.0579,0.0353,0.0206
5.2800,-0.0228,0.1309,0.0030,9.3581,2.8906,-0.4902,0.0689,0.0362,0.0145
5.2900,-0.0628,0.1192,0.0017,9.3574,2.8928,-0.4914,0.0732,0.0386,-0.0011
5.3000,-0.0840,0.1039,-0.0006,9.3571,2.8936,-0.4926,0.0707,0.0518,-0.0249
5.3100,-0.0807,0.0883,-0.0065,9.3573,2.8925,-0.4951,0.0704,0.0591,-0.0496
5.3200,-0.0647,0.0700,-0.0188,9.3581,2.8892,-0.4983,0.0701,0.0512,-0.0716
5.3300,-0.0399,0.0417,-0.0367,9.3596,2.8840,-0.5008,0.0606,0.0414,-0.0826
5.3400,-0.0154,0.0145,-0.0539,9.3614,2.8777,-0.5028,0.0460,0.0353,-0.0793
5.3500,0.0068,-0.0057,-0.0663,9.3632,2.8716,-0.5047,0.0365,0.0356,-0.0625
5.3600,0.0306,-0.0272,-0.0675,9.3646,2.8667,-0.5071,0.0353,0.0493,-0.0258
5.3700,0.0554,-0.0494,-0.0590,9.3649,2.8650,-0.5108,0.0353,0.0576,0.0078
5.3800,0.0608,-0.0686,-0.0498,9.3643,2.8662,-0.5153,0.0392,0.0579,0.0234
5.3900,0.0426,-0.0890,-0.0478,9.3633,2.8686,-0.5196,0.0536,0.0741,0.0377
5.4000,0.0166,-0.1179,-0.0556,9.3618,2.8724,-0.5250,0.0701,0.0936,0.0585
5.4100,-0.0196,-0.1547,-0.0715,9.3597,2.8781,-0.5319,0.0783,0.0991,0.0826
5.4200,-0.0132,-0.1887,-0.1062,9.3569,2.8858,-0.5390,0.0722,0.0961,0.1452
5.4300,0.0594,-0.2183,-0.1588,9.3525,2.8986,-0.5463,0.0493,0.0228,0.2292
5.4400,0.1037,-0.2265,-0.1966,9.3465,2.9176,-0.5479,0.0286,-0.1248,0.2698
5.4500,0.0760,-0.2124,-0.1972,9.3407,2.9382,-0.5378,0.0371,-0.2161,0.2683
5.4600,0.0111,-0.1981,-0.1602,9.3349,2.9598,-0.5186,0.0637,-0.2054,0.2335
5.4700,-0.0720,-0.1682,-0.0836,9.3299,2.9790,-0.4998,0.0693,-0.1014,0.1178
5.4800,-0.1186,-0.1447,-0.0355,9.3278,2.9867,-0.4921,0.0624,-0.0242,0.0278
5.4900,-0.1710,-0.1072,0.0350,9.3267,2.9911,-0.4864,0.0499,0.0958,-0.1242
5.5000,-0.1733,-0.0867,0.0753,9.3302,2.9788,-0.4943,0.0399,0.1736,-0.2185
5.5100,-0.1419,-0.0792,0.1014,9.3359,2.9582,-0.5096,0.0316,0.2363,-0.2537
5.5200,-0.0740,-0.0698,0.1058,9.3422,2.9345,-0.5308,0.0224,0.2592,-0.2442
5.5300,-0.0031,-0.0434,0.0958,9.3480,2.9117,-0.5543,0.0154,0.2308,-0.2082
5.5400,0.0508,-0.0168,0.0833,9.3528,2.8923,-0.5753,0.0212,0.1840,-0.1581
5.5500,0.0916,0.0050,0.0782,9.3563,2.8776,-0.5917,0.0396,0.1330,-0.1046
5.5600,0.1198,0.0286,0.0831,9.3584,2.8684,-0.6027,0.0595,0.0744,-0.0465
5.5700,0.1302,0.0389,0.0870,9.3591,2.8653,-0.6066,0.0685,0.0438,-0.0155
5.5800,0.1422,0.0542,0.0867,9.3595,2.8631,-0.6099,0.0771,-0.0032,0.0350
5.5900,0.1335,0.0504,0.0792,9.3586,2.8669,-0.6071,0.0762,-0.0338,0.0716
5.6000,0.1174,0.0445,0.0724,9.3567,2.8740,-0.6016,0.0777,-0.0603,0.0845
5.6100,0.1015,0.0517,0.0668,9.3547,2.8824,-0.5935,0.0851,-0.0851,0.0756
5.6200,0.0804,0.0621,0.0694,9.3530,2.8899,-0.5830,0.0964,-0.1006,0.0591
5.6300,0.0636,0.0716,0.0835,9.3519,2.8960,-0.5707,0.1043,-0.0958,0.0374
5.6400,0.0629,0.0783,0.1013,9.3514,2.9001,-0.5586,0.1055,-0.0793,0.0157
5.6500,0.0773,0.0822,0.1184,9.3513,2.9021,-0.5481,0.1040,-0.0625,-0.0084
5.6600,0.1055,0.0801,0.1346,9.3519,2.9019,-0.5392,0.1040,-0.0411,-0.0221
5.6700,0.1453,0.0756,0.1444,9.3528,2.9004,-0.5322,0.1034,-0.0261,-0.0234
5.6800,0.1864,0.0688,0.1412,9.3536,2.8988,-0.5267,0.0988,-0.0273,-0.0139
5.6900,0.2206,0.0575,0.1309,9.3541,2.8981,-0.5211,0.0927,-0.0380,0.0072
5.7000,0.2278,0.0229,0.1221,9.3541,2.8993,-0.5147,0.0863,-0.0564,0.0402
5.7100,0.1879,-0.0101,0.1333,9.3533,2.9035,-0.5068,0.0820,-0.0670,0.0667
5.7200,0.0662,-0.0359,0.1257,9.3517,2.9101,-0.4980,0.0814,-0.0579,0.0866
5.7300,-0.0297,-0.0694,0.1177,9.3495,2.9185,-0.4900,0.0780,-0.0377,0.1092
5.7400,-0.1010,-0.0895,0.1105,9.3465,2.9290,-0.4840,0.0692,-0.0188,0.1257
5.7500,-0.2136,-0.0847,0.0622,9.3430,2.9409,-0.4800,0.0612,-0.0002,0.1345
5.7600,-0.2492,-0.0626,0.0183,9.3391,2.9536,-0.4780,0.0594,0.0237,0.1321
5.7700,-0.1889,-0.0511,0.0270,9.3351,2.9661,-0.4783,0.0637,0.0475,0.1275
5.7800,-0.1024,-0.0416,0.0940,9.3311,2.9781,-0.4807,0.0728,0.0667,0.1251
5.7900,0.0453,-0.0140,0.1218,9.3271,2.9900,-0.4846,0.0835,0.0796,0.1309
5.8000,0.2650,-0.0802,0.0882,9.3229,3.0023,-0.4892,0.0912,0.0753,0.1504
5.8100,0.3667,-0.2104,0.0550,9.3182,3.0164,-0.4932,0.0906,0.0539,0.1801
5.8200,0.3679,-0.1568,0.0464,9.3134,3.0310,-0.4941,0.0942,0.0457,0.2140
5.8300,0.2915,-0.0346,0.1006,9.3084,3.0465,-0.4932,0.1126,0.0713,0.2503
5.8400,0.0917,-0.0148,0.1708,9.3023,3.0650,-0.4940,0.1339,0.1199,0.2912
5.8500,-0.0264,-0.0335,0.2130,9.2947,3.0873,-0.4979,0.1541,0.1752,0.3297
5.8600,-0.0991,-0.0463,0.1735,9.2835,3.1189,-0.5079,0.1674,0.2079,0.3435
5.8700,-0.1663,-0.0460,0.1121,9.2765,3.1385,-0.5151,0.1707,0.2126,0.3404
5.8800,-0.1094,-0.0442,-0.0575,9.2639,3.1734,-0.5290,0.1645,0.2155,0.3114
5.8900,0.1251,-0.0187,-0.2701,9.2533,3.2018,-0.5427,0.1452,0.1932,0.2644
5.9000,0.1760,0.0016,-0.3198,9.2442,3.2258,-0.5553,0.1294,0.1413,0.2253
5.9100,0.0880,-0.0512,-0.1507,9.2366,3.2462,-0.5640,0.1193,0.0887,0.2078
5.9200,0.0170,-0.1262,0.0966,9.2297,3.2650,-0.5682,0.1092,0.0527,0.2314
5.9300,-0.1252,-0.1099,0.3180,9.2222,3.2858,-0.5694,0.0750,0.0444,0.2830
5.9400,-0.1592,-0.0058,0.3850,9.2131,3.3110,-0.5705,0.0334,0.0848,0.3166
5.9500,-0.0876,0.0416,0.3680,9.2027,3.3390,-0.5763,0.0203,0.1535,0.3218
5.9600,-0.0789,0.0741,0.3682,9.1915,3.3675,-0.5885,0.0292,0.2237,0.3196
5.9700,-0.2049,0.0612,0.2940,9.1798,3.3960,-0.6064,0.0472,0.2818,0.3120
5.9800,-0.3283,-0.0122,0.2362,9.1680,3.4239,-0.6288,0.0619,0.3141,0.3004
5.9900,-0.4541,-0.0835,0.2262,9.1561,3.4509,-0.6535,0.0744,0.3334,0.2842
6.0000,-0.5538,-0.1247,0.2258,9.1445,3.4766,-0.6795,0.0921,0.3624,0.2659
6.0100,-0.5161,-0.1202,0.2621,9.1331,3.5008,-0.7075,0.1202,0.3932,0.2573
6.0200,-0.3334,0.0189,0.1827,9.1217,3.5245,-0.7370,0.1584,0.3945,0.2702
6.0300,-0.1597,0.1816,0.0277,9.1095,3.5498,-0.7651,0.1984,0.3468,0.2937
6.0400,-0.1349,0.1046,-0.0742,9.0967,3.5777,-0.7877,0.2109,0.2582,0.2983
6.0500,0.0332,-0.0328,-0.1303,9.0842,3.6061,-0.8022,0.1862,0.1480,0.2753
6.0600,0.1734,0.0058,-0.2072,9.0733,3.6322,-0.8079,0.1730,0.0283,0.2552
6.0700,0.0750,0.1061,-0.2642,9.0640,3.6563,-0.8036,0.1895,-0.0695,0.2524
6.0800,0.4910,0.0005,-0.2754,9.0534,3.6850,-0.7916,0.1888,-0.1083,0.2364
6.0900,1.0055,-0.1183,-0.2913,9.0472,3.7016,-0.7845,0.1762,-0.1101,0.2197
6.1000,1.2300,-0.1794,-0.1740,9.0379,3.7276,-0.7693,0.1089,-0.2671,0.1642
6.1100,0.9404,-0.1269,-0.0605,9.0342,3.7421,-0.7415,0.0060,-0.4216,0.0893
6.1200,1.0036,-0.1743,0.0082,9.0344,3.7489,-0.7037,-0.0713,-0.3954,0.0365
6.1300,1.0651,-0.2163,0.0821,9.0364,3.7501,-0.6711,-0.1242,-0.3331,0.0255
6.1400,0.4191,-0.1264,0.2390,9.0383,3.7500,-0.6460,-0.1614,-0.2295,0.0597
6.1500,-0.4163,0.0204,0.4255,9.0381,3.7529,-0.6314,-0.1804,-0.0918,0.1345
6.1600,-0.5787,0.0919,0.3148,9.0341,3.7628,-0.6296,-0.1859,0.0408,0.2595
