seconds_elapsed,acc_z,acc_y,acc_x,grav_z,grav_y,grav_x,gyro_z,gyro_y,gyro_x
0.0900,0.3160,0.0803,-0.1376,0.2107,-7.4601,-6.3618,-0.1360,-0.0354,-0.1666
0.1000,0.3027,0.0579,-0.1439,0.2049,-7.4646,-6.3566,-0.1360,-0.0354,-0.1666
0.1100,0.2893,0.0355,-0.1503,0.1991,-7.4692,-6.3515,-0.1360,-0.0354,-0.1666
0.1200,0.2167,-0.0571,-0.1683,0.1903,-7.4770,-6.3426,-0.1242,-0.1814,-0.2631
0.1300,0.0998,-0.1213,-0.1809,0.1868,-7.4830,-6.3357,-0.0981,-0.4780,-0.4521
0.1400,-0.0132,-0.1638,-0.1682,0.1848,-7.4892,-6.3284,-0.0924,-0.4847,-0.4376
0.1500,-0.1302,-0.1594,-0.1425,0.1837,-7.4952,-6.3213,-0.0910,-0.4731,-0.4195
0.1600,-0.2281,-0.1653,-0.1098,0.1826,-7.5013,-6.3141,-0.0914,-0.4511,-0.4010
0.1700,-0.2905,-0.1511,-0.0501,0.1811,-7.5074,-6.3068,-0.0908,-0.4226,-0.3820
0.1800,-0.3407,-0.1490,0.0216,0.1787,-7.5136,-6.2995,-0.0881,-0.3915,-0.3696
0.1900,-0.3674,-0.1765,0.0665,0.1751,-7.5195,-6.2925,-0.0837,-0.3544,-0.3550
0.2000,-0.3701,-0.1684,0.1349,0.1698,-7.5252,-6.2859,-0.0776,-0.3111,-0.3366
0.2100,-0.3738,-0.1808,0.1887,0.1631,-7.5304,-6.2798,-0.0676,-0.2646,-0.3112
0.2200,-0.3644,-0.2178,0.2074,0.1553,-7.5350,-6.2746,-0.0543,-0.2182,-0.2776
0.2300,-0.3625,-0.2779,0.2079,0.1470,-7.5387,-6.2703,-0.0389,-0.1647,-0.2322
0.2400,-0.3556,-0.3349,0.2031,0.1385,-7.5415,-6.2671,-0.0236,-0.1087,-0.1809
0.2500,-0.3585,-0.3679,0.2046,0.1303,-7.5437,-6.2647,-0.0148,-0.0690,-0.1365
0.2600,-0.3749,-0.3891,0.2001,0.1227,-7.5456,-6.2625,-0.0083,-0.0347,-0.0935
0.2700,-0.3943,-0.3993,0.2004,0.1158,-7.5474,-6.2605,-0.0040,-0.0046,-0.0546
0.2800,-0.4128,-0.3904,0.1833,0.1095,-7.5491,-6.2585,0.0006,0.0204,-0.0222
0.2900,-0.3867,-0.4000,0.1648,0.1041,-7.5507,-6.2567,0.0027,0.0437,0.0097
0.3000,-0.3181,-0.3729,0.1638,0.0994,-7.5523,-6.2549,0.0029,0.0608,0.0327
0.3100,-0.2208,-0.3194,0.1531,0.0955,-7.5538,-6.2531,0.0041,0.0768,0.0592
0.3200,-0.1534,-0.2621,0.1059,0.0928,-7.5553,-6.2513,0.0059,0.0874,0.0867
0.3300,-0.1247,-0.2049,0.0493,0.0920,-7.5566,-6.2498,0.0045,0.0929,0.1242
0.3400,-0.1099,-0.1747,0.0077,0.0932,-7.5576,-6.2485,-0.0016,0.0960,0.1532
0.3500,-0.0834,-0.1410,-0.0216,0.0966,-7.5591,-6.2467,-0.0080,0.0938,0.1681
0.3600,-0.0382,-0.1120,-0.0259,0.1017,-7.5606,-6.2448,-0.0108,0.0908,0.1715
0.3700,0.0289,-0.1106,-0.0085,0.1076,-7.5619,-6.2430,-0.0117,0.0893,0.1700
0.3800,0.1161,-0.1225,0.0030,0.1138,-7.5632,-6.2414,-0.0117,0.0847,0.1681
0.3900,0.1967,-0.1765,-0.0044,0.1205,-7.5642,-6.2400,-0.0120,0.0725,0.1651
0.4000,0.2239,-0.2701,-0.0368,0.1281,-7.5652,-6.2387,-0.0166,0.0483,0.1568
0.4100,0.1900,-0.3611,-0.0887,0.1368,-7.5664,-6.2371,-0.0245,0.0169,0.1434
0.4200,0.1348,-0.4121,-0.0910,0.1465,-7.5680,-6.2348,-0.0343,-0.0137,0.1211
0.4300,0.0889,-0.3991,-0.0305,0.1565,-7.5703,-6.2318,-0.0493,-0.0399,0.0872
0.4400,0.0570,-0.3024,0.0634,0.1656,-7.5737,-6.2276,-0.0694,-0.0601,0.0487
0.4500,0.0280,-0.1098,0.1724,0.1731,-7.5783,-6.2217,-0.0890,-0.0830,0.0081
0.4600,-0.0136,0.1344,0.2584,0.1788,-7.5842,-6.2143,-0.0984,-0.1261,-0.0420
0.4700,-0.0745,0.3576,0.2814,0.1835,-7.5908,-6.2062,-0.0914,-0.1694,-0.0860
0.4800,-0.1347,0.5324,0.2536,0.1874,-7.5968,-6.1987,-0.0722,-0.1856,-0.1058
0.4900,-0.1633,0.6940,0.2165,0.1908,-7.6015,-6.1928,-0.0468,-0.1817,-0.1116
0.5000,-0.1719,0.8300,0.2078,0.1935,-7.6046,-6.1888,-0.0187,-0.1636,-0.1031
0.5100,-0.1968,0.9091,0.1990,0.1956,-7.6059,-6.1872,0.0106,-0.1374,-0.0790
0.5200,-0.2290,0.9132,0.1543,0.1979,-7.6053,-6.1880,0.0439,-0.1126,-0.0530
0.5300,-0.2675,0.8516,0.1099,0.2005,-7.6024,-6.1914,0.0803,-0.0903,-0.0310
0.5400,-0.3254,0.7398,0.0624,0.2033,-7.5971,-6.1979,0.1132,-0.0647,-0.0154
0.5500,-0.3636,0.5958,0.0056,0.2056,-7.5896,-6.2069,0.1380,-0.0357,-0.0075
0.5600,-0.3640,0.4503,-0.0261,0.2047,-7.5793,-6.2195,0.1539,-0.0024,-0.0035
0.5700,-0.3185,0.3037,-0.0238,0.2000,-7.5668,-6.2349,0.1639,0.0349,-0.0020
0.5800,-0.1782,0.2379,0.0030,0.1926,-7.5537,-6.2509,0.1734,0.0746,0.0072
0.5900,-0.0127,0.3037,0.1185,0.1839,-7.5405,-6.2671,0.1936,0.0832,0.0276
0.6000,0.0774,0.2576,0.2574,0.1776,-7.5267,-6.2839,0.2241,0.0505,0.0597
0.6100,0.0790,0.1360,0.3879,0.1772,-7.5117,-6.3019,0.2449,0.0193,0.1052
0.6200,0.0251,0.1154,0.5334,0.1832,-7.4958,-6.3205,0.2516,0.0056,0.1529
0.6300,-0.0505,0.0729,0.6503,0.1942,-7.4797,-6.3393,0.2501,-0.0033,0.1917
0.6400,-0.1067,-0.0041,0.7322,0.2084,-7.4637,-6.3576,0.2394,-0.0182,0.2167
0.6500,-0.1391,-0.0791,0.7684,0.2253,-7.4486,-6.3748,0.2192,-0.0418,0.2243
0.6600,-0.2081,-0.1489,0.7632,0.2440,-7.4350,-6.3899,0.1933,-0.0723,0.2207
0.6700,-0.3553,-0.2492,0.7125,0.2643,-7.4234,-6.4026,0.1667,-0.1035,0.2088
0.6800,-0.5499,-0.3630,0.5804,0.2853,-7.4136,-6.4130,0.1389,-0.1245,0.1825
0.6900,-0.6740,-0.4712,0.3548,0.3052,-7.4060,-6.4209,0.1120,-0.1294,0.1245
0.7000,-0.7323,-0.6226,0.1760,0.3205,-7.4007,-6.4263,0.0934,-0.1352,0.0521
0.7100,-0.7489,-0.7722,0.0312,0.3299,-7.3971,-6.4300,0.0748,-0.1435,-0.0057
0.7200,-0.7093,-0.9033,-0.1610,0.3346,-7.3953,-6.4318,0.0509,-0.1334,-0.0512
0.7300,-0.6003,-1.0192,-0.3551,0.3345,-7.3955,-6.4315,0.0280,-0.0974,-0.0735
0.7400,-0.3880,-1.0561,-0.5433,0.3306,-7.3970,-6.4301,0.0100,-0.0375,-0.0560
0.7500,-0.1634,-1.0099,-0.6781,0.3250,-7.3988,-6.4282,0.0011,0.0303,0.0035
0.7600,-0.0369,-0.8934,-0.7324,0.3206,-7.4004,-6.4266,-0.0031,0.0835,0.0890
0.7700,-0.1008,-0.6685,-0.6462,0.3198,-7.4015,-6.4254,-0.0092,0.1064,0.1706
0.7800,-0.2797,-0.3527,-0.4763,0.3240,-7.4024,-6.4241,-0.0257,0.0969,0.2118
0.7900,-0.3761,-0.0793,-0.3828,0.3319,-7.4040,-6.4218,-0.0471,0.0624,0.1941
0.8000,-0.3703,0.0229,-0.4500,0.3403,-7.4069,-6.4181,-0.0563,0.0242,0.1336
0.8100,-0.2855,-0.0898,-0.6626,0.3465,-7.4103,-6.4138,-0.0535,0.0325,0.0951
0.8200,-0.1315,-0.3645,-0.9224,0.3494,-7.4134,-6.4101,-0.0514,0.0893,0.1074
0.8300,0.0176,-0.6444,-1.1601,0.3499,-7.4160,-6.4071,-0.0560,0.1464,0.1443
0.8400,0.1371,-0.8032,-1.3010,0.3501,-7.4187,-6.4039,-0.0648,0.1739,0.1883
0.8500,0.2222,-0.7809,-1.2952,0.3524,-7.4219,-6.4001,-0.0783,0.1598,0.2173
0.8600,0.3052,-0.5507,-1.1002,0.3580,-7.4259,-6.3952,-0.0960,0.1116,0.2182
0.8700,0.3968,-0.2212,-0.8121,0.3669,-7.4309,-6.3888,-0.1128,0.0450,0.1886
0.8800,0.4672,0.0781,-0.5565,0.3780,-7.4370,-6.3810,-0.1259,-0.0277,0.1330
0.8900,0.5237,0.2933,-0.3473,0.3897,-7.4439,-6.3724,-0.1339,-0.0992,0.0609
0.9000,0.5304,0.4118,-0.2463,0.4009,-7.4511,-6.3632,-0.1345,-0.1563,-0.0127
0.9100,0.4787,0.4082,-0.2684,0.4107,-7.4582,-6.3542,-0.1277,-0.1881,-0.0780
0.9200,0.4139,0.3214,-0.3281,0.4181,-7.4648,-6.3460,-0.1186,-0.2033,-0.1403
0.9300,0.3560,0.2603,-0.3821,0.4221,-7.4707,-6.3388,-0.1152,-0.2180,-0.1801
0.9400,0.2425,0.2217,-0.3961,0.4243,-7.4764,-6.3319,-0.1180,-0.2385,-0.1895
0.9500,0.1331,0.1509,-0.3672,0.4272,-7.4822,-6.3249,-0.1210,-0.2580,-0.1904
0.9600,0.0694,0.0574,-0.3230,0.4310,-7.4881,-6.3176,-0.1238,-0.2586,-0.1791
0.9700,0.0134,-0.0359,-0.2694,0.4355,-7.4942,-6.3101,-0.1271,-0.2336,-0.1547
0.9800,-0.0042,-0.1133,-0.1947,0.4400,-7.5005,-6.3023,-0.1287,-0.1911,-0.1272
0.9900,0.0281,-0.1439,-0.0998,0.4436,-7.5071,-6.2942,-0.1271,-0.1456,-0.0991
1.0000,0.0842,-0.1432,-0.0194,0.4462,-7.5137,-6.2861,-0.1259,-0.1096,-0.0710
1.0100,0.0927,-0.1112,0.0297,0.4484,-7.5207,-6.2776,-0.1277,-0.0870,-0.0472
1.0200,0.0829,-0.0955,0.0591,0.4510,-7.5279,-6.2687,-0.1323,-0.0741,-0.0341
1.0300,0.0959,-0.1009,0.0280,0.4536,-7.5357,-6.2592,-0.1375,-0.0610,-0.0304
1.0400,0.1227,-0.0879,-0.0539,0.4555,-7.5439,-6.2491,-0.1409,-0.0546,-0.0325
1.0500,0.1452,-0.0566,-0.1193,0.4569,-7.5524,-6.2388,-0.1442,-0.0619,-0.0365
1.0600,0.1377,0.0035,-0.1671,0.4585,-7.5611,-6.2281,-0.1445,-0.0766,-0.0411
1.0700,0.1043,0.0780,-0.1766,0.4607,-7.5698,-6.2174,-0.1375,-0.0940,-0.0496
1.0800,0.0466,0.1281,-0.1652,0.4633,-7.5779,-6.2073,-0.1247,-0.1016,-0.0597
1.0900,-0.0239,0.1018,-0.1766,0.4656,-7.5852,-6.1982,-0.1097,-0.0931,-0.0680
1.1000,-0.0608,0.0351,-0.1761,0.4667,-7.5915,-6.1904,-0.1000,-0.0754,-0.0713
1.1100,-0.0687,-0.0489,-0.1604,0.4662,-7.5973,-6.1833,-0.0993,-0.0607,-0.0704
1.1200,-0.0901,-0.1473,-0.1363,0.4647,-7.6031,-6.1764,-0.1039,-0.0540,-0.0658
1.1300,-0.1220,-0.2165,-0.0958,0.4631,-7.6092,-6.1689,-0.1131,-0.0549,-0.0631
1.1400,-0.1480,-0.2396,-0.0419,0.4617,-7.6161,-6.1605,-0.1256,-0.0619,-0.0655
1.1500,-0.1683,-0.2366,0.0215,0.4604,-7.6239,-6.1510,-0.1360,-0.0665,-0.0728
1.1600,-0.1711,-0.2271,0.0976,0.4584,-7.6322,-6.1408,-0.1400,-0.0650,-0.0799
1.1700,-0.1454,-0.1994,0.1733,0.4554,-7.6407,-6.1304,-0.1381,-0.0616,-0.0786
1.1800,-0.1123,-0.1847,0.2106,0.4523,-7.6494,-6.1198,-0.1348,-0.0641,-0.0704
1.1900,-0.1230,-0.1736,0.2262,0.4498,-7.6581,-6.1090,-0.1329,-0.0708,-0.0567
1.2000,-0.1733,-0.1588,0.2128,0.4486,-7.6670,-6.0981,-0.1326,-0.0702,-0.0423
1.2100,-0.2085,-0.1510,0.1644,0.4479,-7.6760,-6.0868,-0.1326,-0.0573,-0.0319
1.2200,-0.1989,-0.1047,0.1110,0.4467,-7.6852,-6.0753,-0.1320,-0.0393,-0.0240
1.2300,-0.1682,-0.0369,0.0625,0.4447,-7.6943,-6.0638,-0.1299,-0.0259,-0.0160
1.2400,-0.1503,0.0269,0.0228,0.4424,-7.7030,-6.0529,-0.1259,-0.0189,-0.0072
1.2500,-0.1222,0.0818,0.0149,0.4406,-7.7112,-6.0426,-0.1186,-0.0118,0.0038
1.2600,-0.0850,0.1107,0.0283,0.4394,-7.7186,-6.0333,-0.1067,0.0053,0.0170
1.2700,-0.0506,0.0787,0.0394,0.4385,-7.7249,-6.0252,-0.0938,0.0239,0.0246
1.2800,-0.0065,0.0028,0.0301,0.4374,-7.7304,-6.0183,-0.0853,0.0309,0.0228
1.2900,0.0354,-0.0641,-0.0013,0.4363,-7.7353,-6.0121,-0.0804,0.0251,0.0127
1.3000,0.0402,-0.1432,-0.0276,0.4351,-7.7400,-6.0061,-0.0798,0.0074,-0.0032
1.3100,0.0053,-0.2246,-0.0528,0.4341,-7.7448,-6.0000,-0.0847,-0.0167,-0.0228
1.3200,-0.0368,-0.2817,-0.0570,0.4330,-7.7499,-5.9934,-0.0938,-0.0412,-0.0420
1.3300,-0.0621,-0.3034,-0.0406,0.4320,-7.7558,-5.9859,-0.1058,-0.0589,-0.0560
1.3400,-0.0765,-0.2824,-0.0216,0.4308,-7.7625,-5.9774,-0.1171,-0.0662,-0.0634
1.3500,-0.1014,-0.2474,0.0191,0.4294,-7.7699,-5.9678,-0.1238,-0.0686,-0.0637
1.3600,-0.1275,-0.2287,0.0652,0.4279,-7.7778,-5.9576,-0.1262,-0.0711,-0.0612
1.3700,-0.1345,-0.2050,0.0965,0.4266,-7.7860,-5.9470,-0.1271,-0.0668,-0.0530
1.3800,-0.1284,-0.1955,0.1072,0.4253,-7.7943,-5.9362,-0.1284,-0.0515,-0.0353
1.3900,-0.1381,-0.2014,0.1009,0.4242,-7.8028,-5.9251,-0.1290,-0.0378,-0.0206
1.4000,-0.1382,-0.1928,0.0885,0.4231,-7.8113,-5.9139,-0.1281,-0.0320,-0.0154
1.4100,-0.1059,-0.1579,0.0748,0.4220,-7.8199,-5.9026,-0.1259,-0.0268,-0.0124
1.4200,-0.0712,-0.1136,0.0698,0.4207,-7.8283,-5.8916,-0.1222,-0.0204,-0.0087
1.4300,-0.0246,-0.1103,0.0807,0.4196,-7.8363,-5.8810,-0.1189,-0.0155,-0.0069
1.4400,0.0278,-0.1087,0.0945,0.4187,-7.8440,-5.8708,-0.1168,-0.0140,-0.0093
1.4500,0.0825,-0.0964,0.1181,0.4179,-7.8514,-5.8609,-0.1174,-0.0176,-0.0121
1.4600,0.1104,-0.0914,0.1478,0.4176,-7.8588,-5.8511,-0.1192,-0.0231,-0.0105
1.4700,0.0980,-0.0924,0.1688,0.4179,-7.8663,-5.8410,-0.1195,-0.0277,-0.0069
1.4800,0.0682,-0.1076,0.1982,0.4190,-7.8738,-5.8308,-0.1195,-0.0338,-0.0029
1.4900,0.0089,-0.1024,0.1985,0.4208,-7.8814,-5.8204,-0.1226,-0.0451,-0.0014
1.5000,-0.0571,-0.0730,0.1805,0.4234,-7.8892,-5.8096,-0.1265,-0.0549,-0.0002
1.5100,-0.1129,-0.0422,0.1729,0.4265,-7.8973,-5.7984,-0.1277,-0.0561,0.0023
1.5200,-0.1495,0.0102,0.1700,0.4296,-7.9054,-5.7871,-0.1274,-0.0525,0.0020
1.5300,-0.1593,0.0829,0.1624,0.4322,-7.9134,-5.7759,-0.1241,-0.0427,0.0026
1.5400,-0.1624,0.1624,0.1385,0.4341,-7.9211,-5.7652,-0.1168,-0.0262,0.0066
1.5500,-0.1862,0.2078,0.0844,0.4352,-7.9282,-5.7554,-0.1055,-0.0051,0.0133
1.5600,-0.2104,0.1948,0.0136,0.4354,-7.9344,-5.7468,-0.0914,0.0196,0.0191
1.5700,-0.1674,0.1438,-0.0366,0.4343,-7.9396,-5.7397,-0.0777,0.0517,0.0234
1.5800,-0.0701,0.0881,-0.0757,0.4316,-7.9438,-5.7342,-0.0660,0.0865,0.0334
1.5900,0.0103,0.0399,-0.1087,0.4278,-7.9471,-5.7299,-0.0569,0.1079,0.0496
1.6000,0.0507,0.0090,-0.1145,0.4245,-7.9497,-5.7265,-0.0511,0.1027,0.0661
1.6100,0.0569,0.0244,-0.0935,0.4232,-7.9519,-5.7235,-0.0486,0.0804,0.0732
1.6200,0.0370,0.0527,-0.0544,0.4239,-7.9539,-5.7207,-0.0499,0.0514,0.0646
1.6300,0.0232,0.0356,-0.0203,0.4257,-7.9559,-5.7177,-0.0529,0.0233,0.0457
1.6400,0.0307,-0.0219,0.0169,0.4278,-7.9583,-5.7142,-0.0538,0.0108,0.0286
1.6500,0.0352,-0.0755,0.0467,0.4293,-7.9609,-5.7105,-0.0532,0.0102,0.0188
1.6600,0.0583,-0.1218,0.0308,0.4301,-7.9637,-5.7065,-0.0544,0.0095,0.0118
1.6700,0.0855,-0.1583,-0.0021,0.4305,-7.9667,-5.7023,-0.0566,0.0047,0.0087
1.6800,0.0467,-0.1851,-0.0162,0.4310,-7.9698,-5.6979,-0.0593,-0.0042,0.0084
1.6900,-0.0404,-0.1770,-0.0317,0.4319,-7.9732,-5.6932,-0.0633,-0.0164,-0.0002
1.7000,-0.0988,-0.1554,-0.0536,0.4328,-7.9768,-5.6880,-0.0667,-0.0244,-0.0142
1.7100,-0.1493,-0.1480,-0.0674,0.4330,-7.9806,-5.6826,-0.0703,-0.0247,-0.0237
1.7200,-0.1953,-0.1199,-0.0791,0.4324,-7.9847,-5.6769,-0.0703,-0.0179,-0.0286
1.7300,-0.1912,-0.0787,-0.0763,0.4306,-7.9888,-5.6713,-0.0633,-0.0060,-0.0283
1.7400,-0.1476,-0.0428,-0.0238,0.4278,-7.9925,-5.6663,-0.0535,0.0065,-0.0188
1.7500,-0.0968,-0.0349,0.0512,0.4248,-7.9955,-5.6623,-0.0462,0.0150,-0.0032
1.7600,-0.0815,-0.0467,0.1099,0.4227,-7.9981,-5.6588,-0.0444,0.0163,0.0115
1.7700,-0.0745,-0.0597,0.1698,0.4217,-8.0007,-5.6552,-0.0465,0.0138,0.0209
1.7800,-0.0756,-0.0641,0.2126,0.4216,-8.0034,-5.6513,-0.0508,0.0083,0.0243
1.7900,-0.1084,-0.0801,0.2188,0.4220,-8.0066,-5.6468,-0.0575,-0.0002,0.0228
1.8000,-0.1365,-0.1289,0.2121,0.4226,-8.0105,-5.6413,-0.0657,-0.0076,0.0127
1.8100,-0.0717,-0.0668,0.2187,0.4224,-8.0151,-5.6347,-0.0734,-0.0063,0.0005
1.8200,-0.0370,-0.0616,0.1934,0.4212,-8.0203,-5.6273,-0.0703,-0.0097,-0.0041
1.8300,-0.1232,-0.2013,0.1275,0.4201,-8.0254,-5.6201,-0.0606,-0.0137,0.0032
1.8400,-0.2124,-0.2313,0.0705,0.4195,-8.0302,-5.6134,-0.0596,0.0077,0.0148
1.8500,-0.2420,-0.1702,0.0409,0.4179,-8.0351,-5.6065,-0.0612,0.0468,0.0215
1.8600,-0.1771,-0.0994,0.0269,0.4142,-8.0400,-5.5997,-0.0560,0.0819,0.0258
1.8700,-0.0700,-0.0662,0.0173,0.4088,-8.0444,-5.5937,-0.0474,0.0990,0.0334
1.8800,0.0057,-0.0578,0.0018,0.4037,-8.0480,-5.5889,-0.0398,0.1018,0.0481
1.8900,0.0269,-0.0623,-0.0307,0.4004,-8.0508,-5.5852,-0.0358,0.1024,0.0652
1.9000,0.0187,-0.0960,-0.0817,0.3990,-8.0530,-5.5821,-0.0337,0.1064,0.0744
1.9100,0.0181,-0.1372,-0.1454,0.3985,-8.0549,-5.5795,-0.0303,0.1137,0.0722
1.9200,0.0405,-0.1560,-0.2074,0.3976,-8.0564,-5.5773,-0.0279,0.1213,0.0646
1.9300,0.0757,-0.1523,-0.2571,0.3959,-8.0578,-5.5755,-0.0285,0.1210,0.0530
1.9400,0.1250,-0.1330,-0.2864,0.3934,-8.0591,-5.5737,-0.0318,0.1061,0.0392
1.9500,0.1851,-0.0860,-0.2860,0.3907,-8.0606,-5.5718,-0.0352,0.0676,0.0258
1.9600,0.2354,-0.0319,-0.2544,0.3895,-8.0620,-5.5698,-0.0364,0.0166,0.0139
1.9700,0.2462,-0.0116,-0.1916,0.3907,-8.0632,-5.5680,-0.0370,-0.0247,0.0075
1.9800,0.2077,-0.0083,-0.1141,0.3944,-8.0641,-5.5664,-0.0383,-0.0522,0.0020
1.9900,0.1343,-0.0062,-0.0511,0.3996,-8.0650,-5.5648,-0.0397,-0.0667,-0.0076
2.0000,0.0518,-0.0399,0.0043,0.4055,-8.0663,-5.5624,-0.0413,-0.0781,-0.0255
2.0100,0.0056,-0.0753,0.0305,0.4086,-8.0677,-5.5602,-0.0404,-0.0790,-0.0405
2.0200,-0.0289,-0.0962,0.0503,0.4108,-8.0696,-5.5573,-0.0401,-0.0763,-0.0542
2.0300,-0.0234,-0.0736,0.0615,0.4112,-8.0718,-5.5540,-0.0410,-0.0763,-0.0631
2.0400,-0.0037,-0.0520,0.0747,0.4107,-8.0742,-5.5505,-0.0401,-0.0809,-0.0643
2.0500,0.0028,-0.0603,0.1011,0.4102,-8.0767,-5.5470,-0.0367,-0.0854,-0.0557
2.0600,0.0048,-0.0700,0.1241,0.4106,-8.0789,-5.5437,-0.0312,-0.0781,-0.0331
2.0700,-0.0149,-0.0884,0.1475,0.4124,-8.0809,-5.5407,-0.0257,-0.0577,-0.0069
2.0800,-0.0584,-0.1203,0.1628,0.4151,-8.0825,-5.5381,-0.0221,-0.0372,0.0078
2.0900,-0.0826,-0.1391,0.1747,0.4178,-8.0841,-5.5357,-0.0202,-0.0213,0.0105
2.1000,-0.0606,-0.1374,0.2068,0.4197,-8.0858,-5.5330,-0.0196,-0.0088,0.0063
2.1100,-0.0145,-0.1043,0.2326,0.4204,-8.0878,-5.5300,-0.0193,0.0010,0.0032
2.1200,0.0041,-0.0642,0.2249,0.4203,-8.0901,-5.5266,-0.0187,0.0047,0.0035
2.1300,0.0007,-0.0414,0.1962,0.4201,-8.0926,-5.5230,-0.0172,-0.0024,0.0026
2.1400,-0.0108,-0.0144,0.1346,0.4202,-8.0950,-5.5194,-0.0138,-0.0182,-0.0026
2.1500,-0.0426,-0.0159,0.0500,0.4208,-8.0971,-5.5163,-0.0089,-0.0335,-0.0087
2.1600,-0.0686,-0.0502,-0.0314,0.4218,-8.0987,-5.5139,-0.0056,-0.0378,-0.0099
2.1700,-0.0839,-0.0719,-0.1085,0.4227,-8.0998,-5.5122,-0.0010,-0.0237,-0.0032
2.1800,-0.1002,-0.0594,-0.1596,0.4234,-8.1004,-5.5113,0.0045,-0.0033,0.0038
2.1900,-0.0991,-0.0175,-0.1884,0.4235,-8.1004,-5.5113,0.0085,0.0099,0.0032
2.2000,-0.0552,0.0456,-0.1817,0.4227,-8.1000,-5.5120,0.0128,0.0157,-0.0017
2.2100,0.0228,0.1011,-0.1446,0.4213,-8.0992,-5.5132,0.0170,0.0120,-0.0060
2.2200,0.0781,0.1300,-0.0975,0.4199,-8.0982,-5.5148,0.0207,-0.0005,-0.0063
2.2300,0.0584,0.0868,-0.0344,0.4193,-8.0969,-5.5168,0.0207,-0.0216,-0.0075
2.2400,0.0196,-0.0367,0.0237,0.4198,-8.0955,-5.5187,0.0170,-0.0427,-0.0182
2.2500,0.0223,-0.1765,0.0718,0.4206,-8.0945,-5.5201,0.0110,-0.0514,-0.0304
2.2600,0.0309,-0.2906,0.0959,0.4208,-8.0942,-5.5206,-0.0044,-0.0488,-0.0389
2.2700,0.0452,-0.2482,0.1075,0.4204,-8.0947,-5.5199,-0.0163,-0.0518,-0.0396
2.2800,-0.0228,-0.3019,0.0936,0.4202,-8.0960,-5.5180,-0.0178,-0.0818,-0.0353
2.2900,-0.1058,-0.4187,0.0657,0.4218,-8.0978,-5.5152,-0.0254,-0.1172,-0.0319
2.3000,-0.1630,-0.3729,0.0747,0.4252,-8.1005,-5.5110,-0.0416,-0.1245,-0.0322
2.3100,-0.2283,-0.2383,0.1295,0.4282,-8.1046,-5.5047,-0.0444,-0.1111,-0.0316
2.3200,-0.2392,-0.0685,0.1859,0.4296,-8.1092,-5.4978,-0.0346,-0.0922,-0.0279
2.3300,-0.2451,0.0711,0.1988,0.4294,-8.1135,-5.4915,-0.0187,-0.0717,-0.0194
2.3400,-0.2655,0.1330,0.1809,0.4283,-8.1168,-5.4868,-0.0031,-0.0473,-0.0072
2.3500,-0.2709,0.1243,0.1360,0.4265,-8.1189,-5.4838,0.0057,-0.0244,0.0044
2.3600,-0.2550,0.0627,0.0787,0.4234,-8.1203,-5.4819,0.0137,0.0074,0.0224
2.3700,-0.2233,0.0281,0.0366,0.4208,-8.1208,-5.4813,0.0210,0.0315,0.0386
2.3800,-0.1496,0.0042,0.0117,0.4177,-8.1208,-5.4816,0.0292,0.0480,0.0515
2.3900,-0.0584,0.0047,0.0130,0.4152,-8.1201,-5.4828,0.0369,0.0535,0.0612
2.4000,0.0194,0.0368,0.0211,0.4139,-8.1187,-5.4850,0.0445,0.0444,0.0707
2.4100,0.0435,0.0814,0.0122,0.4150,-8.1166,-5.4880,0.0592,0.0089,0.0753
2.4200,0.0094,0.0962,0.0093,0.4192,-8.1135,-5.4923,0.0790,-0.0366,0.0710
2.4300,-0.0236,0.0727,0.0654,0.4258,-8.1092,-5.4982,0.0958,-0.0659,0.0606
2.4400,-0.0155,0.0568,0.1803,0.4333,-8.1040,-5.5053,0.1080,-0.0781,0.0536
2.4500,0.0706,0.1724,0.4461,0.4425,-8.0975,-5.5141,0.1120,-0.0720,0.0712
2.4600,0.1426,0.2932,0.6388,0.4480,-8.0938,-5.5191,0.1114,-0.0641,0.0897
2.4700,0.1441,0.4632,0.8611,0.4632,-8.0867,-5.5282,0.1175,-0.0543,0.1494
2.4800,0.0737,0.5125,0.8908,0.4730,-8.0833,-5.5324,0.1242,-0.0525,0.1905
2.4900,-0.0650,0.6380,0.9594,0.4936,-8.0771,-5.5395,0.1349,-0.0372,0.2524
2.5000,-0.2321,0.7711,0.9922,0.5158,-8.0713,-5.5460,0.1478,-0.0030,0.2863
2.5100,-0.4317,0.8812,0.9837,0.5383,-8.0641,-5.5543,0.1734,0.0544,0.3068
2.5200,-0.3175,0.9058,0.9640,0.5593,-8.0540,-5.5668,0.2296,0.1818,0.3260
2.5300,-0.1001,0.8684,0.9323,0.5760,-8.0327,-5.5957,0.3011,0.3553,0.3778
2.5400,-0.0978,0.8597,0.9181,0.5826,-8.0175,-5.6167,0.3332,0.4381,0.4177
2.5500,-0.0954,0.8510,0.9039,0.5892,-8.0022,-5.6378,0.3652,0.5208,0.4575
2.5600,-0.0958,0.8811,0.8282,0.5985,-7.9742,-5.6766,0.4068,0.6146,0.5047
2.5700,-0.1548,0.9937,0.6774,0.6037,-7.9480,-5.7127,0.4260,0.6009,0.4971
2.5800,-0.2508,1.1171,0.4933,0.6087,-7.9206,-5.7501,0.4520,0.5492,0.4519
2.5900,-0.2728,1.2511,0.3074,0.6128,-7.8917,-5.7892,0.4932,0.5355,0.4021
2.6000,-0.1321,1.4486,0.1268,0.6133,-7.8606,-5.8313,0.5537,0.6039,0.3917
2.6100,0.1419,1.6568,0.0291,0.6087,-7.8258,-5.8784,0.6270,0.7093,0.4192
2.6200,0.4958,1.8028,0.0883,0.5995,-7.7862,-5.9316,0.6930,0.7438,0.4418
2.6300,0.8806,1.8271,0.2794,0.5895,-7.7423,-5.9899,0.7345,0.5987,0.4406
2.6400,1.0765,1.6977,0.5024,0.5875,-7.6955,-6.0501,0.7336,0.3293,0.4165
2.6500,0.9735,1.5070,0.6265,0.5995,-7.6484,-6.1083,0.6926,0.0321,0.3514
2.6600,0.7391,1.2349,0.5741,0.6244,-7.6038,-6.1613,0.6416,-0.2501,0.2402
2.6700,0.6168,0.8417,0.4631,0.6581,-7.5626,-6.2083,0.6035,-0.4239,0.1345
2.6800,0.6090,0.4537,0.4687,0.6947,-7.5241,-6.2510,0.5864,-0.4474,0.0903
2.6900,0.5885,0.0859,0.6747,0.7295,-7.4867,-6.2918,0.5864,-0.3423,0.1064
2.7000,0.6021,-0.1147,0.9243,0.7590,-7.4488,-6.3331,0.5854,-0.1875,0.1416
2.7100,0.6275,-0.0142,0.9508,0.7815,-7.4106,-6.3751,0.5699,-0.1667,0.1162
2.7200,0.4143,0.3065,0.7713,0.8008,-7.3732,-6.4159,0.5546,-0.3994,-0.0176
2.7300,-0.0066,0.6912,0.5692,0.8254,-7.3378,-6.4533,0.5766,-0.7522,-0.2066
2.7400,-0.5406,1.0914,0.5416,0.8591,-7.3023,-6.4891,0.6639,-0.9575,-0.3331
2.7500,-1.1569,1.5156,0.5851,0.8971,-7.2620,-6.5290,0.8307,-0.6355,-0.2262
2.7600,-1.5664,1.8618,0.5161,0.9223,-7.2095,-6.5833,1.0030,-0.0598,-0.0331
2.7700,-1.5786,1.9944,0.4427,0.9238,-7.1434,-6.6547,1.1279,0.2643,0.0279
2.7800,-1.3055,1.8180,0.5384,0.9081,-7.0676,-6.7373,1.2241,0.3868,0.0313
2.7900,-0.8780,1.3804,0.8170,0.8840,-6.9843,-6.8267,1.2647,0.3495,0.0368
2.8000,-0.4065,0.9208,1.0934,0.8626,-6.8971,-6.9176,1.2354,0.2099,0.0976
2.8100,-0.2202,0.7239,1.2038,0.8547,-6.8102,-7.0040,1.1639,0.0422,0.2353
2.8200,-0.4846,0.7165,1.1932,0.8676,-6.7262,-7.0832,1.1022,-0.1465,0.3758
2.8300,-0.7428,0.6802,1.2129,0.9032,-6.6444,-7.1556,1.0738,-0.3057,0.4522
2.8400,-1.0963,0.6957,1.0942,0.9551,-6.5630,-7.2236,1.0729,-0.3322,0.4833
2.8500,-1.3985,0.7807,0.7455,1.0107,-6.4804,-7.2904,1.0964,-0.1917,0.5069
2.8600,-1.0932,0.7646,0.3018,1.0573,-6.3949,-7.3590,1.1633,0.0774,0.5328
2.8700,-0.4030,0.5962,-0.1862,1.0854,-6.3031,-7.4337,1.2491,0.2921,0.5765
2.8800,0.3861,0.2942,-0.7154,1.0996,-6.2034,-7.5149,1.3212,0.3312,0.6519
2.8900,0.8813,-0.0258,-1.4159,1.1143,-6.0965,-7.5997,1.3918,0.2328,0.7103
2.9000,1.0405,-0.2902,-2.0923,1.1382,-5.9829,-7.6859,1.4700,0.0981,0.7005
2.9100,1.0633,-0.4752,-2.3137,1.1705,-5.8625,-7.7734,1.5402,0.0477,0.6318
2.9200,1.1174,-0.4597,-2.0808,1.2026,-5.7356,-7.8626,1.5466,0.0395,0.5157
2.9300,1.0923,-0.1136,-1.7117,1.2289,-5.6077,-7.9504,1.4672,-0.0335,0.3532
2.9400,0.9595,0.4285,-1.2264,1.2516,-5.4864,-8.0310,1.3570,-0.1777,0.1935
2.9500,0.7747,0.8151,-0.7147,1.2771,-5.3748,-8.1022,1.2721,-0.3286,0.1174
2.9600,0.3780,0.9580,-0.4061,1.3111,-5.2700,-8.1655,1.2226,-0.4569,0.1284
2.9700,-0.1184,0.8393,-0.2061,1.3562,-5.1680,-8.2230,1.2073,-0.5631,0.1629
2.9800,-0.5795,0.4908,-0.0384,1.4115,-5.0661,-8.2769,1.2152,-0.5802,0.2051
2.9900,-0.9741,0.0458,-0.0039,1.4697,-4.9625,-8.3294,1.2226,-0.5024,0.2283
3.0000,-1.2063,-0.4513,-0.0223,1.5211,-4.8581,-8.3816,1.2220,-0.3609,0.2222
3.0100,-1.2122,-0.8707,-0.0933,1.5582,-4.7548,-8.4339,1.2094,-0.1572,0.2188
3.0200,-1.0319,-1.1015,-0.3312,1.5766,-4.6532,-8.4870,1.1838,0.0273,0.2054
3.0300,-0.6494,-1.1837,-0.6012,1.5784,-4.5543,-8.5401,1.1572,0.1617,0.1874
3.0400,-0.1341,-1.1166,-0.9338,1.5683,-4.4574,-8.5930,1.1309,0.2450,0.1822
3.0500,0.4054,-0.8857,-1.3906,1.5518,-4.3615,-8.6450,1.1117,0.2331,0.1752
3.0600,0.8113,-0.7267,-1.7544,1.5374,-4.2655,-8.6954,1.1157,0.1659,0.1663
3.0700,1.0421,-0.6765,-1.9616,1.5293,-4.1671,-8.7443,1.1254,0.1091,0.1538
3.0800,1.2262,-0.5843,-2.0551,1.5260,-4.0664,-8.7922,1.1126,0.0257,0.0967
3.0900,1.3119,-0.5773,-2.0399,1.5276,-3.9669,-8.8373,1.0641,-0.1508,-0.0136
3.1000,1.0656,-0.5253,-1.8820,1.5405,-3.8729,-8.8767,1.0124,-0.3255,-0.0881
3.1100,0.6270,-0.4870,-1.4855,1.5661,-3.7842,-8.9104,0.9807,-0.3909,-0.0851
3.1200,0.3032,-0.5589,-1.0157,1.5978,-3.6980,-8.9409,0.9370,-0.3927,-0.0564
3.1300,0.0881,-0.5497,-0.6837,1.6309,-3.6150,-8.9688,0.8845,-0.3829,-0.0377
3.1400,-0.0491,-0.5615,-0.4812,1.6639,-3.5362,-8.9942,0.8548,-0.3625,-0.0316
3.1500,-0.0890,-0.6690,-0.3712,1.6955,-3.4598,-9.0180,0.8530,-0.3063,-0.0163
3.1600,-0.0622,-0.8199,-0.3521,1.7226,-3.3831,-9.0419,0.8606,-0.2348,0.0066
3.1700,-0.0142,-0.9334,-0.4568,1.7440,-3.3055,-9.0664,0.8625,-0.1823,0.0249
3.1800,0.0476,-0.9790,-0.6571,1.7612,-3.2276,-9.0911,0.8564,-0.1536,0.0368
3.1900,0.1248,-1.0231,-0.7933,1.7762,-3.1500,-9.1154,0.8506,-0.1435,0.0493
3.2000,0.1450,-1.0493,-0.9025,1.7907,-3.0724,-9.1391,0.8408,-0.1316,0.0744
3.2100,0.1224,-1.0730,-0.9203,1.8049,-2.9947,-9.1620,0.8267,-0.1102,0.1009
3.2200,0.1429,-1.1551,-0.7555,1.8180,-2.9175,-9.1843,0.8115,-0.0861,0.1162
3.2300,0.1628,-1.1488,-0.6033,1.8292,-2.8411,-9.2060,0.7947,-0.0757,0.1245
3.2400,0.1285,-1.0358,-0.5455,1.8396,-2.7662,-9.2267,0.7898,-0.0903,0.1294
3.2500,0.0736,-0.8935,-0.5474,1.8514,-2.6918,-9.2464,0.8029,-0.1038,0.1431
3.2600,0.0771,-0.6758,-0.5823,1.8646,-2.6162,-9.2654,0.8225,-0.0885,0.1739
3.2700,0.1257,-0.4255,-0.6338,1.8771,-2.5385,-9.2845,0.8414,-0.0485,0.2066
3.2800,0.2384,-0.2062,-0.6945,1.8865,-2.4585,-9.3040,0.8637,-0.0015,0.2173
3.2900,0.3936,-0.0646,-0.8585,1.8917,-2.3763,-9.3243,0.8918,0.0401,0.2106
3.3000,0.4967,0.0107,-1.1295,1.8927,-2.2912,-9.3454,0.9168,0.0465,0.2011
3.3100,0.5276,0.0054,-1.2593,1.8929,-2.2032,-9.3665,0.9318,0.0040,0.1917
3.3200,0.5537,0.0830,-1.2956,1.8968,-2.1133,-9.3864,0.9181,-0.0537,0.1859
3.3300,0.6261,0.2680,-1.4275,1.9057,-2.0241,-9.4042,0.8735,-0.1019,0.1669
3.3400,0.7125,0.3983,-1.6444,1.9187,-1.9389,-9.4195,0.8264,-0.1539,0.1211
3.3500,0.7592,0.4701,-1.8567,1.9355,-1.8587,-9.4322,0.7889,-0.2009,0.0680
3.3600,0.7234,0.4111,-1.9492,1.9557,-1.7830,-9.4427,0.7571,-0.2235,0.0231
3.3700,0.6037,0.2781,-1.8901,1.9773,-1.7110,-9.4516,0.7220,-0.2262,-0.0124
3.3800,0.4652,0.1251,-1.6418,1.9984,-1.6430,-9.4592,0.6749,-0.2125,-0.0417
3.3900,0.4050,0.0177,-1.2833,2.0179,-1.5800,-9.4658,0.6145,-0.1893,-0.0710
3.4000,0.4014,0.0065,-0.8993,2.0347,-1.5232,-9.4715,0.5570,-0.1719,-0.1031
3.4100,0.3747,0.0205,-0.5461,2.0495,-1.4726,-9.4763,0.5185,-0.1627,-0.1324
3.4200,0.2797,0.0351,-0.3097,2.0630,-1.4261,-9.4805,0.4929,-0.1517,-0.1544
3.4300,0.1394,0.0527,-0.1647,2.0752,-1.3826,-9.4843,0.4639,-0.1187,-0.1724
3.4400,0.0275,0.0567,-0.0615,2.0842,-1.3424,-9.4881,0.4312,-0.0748,-0.1856
3.4500,-0.0252,0.0583,0.0503,2.0890,-1.3056,-9.4922,0.3991,-0.0439,-0.1898
3.4600,-0.0271,0.0631,0.1574,2.0909,-1.2721,-9.4963,0.3649,-0.0274,-0.1846
3.4700,-0.0156,0.1070,0.2391,2.0913,-1.2419,-9.5002,0.3301,-0.0244,-0.1703
3.4800,-0.0255,0.1492,0.3084,2.0917,-1.2147,-9.5036,0.3017,-0.0308,-0.1513
3.4900,-0.0687,0.1470,0.3268,2.0930,-1.1897,-9.5065,0.2855,-0.0415,-0.1391
3.5000,-0.1358,0.1029,0.3005,2.0955,-1.1660,-9.5089,0.2794,-0.0500,-0.1376
3.5100,-0.1989,0.0318,0.2487,2.0987,-1.1428,-9.5110,0.2821,-0.0546,-0.1489
3.5200,-0.2276,-0.0560,0.1753,2.1022,-1.1195,-9.5130,0.2922,-0.0540,-0.1651
3.5300,-0.2451,-0.1660,0.0601,2.1054,-1.0958,-9.5151,0.3051,-0.0467,-0.1770
3.5400,-0.2916,-0.2575,-0.0980,2.1076,-1.0713,-9.5174,0.3182,-0.0317,-0.1776
3.5500,-0.3471,-0.2994,-0.2713,2.1080,-1.0461,-9.5201,0.3261,-0.0198,-0.1571
3.5600,-0.3940,-0.3085,-0.4706,2.1071,-1.0203,-9.5231,0.3264,-0.0256,-0.1263
3.5700,-0.4340,-0.2792,-0.6772,2.1063,-0.9945,-9.5260,0.3222,-0.0500,-0.0936
3.5800,-0.4605,-0.1986,-0.8412,2.1077,-0.9685,-9.5283,0.3130,-0.0864,-0.0564
3.5900,-0.4906,-0.0991,-0.9391,2.1127,-0.9424,-9.5299,0.2974,-0.1288,-0.0209
3.6000,-0.5046,-0.0004,-0.9626,2.1219,-0.9166,-9.5303,0.2766,-0.1676,0.0087
3.6100,-0.4914,0.0908,-0.9033,2.1350,-0.8917,-9.5298,0.2550,-0.1978,0.0289
3.6200,-0.4464,0.1606,-0.7802,2.1511,-0.8681,-9.5283,0.2354,-0.2238,0.0344
3.6300,-0.3703,0.1635,-0.6100,2.1696,-0.8459,-9.5261,0.2235,-0.2467,0.0289
3.6400,-0.2927,0.0813,-0.4273,2.1901,-0.8247,-9.5233,0.2238,-0.2660,0.0203
3.6500,-0.2515,0.0040,-0.2523,2.2123,-0.8036,-9.5200,0.2308,-0.2901,0.0160
3.6600,-0.2506,0.0027,-0.0921,2.2366,-0.7821,-9.5161,0.2372,-0.3402,0.0139
3.6700,-0.2733,0.0406,0.0273,2.2653,-0.7600,-9.5111,0.2379,-0.3933,0.0136
3.6800,-0.3127,0.0964,0.0953,2.2987,-0.7380,-9.5048,0.2327,-0.4223,0.0154
3.6900,-0.3174,0.1647,0.1385,2.3345,-0.7165,-9.4977,0.2266,-0.4352,0.0166
3.7000,-0.2786,0.2262,0.1585,2.3711,-0.6955,-9.4902,0.2198,-0.4312,0.0197
3.7100,-0.2191,0.2653,0.1365,2.4074,-0.6748,-9.4826,0.2119,-0.4141,0.0249
3.7200,-0.1320,0.2869,0.0715,2.4424,-0.6544,-9.4750,0.2052,-0.3909,0.0304
3.7300,-0.0287,0.2787,-0.0219,2.4756,-0.6342,-9.4678,0.2021,-0.3704,0.0377
3.7400,0.0929,0.2512,-0.0971,2.5072,-0.6140,-9.4608,0.2015,-0.3588,0.0408
3.7500,0.2165,0.1949,-0.1627,2.5380,-0.5935,-9.4539,0.2006,-0.3509,0.0362
3.7600,0.2912,0.1615,-0.2236,2.5687,-0.5733,-9.4469,0.1981,-0.3429,0.0240
3.7700,0.3182,0.1921,-0.2679,2.5992,-0.5536,-9.4397,0.1942,-0.3347,0.0029
3.7800,0.3167,0.2272,-0.2943,2.6294,-0.5349,-9.4324,0.1920,-0.3142,-0.0273
3.7900,0.2893,0.2825,-0.3181,2.6579,-0.5171,-9.4254,0.1920,-0.2870,-0.0530
3.8000,0.2441,0.3037,-0.3342,2.6841,-0.5001,-9.4189,0.1905,-0.2650,-0.0594
3.8100,0.1888,0.2630,-0.3785,2.7082,-0.4833,-9.4129,0.1820,-0.2528,-0.0573
3.8200,0.1226,0.2087,-0.4562,2.7312,-0.4672,-9.4070,0.1658,-0.2492,-0.0557
3.8300,0.0688,0.1235,-0.5124,2.7539,-0.4527,-9.4011,0.1471,-0.2345,-0.0539
3.8400,0.0727,0.0281,-0.5503,2.7752,-0.4399,-9.3955,0.1294,-0.1985,-0.0545
3.8500,0.1398,-0.0535,-0.5396,2.7931,-0.4289,-9.3907,0.1181,-0.1410,-0.0567
3.8600,0.2625,-0.1339,-0.4651,2.8056,-0.4192,-9.3874,0.1148,-0.0790,-0.0588
3.8700,0.3861,-0.2017,-0.3279,2.8126,-0.4100,-9.3857,0.1148,-0.0372,-0.0625
3.8800,0.4679,-0.2346,-0.1596,2.8157,-0.4010,-9.3851,0.1126,-0.0201,-0.0649
3.8900,0.5057,-0.2265,0.0222,2.8174,-0.3924,-9.3850,0.1041,-0.0164,-0.0646
3.9000,0.4719,-0.1983,0.2124,2.8190,-0.3847,-9.3849,0.0919,-0.0118,-0.0579
3.9100,0.3984,-0.1461,0.3510,2.8206,-0.3782,-9.3846,0.0778,-0.0030,-0.0475
3.9200,0.2977,-0.0758,0.3987,2.8219,-0.3731,-9.3844,0.0607,0.0068,-0.0371
3.9300,0.1783,-0.0305,0.3806,2.8229,-0.3694,-9.3843,0.0433,0.0138,-0.0289
3.9400,0.0750,-0.0017,0.2884,2.8232,-0.3670,-9.3843,0.0286,0.0184,-0.0221
3.9500,0.0167,0.0220,0.1330,2.8228,-0.3656,-9.3845,0.0216,0.0254,-0.0118
3.9600,0.0049,0.0064,-0.0258,2.8214,-0.3643,-9.3849,0.0256,0.0343,0.0011
3.9700,0.0181,-0.0101,-0.1854,2.8190,-0.3622,-9.3857,0.0357,0.0404,0.0163
3.9800,0.0572,0.0031,-0.3184,2.8159,-0.3587,-9.3868,0.0460,0.0407,0.0328
3.9900,0.0844,0.0268,-0.4154,2.8126,-0.3536,-9.3880,0.0525,0.0312,0.0457
4.0000,0.0953,0.0710,-0.4551,2.8101,-0.3476,-9.3890,0.0534,0.0129,0.0539
4.0100,0.1045,0.0945,-0.4510,2.8092,-0.3411,-9.3895,0.0488,-0.0045,0.0609
4.0200,0.0835,0.1098,-0.4258,2.8099,-0.3348,-9.3895,0.0402,-0.0069,0.0677
4.0300,0.0383,0.1065,-0.3481,2.8108,-0.3292,-9.3894,0.0329,0.0059,0.0732
4.0400,0.0038,0.0594,-0.2593,2.8106,-0.3240,-9.3897,0.0271,0.0215,0.0774
4.0500,-0.0124,0.0224,-0.1760,2.8088,-0.3193,-9.3904,0.0213,0.0328,0.0780
4.0600,-0.0299,0.0194,-0.0948,2.8060,-0.3151,-9.3914,0.0167,0.0389,0.0774
4.0700,-0.0217,0.0360,-0.0398,2.8026,-0.3113,-9.3925,0.0143,0.0419,0.0768
4.0800,-0.0000,0.0540,-0.0098,2.7989,-0.3078,-9.3937,0.0143,0.0438,0.0759
4.0900,0.0230,0.0853,-0.0026,2.7950,-0.3043,-9.3950,0.0170,0.0434,0.0783
4.1000,0.0436,0.1054,-0.0276,2.7912,-0.3005,-9.3962,0.0219,0.0380,0.0841
4.1100,0.0348,0.0900,-0.0840,2.7879,-0.2959,-9.3973,0.0277,0.0257,0.0878
4.1200,0.0213,0.0668,-0.1455,2.7859,-0.2906,-9.3981,0.0317,0.0105,0.0872
4.1300,0.0052,0.0564,-0.1966,2.7852,-0.2850,-9.3985,0.0314,0.0028,0.0857
4.1400,-0.0055,0.0676,-0.2383,2.7852,-0.2795,-9.3987,0.0289,0.0044,0.0823
4.1500,-0.0137,0.0768,-0.2560,2.7850,-0.2743,-9.3989,0.0241,0.0068,0.0765
4.1600,-0.0239,0.0829,-0.2486,2.7844,-0.2697,-9.3992,0.0164,0.0047,0.0728
4.1700,-0.0402,0.0922,-0.2423,2.7839,-0.2658,-9.3994,0.0088,-0.0008,0.0698
4.1800,-0.0556,0.0866,-0.2398,2.7838,-0.2626,-9.3996,0.0030,-0.0076,0.0652
4.1900,-0.0655,0.0756,-0.2314,2.7841,-0.2599,-9.3995,0.0008,-0.0161,0.0606
4.2000,-0.0892,0.0696,-0.2233,2.7850,-0.2575,-9.3993,0.0039,-0.0237,0.0551
4.2100,-0.1096,0.0693,-0.2164,2.7863,-0.2549,-9.3990,0.0115,-0.0314,0.0469
4.2200,-0.1029,0.0685,-0.2156,2.7880,-0.2516,-9.3986,0.0207,-0.0384,0.0353
4.2300,-0.0844,0.0587,-0.2280,2.7899,-0.2478,-9.3982,0.0296,-0.0430,0.0212
4.2400,-0.0566,0.0580,-0.2405,2.7920,-0.2435,-9.3976,0.0344,-0.0463,0.0115
4.2500,-0.0302,0.0691,-0.2435,2.7943,-0.2391,-9.3971,0.0360,-0.0454,0.0105
4.2600,-0.0265,0.0455,-0.2357,2.7966,-0.2346,-9.3965,0.0360,-0.0372,0.0115
4.2700,-0.5453,0.0901,-0.0685,2.7983,-0.2302,-9.3961,0.0448,-0.0039,0.1016
4.2800,-0.4987,0.0100,-0.0549,2.7936,-0.2219,-9.3977,0.0635,0.0074,0.2384
4.2900,0.1216,0.0181,-0.2439,2.7862,-0.2084,-9.4002,0.0491,-0.0094,0.1932
4.3000,0.5018,0.1096,-0.3840,2.7830,-0.1982,-9.4014,0.0335,0.0508,0.0502
4.3100,0.9582,-0.0437,-0.4838,2.7767,-0.1933,-9.4033,0.0378,0.1281,-0.0606
