seconds_elapsed,acc_z,acc_y,acc_x,grav_z,grav_y,grav_x,gyro_z,gyro_y,gyro_x
0.0600,-0.0706,-0.0433,0.0903,2.6281,-9.3089,-1.6146,-0.0123,-0.0230,0.0159
0.0700,-0.1113,-0.0326,0.0743,2.6295,-9.3088,-1.6134,-0.0022,-0.0129,0.0028
0.0800,-0.1463,0.0051,0.1135,2.6291,-9.3089,-1.6133,0.0073,-0.0040,-0.0180
0.0900,-0.1461,0.0517,0.1745,2.6264,-9.3094,-1.6144,0.0160,0.0015,-0.0400
0.1000,-0.0540,0.1063,0.2302,2.6220,-9.3104,-1.6160,0.0145,0.0106,-0.0504
0.1100,0.0702,0.1280,0.2419,2.6171,-9.3116,-1.6172,0.0029,0.0194,-0.0456
0.1200,0.0998,0.0956,0.1639,2.6132,-9.3127,-1.6174,-0.0042,0.0104,-0.0338
0.1300,0.0450,0.0630,0.0352,2.6105,-9.3135,-1.6169,-0.0026,-0.0144,-0.0244
0.1400,0.0062,0.0771,-0.0604,2.6089,-9.3141,-1.6162,0.0029,-0.0388,-0.0212
0.1500,0.0173,0.0779,-0.0849,2.6077,-9.3145,-1.6154,0.0064,-0.0485,-0.0199
0.1600,0.0240,0.0260,-0.0796,2.6066,-9.3149,-1.6150,0.0122,-0.0457,-0.0209
0.1700,0.0037,-0.0323,-0.0738,2.6051,-9.3152,-1.6155,0.0249,-0.0397,-0.0263
0.1800,-0.0340,-0.0590,-0.0203,2.6029,-9.3156,-1.6174,0.0359,-0.0360,-0.0359
0.1900,-0.0531,-0.0296,0.0598,2.5997,-9.3160,-1.6198,0.0371,-0.0312,-0.0454
0.2000,-0.0509,-0.0150,0.1113,2.5956,-9.3167,-1.6224,0.0350,-0.0220,-0.0518
0.2100,-0.0529,-0.0144,0.1498,2.5908,-9.3175,-1.6252,0.0354,-0.0132,-0.0576
0.2200,-0.0538,0.0170,0.1840,2.5855,-9.3185,-1.6282,0.0346,-0.0055,-0.0603
0.2300,-0.0560,0.0265,0.2116,2.5800,-9.3195,-1.6312,0.0315,-0.0030,-0.0580
0.2400,-0.0532,0.0086,0.2246,2.5749,-9.3204,-1.6339,0.0283,-0.0069,-0.0518
0.2500,-0.0138,-0.0192,0.2356,2.5707,-9.3212,-1.6363,0.0277,-0.0057,-0.0390
0.2600,0.0326,-0.0472,0.2638,2.5677,-9.3216,-1.6387,0.0261,-0.0005,-0.0267
0.2700,0.0511,-0.0526,0.2809,2.5653,-9.3218,-1.6410,0.0218,0.0070,-0.0214
0.2800,0.0540,-0.0390,0.2614,2.5631,-9.3220,-1.6432,0.0196,0.0143,-0.0217
0.2900,0.0631,-0.0193,0.2411,2.5608,-9.3223,-1.6456,0.0222,0.0214,-0.0216
0.3000,0.0780,0.0129,0.2591,2.5587,-9.3223,-1.6486,0.0281,0.0288,-0.0173
0.3100,0.0635,0.0433,0.2829,2.5567,-9.3222,-1.6521,0.0317,0.0296,-0.0140
0.3200,0.0393,0.0407,0.2809,2.5550,-9.3221,-1.6557,0.0312,0.0258,-0.0130
0.3300,0.0290,0.0017,0.2564,2.5534,-9.3219,-1.6591,0.0283,0.0205,-0.0137
0.3400,0.0591,-0.0113,0.2180,2.5518,-9.3218,-1.6621,0.0268,0.0210,-0.0130
0.3500,0.0997,0.0106,0.1724,2.5503,-9.3217,-1.6650,0.0257,0.0302,-0.0120
0.3600,0.1018,0.0101,0.1470,2.5485,-9.3217,-1.6680,0.0242,0.0408,-0.0163
0.3700,0.0829,-0.0028,0.1508,2.5458,-9.3218,-1.6713,0.0223,0.0505,-0.0278
0.3800,0.0529,0.0031,0.1797,2.5416,-9.3224,-1.6745,0.0201,0.0525,-0.0445
0.3900,0.0120,-0.0211,0.2131,2.5358,-9.3234,-1.6774,0.0193,0.0371,-0.0616
0.4000,-0.0465,-0.0471,0.2371,2.5287,-9.3250,-1.6796,0.0166,0.0035,-0.0807
0.4100,-0.0741,-0.0501,0.2675,2.5206,-9.3270,-1.6804,0.0089,-0.0288,-0.0973
0.4200,-0.0443,-0.0778,0.2773,2.5115,-9.3295,-1.6800,0.0015,-0.0426,-0.1077
0.4300,-0.0251,-0.0645,0.2501,2.5016,-9.3324,-1.6788,-0.0034,-0.0419,-0.1187
0.4400,-0.0284,-0.0231,0.2039,2.4906,-9.3356,-1.6772,-0.0078,-0.0304,-0.1310
0.4500,-0.0265,0.0041,0.1535,2.4782,-9.3392,-1.6756,-0.0132,-0.0157,-0.1421
0.4600,-0.0176,0.0256,0.1076,2.4645,-9.3432,-1.6737,-0.0228,-0.0101,-0.1536
0.4700,0.0017,0.0118,0.0501,2.4496,-9.3476,-1.6709,-0.0285,-0.0129,-0.1654
0.4800,0.0590,-0.0155,-0.0164,2.4341,-9.3521,-1.6683,-0.0177,-0.0132,-0.1705
0.4900,0.1452,-0.0322,-0.0354,2.4183,-9.3564,-1.6673,0.0028,-0.0110,-0.1682
0.5000,0.2328,-0.0313,0.0157,2.4031,-9.3602,-1.6680,0.0140,-0.0095,-0.1595
0.5100,0.2907,-0.0107,0.1045,2.3889,-9.3637,-1.6690,0.0121,-0.0112,-0.1452
0.5200,0.2937,0.0013,0.1732,2.3761,-9.3668,-1.6696,0.0036,-0.0136,-0.1287
0.5300,0.2651,0.0186,0.1975,2.3652,-9.3696,-1.6692,-0.0059,-0.0134,-0.1084
0.5400,0.1762,0.0563,0.2035,2.3560,-9.3722,-1.6678,-0.0156,-0.0249,-0.0934
0.5500,0.0076,0.0781,0.2010,2.3478,-9.3748,-1.6647,-0.0290,-0.0614,-0.0955
0.5600,-0.1013,0.0885,0.1571,2.3398,-9.3777,-1.6595,-0.0398,-0.0994,-0.1040
0.5700,-0.0706,0.1039,0.0972,2.3315,-9.3809,-1.6531,-0.0408,-0.1153,-0.1089
0.5800,-0.0210,0.1002,0.0486,2.3229,-9.3841,-1.6470,-0.0311,-0.1130,-0.1124
0.5900,0.0157,0.0825,0.0123,2.3139,-9.3872,-1.6424,-0.0121,-0.0961,-0.1140
0.6000,0.0643,0.0910,0.0085,2.3046,-9.3898,-1.6403,0.0067,-0.0671,-0.1116
0.6100,0.0933,0.1468,0.0379,2.2950,-9.3922,-1.6402,0.0163,-0.0359,-0.1087
0.6200,0.0699,0.1939,0.0930,2.2850,-9.3945,-1.6411,0.0128,-0.0147,-0.1107
0.6300,-0.0011,0.2093,0.1227,2.2743,-9.3970,-1.6415,-0.0002,-0.0075,-0.1167
0.6400,-0.0523,0.2033,0.0753,2.2632,-9.3998,-1.6410,-0.0069,-0.0113,-0.1236
0.6500,-0.0588,0.1503,-0.0306,2.2514,-9.4027,-1.6403,0.0014,-0.0177,-0.1305
0.6600,-0.0336,0.0671,-0.0825,2.2390,-9.4056,-1.6407,0.0152,-0.0169,-0.1363
0.6700,0.0004,0.0191,-0.0468,2.2261,-9.4084,-1.6424,0.0257,-0.0072,-0.1417
0.6800,0.0075,0.0164,0.0036,2.2123,-9.4112,-1.6451,0.0317,0.0030,-0.1507
0.6900,0.0037,0.0510,0.0470,2.1977,-9.4140,-1.6484,0.0319,0.0134,-0.1562
0.7000,-0.0182,0.1098,0.0824,2.1826,-9.4170,-1.6515,0.0235,0.0206,-0.1572
0.7100,-0.0830,0.1200,0.1199,2.1674,-9.4201,-1.6534,0.0078,0.0101,-0.1596
0.7200,-0.1671,0.0820,0.1435,2.1522,-9.4237,-1.6533,-0.0080,-0.0247,-0.1659
0.7300,-0.2231,0.0279,0.1341,2.1367,-9.4276,-1.6509,-0.0181,-0.0750,-0.1771
0.7400,-0.1900,0.0036,0.1156,2.1212,-9.4318,-1.6470,-0.0217,-0.1161,-0.1819
0.7500,-0.0931,0.0249,0.0740,2.1061,-9.4359,-1.6424,-0.0161,-0.1409,-0.1795
0.7600,0.0121,0.0688,0.0262,2.0918,-9.4398,-1.6385,-0.0014,-0.1475,-0.1725
0.7700,0.1384,0.1088,0.0050,2.0783,-9.4431,-1.6365,0.0187,-0.1261,-0.1608
0.7800,0.2282,0.1058,0.0023,2.0653,-9.4459,-1.6369,0.0370,-0.0895,-0.1534
0.7900,0.2027,0.0751,0.0181,2.0519,-9.4484,-1.6393,0.0444,-0.0609,-0.1549
0.8000,0.1102,0.0400,0.0466,2.0379,-9.4509,-1.6423,0.0408,-0.0526,-0.1595
0.8100,0.0209,0.0188,0.0497,2.0236,-9.4536,-1.6446,0.0328,-0.0721,-0.1618
0.8200,-0.0340,0.0093,0.0298,2.0098,-9.4564,-1.6454,0.0246,-0.1111,-0.1593
0.8300,-0.0450,0.0419,0.0074,1.9971,-9.4592,-1.6450,0.0234,-0.1484,-0.1526
0.8400,-0.0123,0.0999,-0.0123,1.9857,-9.4617,-1.6444,0.0324,-0.1682,-0.1441
0.8500,0.0597,0.1087,0.0017,1.9751,-9.4638,-1.6448,0.0493,-0.1638,-0.1362
0.8600,0.1019,0.0774,0.0795,1.9649,-9.4655,-1.6473,0.0680,-0.1487,-0.1355
0.8700,0.1317,0.0526,0.1873,1.9542,-9.4670,-1.6515,0.0751,-0.1263,-0.1382
0.8800,0.2021,0.0392,0.2764,1.9430,-9.4685,-1.6562,0.0680,-0.0938,-0.1343
0.8900,0.2551,0.0057,0.2921,1.9320,-9.4700,-1.6605,0.0549,-0.0628,-0.1227
0.9000,0.2242,-0.0154,0.2328,1.9218,-9.4714,-1.6640,0.0439,-0.0478,-0.1127
0.9100,0.1398,0.0117,0.1545,1.9123,-9.4728,-1.6673,0.0441,-0.0425,-0.1034
0.9200,0.0760,0.0574,0.1071,1.9036,-9.4738,-1.6712,0.0538,-0.0362,-0.0924
0.9300,-0.0094,0.0809,0.1081,1.8956,-9.4746,-1.6761,0.0625,-0.0332,-0.0888
0.9400,-0.1082,0.0519,0.1146,1.8875,-9.4752,-1.6817,0.0698,-0.0355,-0.0949
0.9500,-0.1310,0.0160,0.1545,1.8786,-9.4758,-1.6882,0.0795,-0.0320,-0.1045
0.9600,-0.0572,0.0300,0.2430,1.8685,-9.4765,-1.6957,0.0876,-0.0127,-0.1156
0.9700,0.0256,0.0593,0.3125,1.8568,-9.4773,-1.7040,0.0853,0.0068,-0.1306
0.9800,0.0827,0.0478,0.3371,1.8436,-9.4784,-1.7119,0.0734,0.0235,-0.1407
0.9900,0.1638,0.0370,0.3072,1.8295,-9.4799,-1.7190,0.0662,0.0428,-0.1430
1.0000,0.2139,0.0614,0.2439,1.8150,-9.4813,-1.7265,0.0709,0.0570,-0.1431
1.0100,0.2050,0.0572,0.1827,1.8004,-9.4826,-1.7347,0.0776,0.0645,-0.1396
1.0200,0.1681,0.0135,0.1403,1.7861,-9.4837,-1.7435,0.0820,0.0614,-0.1365
1.0300,0.1303,-0.0459,0.1217,1.7721,-9.4846,-1.7526,0.0907,0.0527,-0.1365
1.0400,0.1226,-0.0858,0.1301,1.7582,-9.4853,-1.7629,0.1072,0.0469,-0.1357
1.0500,0.1323,-0.0646,0.1995,1.7446,-9.4856,-1.7748,0.1235,0.0491,-0.1315
1.0600,0.1560,-0.0152,0.2924,1.7316,-9.4856,-1.7878,0.1280,0.0605,-0.1206
1.0700,0.1836,0.0294,0.3563,1.7197,-9.4852,-1.8012,0.1268,0.0781,-0.1014
1.0800,0.1689,0.0623,0.3504,1.7094,-9.4844,-1.8150,0.1324,0.0923,-0.0815
1.0900,0.0958,0.0722,0.3020,1.7005,-9.4832,-1.8298,0.1425,0.1048,-0.0657
1.1000,0.0660,0.0962,0.2744,1.6928,-9.4814,-1.8458,0.1518,0.1376,-0.0501
1.1100,0.0686,0.1048,0.2612,1.6856,-9.4792,-1.8636,0.1631,0.1923,-0.0373
1.1200,0.0650,0.0617,0.2415,1.6780,-9.4765,-1.8840,0.1884,0.2679,-0.0310
1.1300,0.1326,0.0076,0.2463,1.6692,-9.4731,-1.9089,0.2223,0.3751,-0.0267
1.1400,0.2363,0.0125,0.3322,1.6582,-9.4689,-1.9392,0.2572,0.5168,-0.0221
1.1500,0.3178,0.1061,0.4374,1.6444,-9.4637,-1.9758,0.3035,0.6906,-0.0158
1.1600,0.3329,0.2154,0.5113,1.6275,-9.4572,-2.0205,0.3662,0.8760,-0.0094
1.1700,0.2474,0.2244,0.5567,1.6067,-9.4490,-2.0746,0.4460,1.0450,-0.0107
1.1800,0.1875,0.1158,0.6373,1.5815,-9.4389,-2.1389,0.5295,1.1894,-0.0221
1.1900,0.1821,-0.0600,0.7931,1.5510,-9.4270,-2.2124,0.6027,1.3021,-0.0444
1.2000,0.1868,-0.2775,0.9677,1.5150,-9.4137,-2.2925,0.6489,1.3826,-0.0720
1.2100,0.2009,-0.4413,1.1636,1.4739,-9.3998,-2.3748,0.6375,1.4156,-0.0993
1.2200,0.1208,-0.5390,1.3349,1.4295,-9.3869,-2.4518,0.5573,1.3695,-0.1207
1.2300,0.0457,-0.5570,1.3465,1.3851,-9.3763,-2.5171,0.4275,1.2646,-0.1178
1.2400,0.0652,-0.4167,1.1821,1.3445,-9.3686,-2.5674,0.2927,1.1370,-0.0917
1.2500,0.1035,-0.1382,0.9074,1.3093,-9.3634,-2.6043,0.1937,1.0144,-0.0633
1.2600,0.1836,0.1870,0.5931,1.2788,-9.3597,-2.6326,0.1440,0.9311,-0.0453
1.2700,0.2836,0.4371,0.2661,1.2504,-9.3565,-2.6573,0.1411,0.8918,-0.0452
1.2800,0.3742,0.5068,0.0259,1.2218,-9.3531,-2.6827,0.1681,0.8738,-0.0592
1.2900,0.4369,0.5447,-0.0267,1.1929,-9.3489,-2.7102,0.1947,0.8349,-0.0582
1.3000,0.4383,0.5259,-0.0929,1.1656,-9.3439,-2.7392,0.2189,0.7605,-0.0560
1.3100,0.2745,0.2063,-0.3337,1.1395,-9.3383,-2.7689,0.2366,0.6621,-0.0865
1.3200,0.0583,-0.0436,-0.4369,1.1125,-9.3332,-2.7971,0.2088,0.5680,-0.1193
1.3300,-0.1021,0.0067,-0.4292,1.0855,-9.3296,-2.8197,0.1464,0.4995,-0.1334
1.3400,-0.3020,0.0910,-0.6182,1.0594,-9.3277,-2.8359,0.0966,0.4386,-0.1385
1.3500,-0.4510,0.0393,-0.8566,1.0349,-9.3268,-2.8480,0.0732,0.3722,-0.1358
1.3600,-0.4372,-0.1288,-1.0099,1.0132,-9.3260,-2.8582,0.0701,0.3216,-0.1111
1.3700,-0.3095,-0.2782,-1.0401,0.9963,-9.3247,-2.8683,0.0798,0.2932,-0.0583
1.3800,-0.3292,-0.2737,-0.9843,0.9857,-9.3225,-2.8791,0.0956,0.2447,-0.0021
1.3900,-0.4678,-0.1792,-0.9502,0.9815,-9.3191,-2.8916,0.1311,0.1670,0.0380
1.4000,-0.6340,-0.2310,-0.9479,0.9824,-9.3139,-2.9080,0.1966,0.0610,0.0518
1.4100,-0.8022,-0.3648,-0.8075,0.9869,-9.3067,-2.9293,0.2510,-0.0252,0.0547
1.4200,-0.8127,-0.4058,-0.4801,0.9936,-9.2985,-2.9532,0.2648,-0.0386,0.0659
1.4300,-0.8832,-0.3250,-0.1991,1.0007,-9.2900,-2.9774,0.2587,-0.0235,0.0637
1.4400,-1.0369,-0.2583,-0.1095,1.0060,-9.2818,-3.0012,0.2524,-0.0007,0.0408
1.4500,-0.9653,-0.2527,-0.0669,1.0080,-9.2741,-3.0242,0.2360,0.0437,0.0152
1.4600,-0.9167,-0.1196,0.0826,1.0061,-9.2678,-3.0441,0.1758,0.0466,-0.0275
1.4700,-1.0719,0.0375,0.1872,1.0006,-9.2643,-3.0563,0.0834,-0.0217,-0.0771
1.4800,-1.0636,0.0635,-0.1063,0.9944,-9.2634,-3.0611,0.0470,-0.1200,-0.0963
1.4900,-0.9564,0.2067,-0.7041,0.9908,-9.2623,-3.0658,0.0983,-0.2136,-0.0897
1.5000,-0.7522,0.4532,-1.1277,0.9910,-9.2587,-3.0765,0.1811,-0.2484,-0.0597
1.5100,-0.3463,0.5760,-1.2585,0.9943,-9.2523,-3.0946,0.2551,-0.2028,-0.0285
1.5200,0.0893,0.5523,-1.1867,0.9965,-9.2436,-3.1198,0.3147,-0.0822,-0.0271
1.5300,0.5302,0.4996,-1.0003,0.9930,-9.2331,-3.1517,0.3666,0.1162,-0.0392
1.5400,0.9604,0.5165,-0.8562,0.9812,-9.2212,-3.1901,0.4101,0.3740,-0.0449
1.5500,1.2462,0.4236,-0.7949,0.9610,-9.2077,-3.2349,0.4485,0.6338,-0.0377
1.5600,1.2483,0.2031,-0.7376,0.9341,-9.1925,-3.2856,0.4982,0.8323,-0.0203
1.5700,1.0104,0.0297,-0.7432,0.9031,-9.1749,-3.3429,0.5676,0.9508,-0.0024
1.5800,0.5532,-0.0526,-0.7643,0.8704,-9.1544,-3.4070,0.6316,0.9803,0.0086
1.5900,0.1012,-0.0882,-0.5781,0.8382,-9.1319,-3.4747,0.6492,0.9564,0.0218
1.6000,-0.2547,-0.1055,-0.3104,0.8125,-9.1132,-3.5298,0.6195,0.9078,0.0217
1.6100,-0.4449,-0.1057,-0.2077,0.8025,-9.1059,-3.5507,0.5974,0.8718,0.0104
1.6200,-1.0144,-0.0514,-0.1591,0.7771,-9.0887,-3.6001,0.5589,0.7635,-0.0358
1.6300,-1.5122,-0.0011,-0.1902,0.7448,-9.0695,-3.6551,0.5302,0.6397,-0.1150
1.6400,-1.6763,0.1143,0.0063,0.7083,-9.0518,-3.7057,0.4829,0.5222,-0.2151
1.6500,-1.7117,0.2989,0.3282,0.6675,-9.0373,-3.7486,0.3894,0.3374,-0.3245
1.6600,-1.3939,0.3721,0.6611,0.6259,-9.0273,-3.7797,0.2640,0.1011,-0.4016
1.6700,-0.5378,0.3841,0.8661,0.5881,-9.0221,-3.7982,0.1450,-0.0843,-0.4158
1.6800,0.3240,0.3602,0.7727,0.5576,-9.0206,-3.8064,0.0647,-0.2296,-0.3858
1.6900,1.0163,0.2792,0.4394,0.5358,-9.0208,-3.8089,0.0332,-0.2999,-0.3208
1.7000,1.5370,0.1617,-0.0477,0.5211,-9.0208,-3.8110,0.0511,-0.2609,-0.2476
1.7100,1.5266,0.1761,-0.5887,0.5094,-9.0192,-3.8164,0.0931,-0.1785,-0.2002
1.7200,1.4106,0.3510,-0.9706,0.4966,-9.0158,-3.8260,0.1277,-0.0600,-0.1847
1.7300,1.4047,0.6116,-0.9576,0.4794,-9.0119,-3.8374,0.1145,0.0616,-0.1951
1.7400,1.3530,0.9164,-0.5721,0.4569,-9.0095,-3.8458,0.0602,0.1410,-0.2101
1.7500,1.4077,1.0111,-0.3136,0.4320,-9.0091,-3.8497,0.0165,0.1709,-0.1999
1.7600,1.5296,1.0209,-0.2016,0.4099,-9.0098,-3.8504,-0.0137,0.1490,-0.1449
1.7700,1.6781,0.9615,-0.1100,0.3951,-9.0111,-3.8490,-0.0256,0.1012,-0.0717
1.7800,1.7198,0.8023,-0.1367,0.3883,-9.0123,-3.8467,-0.0338,0.0713,-0.0061
1.7900,1.6545,0.8404,-0.1217,0.3874,-9.0140,-3.8429,-0.0588,0.0462,0.0361
1.8000,1.6593,0.9396,-0.1093,0.3902,-9.0171,-3.8353,-0.1136,0.0317,0.0613
1.8100,1.5380,0.8617,-0.2644,0.3960,-9.0224,-3.8223,-0.1736,0.0051,0.0855
1.8200,1.2967,0.7179,-0.5752,0.4066,-9.0289,-3.8058,-0.1813,-0.0667,0.1283
1.8300,1.1612,0.7149,-0.7992,0.4252,-9.0350,-3.7892,-0.1695,-0.1709,0.1826
1.8400,1.1746,0.8198,-0.8597,0.4517,-9.0405,-3.7730,-0.1667,-0.2388,0.2230
1.8500,1.2071,0.8759,-0.9924,0.4810,-9.0457,-3.7570,-0.1628,-0.2122,0.2226
1.8600,0.9664,0.9340,-1.1949,0.5055,-9.0510,-3.7410,-0.1731,-0.1388,0.1600
1.8700,0.6150,0.9862,-1.3744,0.5179,-9.0573,-3.7240,-0.1915,-0.0069,0.0421
1.8800,0.3905,1.0627,-1.2914,0.5107,-9.0654,-3.7051,-0.2417,0.2006,-0.1289
1.8900,0.2271,1.2266,-0.6827,0.4794,-9.0776,-3.6792,-0.3696,0.4105,-0.3023
1.9000,0.0858,1.0828,-0.1695,0.4279,-9.0958,-3.6402,-0.5291,0.5605,-0.4251
1.9100,-0.2672,0.4246,-0.0741,0.3629,-9.1194,-3.5879,-0.6589,0.6246,-0.5205
1.9200,-0.8257,-0.4076,-0.0265,0.2880,-9.1465,-3.5250,-0.7506,0.6109,-0.6293
1.9300,-1.2776,-1.1343,-0.0186,0.2033,-9.1755,-3.4547,-0.7993,0.5691,-0.7630
1.9400,-1.6445,-1.8178,-0.3735,0.1078,-9.2041,-3.3822,-0.7746,0.4938,-0.9043
1.9500,-1.9434,-2.5684,-1.1997,0.0044,-9.2289,-3.3157,-0.6589,0.3178,-1.0202
1.9600,-1.9072,-2.9365,-1.8277,-0.1001,-9.2481,-3.2602,-0.5449,0.0912,-1.0761
1.9700,-0.9016,-2.4622,-1.4018,-0.2011,-9.2642,-3.2096,-0.5607,0.0410,-1.0499
1.9800,1.0694,-1.6776,-0.3512,-0.3000,-9.2812,-3.1522,-0.6632,0.2462,-0.9793
1.9900,2.6873,-1.6892,-0.0542,-0.4007,-9.2995,-3.0864,-0.6984,0.5381,-0.9146
2.0000,3.1522,-2.7246,-0.7157,-0.5047,-9.3157,-3.0216,-0.6042,0.7924,-0.8742
2.0100,2.4750,-4.0624,-1.6120,-0.6127,-9.3267,-2.9672,-0.4477,0.9778,-0.8628
2.0200,1.2011,-4.9362,-2.1558,-0.7236,-9.3324,-2.9241,-0.3346,1.0298,-0.8588
2.0300,0.1042,-5.2657,-2.4227,-0.8314,-9.3349,-2.8872,-0.2993,0.9030,-0.8237
2.0400,-0.2892,-5.4462,-2.6865,-0.9271,-9.3368,-2.8519,-0.3114,0.6655,-0.7240
2.0500,0.0082,-5.5996,-2.8172,-1.0031,-9.3400,-2.8156,-0.3545,0.3928,-0.5679
2.0600,0.5688,-5.6415,-2.6792,-1.0547,-9.3460,-2.7765,-0.4241,0.1466,-0.3684
2.0700,1.2377,-5.1957,-2.0613,-1.0792,-9.3563,-2.7322,-0.5071,-0.0293,-0.1184
2.0800,1.8566,-4.2192,-1.1950,-1.0747,-9.3713,-2.6820,-0.5725,-0.1436,0.1662
2.0900,2.1892,-3.2359,-0.6971,-1.0404,-9.3901,-2.6290,-0.5883,-0.2532,0.4476
2.1000,2.1709,-2.5134,-0.7720,-0.9772,-9.4110,-2.5782,-0.5536,-0.4253,0.6992
2.1100,2.0898,-1.9849,-1.2723,-0.8855,-9.4320,-2.5338,-0.4836,-0.6773,0.9438
2.1200,2.2006,-1.5473,-1.9379,-0.7623,-9.4520,-2.4989,-0.3938,-0.9813,1.2154
2.1300,2.5001,-1.1258,-2.4195,-0.6043,-9.4698,-2.4739,-0.2948,-1.2657,1.5177
2.1400,2.8366,-0.7456,-2.6300,-0.4104,-9.4842,-2.4578,-0.1875,-1.5078,1.8267
2.1500,3.0008,-0.5552,-2.6442,-0.1829,-9.4929,-2.4509,-0.0524,-1.7085,2.0996
2.1600,3.1816,-0.5637,-2.4945,0.0720,-9.4934,-2.4543,0.1059,-1.7963,2.3269
2.1700,3.5860,-0.5871,-2.2510,0.3472,-9.4836,-2.4681,0.2580,-1.7038,2.5212
2.1800,4.0850,-0.6604,-1.9902,0.6344,-9.4626,-2.4913,0.3783,-1.3806,2.6887
2.1900,4.3747,-0.8466,-1.6852,0.9243,-9.4305,-2.5221,0.4385,-0.8434,2.8141
2.2000,3.9720,-1.0669,-1.3641,1.2067,-9.3886,-2.5590,0.4419,-0.1909,2.8628
2.2100,2.7535,-1.3245,-0.9063,1.4709,-9.3393,-2.6013,0.4015,0.4492,2.8093
2.2200,1.0926,-1.5779,-0.2125,1.7094,-9.2859,-2.6471,0.3220,0.9539,2.6860
2.2300,-0.3596,-1.7611,0.6230,1.9232,-9.2307,-2.6934,0.2277,1.2823,2.5601
2.2400,-1.6523,-2.1181,1.2458,2.1169,-9.1752,-2.7379,0.1452,1.3669,2.4082
2.2500,-3.1227,-2.3064,1.7165,2.2932,-9.1212,-2.7761,0.0620,1.1879,2.1959
2.2600,-4.1557,-2.0945,2.2442,2.4543,-9.0713,-2.8022,-0.0243,0.8646,1.9573
2.2700,-4.4740,-2.0036,2.4791,2.6040,-9.0258,-2.8141,-0.0720,0.4544,1.7567
2.2800,-4.4559,-2.2924,2.0529,2.7541,-8.9809,-2.8145,0.0060,-0.1378,1.6880
2.2900,-3.4131,-2.6662,1.3795,2.9251,-8.9276,-2.8112,0.2316,-0.7637,1.8574
2.3000,-1.3343,-2.4873,0.8915,3.1359,-8.8538,-2.8163,0.5663,-1.1808,2.2487
2.3100,-0.3277,-1.6258,0.5155,3.3882,-8.7527,-2.8387,0.9221,-1.4239,2.5832
2.3200,-1.4144,-1.0840,0.1219,3.6610,-8.6278,-2.8817,1.2743,-1.5311,2.6392
2.3300,-2.8357,-1.4249,-0.1141,3.9268,-8.4876,-2.9476,1.5933,-1.4651,2.4890
2.3400,-3.7776,-1.7369,-0.4115,4.1684,-8.3399,-3.0365,1.8363,-1.3045,2.2273
2.3500,-3.9828,-1.6842,-0.9175,4.3803,-8.1896,-3.1457,2.0366,-1.1069,1.9768
2.3600,-2.6704,-1.4637,-1.1880,4.5689,-8.0351,-3.2732,2.1621,-0.8540,1.8994
2.3700,-0.7851,-1.0452,-1.5165,4.7500,-7.8693,-3.4148,2.2457,-0.6731,2.0209
2.3800,-0.3120,-0.6358,-1.7805,4.9393,-7.6878,-3.5566,2.2559,-0.8104,2.1624
2.3900,-1.4723,-0.2028,-1.2080,5.1421,-7.4974,-3.6735,2.1028,-1.1856,2.1887
2.4000,-2.8439,0.0472,-0.1130,5.3527,-7.3097,-3.7506,1.8573,-1.4547,2.1265
2.4100,-4.2282,-0.1601,0.4953,5.5631,-7.1291,-3.7921,1.6967,-1.7120,2.0178
2.4200,-4.9335,-0.0419,0.8703,5.7746,-6.9526,-3.8035,1.6390,-2.0145,1.9508
2.4300,-4.4196,0.6479,1.5107,5.9890,-6.7760,-3.7905,1.5921,-2.1743,1.9405
2.4400,-4.0043,1.2057,1.7134,6.2030,-6.5975,-3.7613,1.5740,-2.2380,1.9241
2.4500,-4.2517,1.4617,1.3829,6.4102,-6.4187,-3.7232,1.6040,-2.2315,1.8213
2.4600,-4.3478,1.6750,1.3325,6.6020,-6.2456,-3.6824,1.6190,-2.1515,1.6353
2.4700,-4.1134,2.0387,1.4679,6.7757,-6.0822,-3.6404,1.5766,-2.0466,1.4766
2.4800,-3.8637,2.4496,1.5524,6.9344,-5.9286,-3.5952,1.4856,-1.9558,1.3637
2.4900,-3.8039,2.7696,1.7156,7.0798,-5.7857,-3.5444,1.3502,-1.8496,1.2456
2.5000,-3.8834,2.9834,1.8638,7.2104,-5.6560,-3.4902,1.2132,-1.7118,1.1030
2.5100,-3.8880,3.0504,2.1268,7.3255,-5.5411,-3.4346,1.0816,-1.5809,0.9490
2.5200,-3.5407,2.9871,2.5079,7.4251,-5.4411,-3.3805,0.9741,-1.4046,0.7994
2.5300,-3.1998,2.9174,2.7498,7.5087,-5.3552,-3.3329,0.8930,-1.2141,0.6501
2.5400,-3.1409,2.8783,3.1057,7.5773,-5.2836,-3.2919,0.8039,-1.0603,0.4942
2.5500,-3.0291,2.7870,3.3609,7.6314,-5.2268,-3.2575,0.7303,-0.8984,0.3291
2.5600,-2.7134,2.7081,3.3713,7.6701,-5.1849,-3.2336,0.6813,-0.6846,0.1589
2.5700,-2.3746,2.7581,3.4167,7.6930,-5.1578,-3.2227,0.6241,-0.4570,0.0029
2.5800,-2.0368,2.8614,3.3110,7.7007,-5.1435,-3.2271,0.5767,-0.2170,-0.1305
2.5900,-1.6107,2.9177,3.0786,7.6932,-5.1399,-3.2505,0.5606,0.0545,-0.2544
2.6000,-1.2747,2.8342,2.8638,7.6710,-5.1461,-3.2930,0.5356,0.3043,-0.3698
2.6100,-0.9176,2.6676,2.5799,7.6351,-5.1615,-3.3515,0.4996,0.5144,-0.4812
2.6200,-0.4968,2.7524,2.1762,7.5864,-5.1865,-3.4227,0.4630,0.6921,-0.6010
2.6300,-0.0449,3.0681,1.7393,7.5253,-5.2219,-3.5026,0.4097,0.8027,-0.7321
2.6400,0.4496,3.3772,1.3707,7.4527,-5.2690,-3.5861,0.3203,0.8989,-0.8695
2.6500,1.0993,3.6450,1.0995,7.3678,-5.3290,-3.6719,0.1895,1.0398,-0.9838
2.6600,2.1627,3.7661,0.6973,7.2719,-5.3984,-3.7605,0.0540,1.1896,-1.0061
2.6700,4.2696,3.2586,-0.0696,7.1739,-5.4656,-3.8505,-0.0121,1.2360,-0.8387
2.6800,6.1321,2.1995,-0.6223,7.0869,-5.5210,-3.9321,-0.0514,1.0516,-0.7105
2.6900,4.2747,0.7253,-0.4768,7.0077,-5.5807,-3.9893,-0.1698,0.7217,-0.8952
2.7000,0.6599,-1.0958,-0.7414,6.9264,-5.6632,-4.0149,-0.2901,0.3841,-1.1820
2.7100,-1.1120,-2.8032,-1.8416,6.8443,-5.7629,-4.0138,-0.3374,0.1356,-1.3080
2.7200,0.2141,-3.7346,-2.0438,6.7628,-5.8679,-3.9998,-0.4256,0.1355,-1.3149
2.7300,1.9939,-3.8620,-1.3743,6.6717,-5.9799,-3.9868,-0.6166,0.3765,-1.4056
2.7400,1.3659,-4.5165,-1.0423,6.5625,-6.1073,-3.9746,-0.8108,0.5606,-1.5514
2.7500,0.4363,-5.0639,-0.7804,6.4401,-6.2456,-3.9597,-0.8981,0.6357,-1.6168
2.7600,0.0255,-4.2819,-0.1405,6.3112,-6.3848,-3.9452,-0.8873,0.6645,-1.6157
2.7700,-0.2364,-2.9039,0.7797,6.1805,-6.5199,-3.9310,-0.8505,0.6705,-1.5967
2.7800,-0.6400,-1.6563,1.7454,6.0464,-6.6512,-3.9197,-0.8376,0.7845,-1.5965
2.7900,-1.1545,-0.6198,2.5908,5.9025,-6.7819,-3.9149,-0.8781,0.9892,-1.6420
2.8000,-1.7110,0.3009,3.0730,5.7428,-6.9170,-3.9159,-0.9650,1.2090,-1.7441
2.8100,-1.9029,0.8827,3.2704,5.5652,-7.0587,-3.9191,-1.0877,1.4387,-1.8142
2.8200,-1.8354,0.8824,3.1588,5.3742,-7.2039,-3.9212,-1.2197,1.6551,-1.8033
2.8300,-1.8938,0.5407,2.9784,5.1750,-7.3492,-3.9197,-1.3563,1.8415,-1.7579
2.8400,-2.1070,0.1413,2.8116,4.9701,-7.4942,-3.9103,-1.4995,1.9533,-1.7287
2.8500,-2.4872,-0.2640,2.3867,4.7618,-7.6401,-3.8868,-1.6271,1.9464,-1.7344
2.8600,-2.7072,-0.7857,1.9331,4.5525,-7.7870,-3.8460,-1.7356,1.8909,-1.7402
2.8700,-2.6707,-1.5044,1.5322,4.3440,-7.9327,-3.7889,-1.8077,1.8255,-1.7276
2.8800,-2.6186,-2.2670,1.0501,4.1384,-8.0744,-3.7191,-1.8152,1.7524,-1.7021
2.8900,-2.5788,-2.8289,0.6114,3.9374,-8.2089,-3.6423,-1.7581,1.6737,-1.6535
2.9000,-2.3974,-2.9837,0.4602,3.7443,-8.3335,-3.5622,-1.6801,1.5717,-1.5705
2.9100,-2.4242,-2.9236,0.3491,3.5634,-8.4475,-3.4785,-1.5935,1.3768,-1.4731
2.9200,-2.3610,-2.9939,-0.1832,3.3991,-8.5504,-3.3908,-1.4870,1.1300,-1.3538
2.9300,-1.7223,-3.1543,-1.0368,3.2542,-8.6411,-3.3021,-1.3516,0.9076,-1.2062
2.9400,-1.1725,-3.0695,-1.8936,3.1288,-8.7192,-3.2171,-1.1830,0.6999,-1.0665
2.9500,-0.8438,-2.5232,-2.4119,3.0199,-8.7857,-3.1397,-1.0123,0.5424,-0.9669
2.9600,-0.6028,-1.7459,-2.5761,2.9211,-8.8431,-3.0713,-0.8668,0.4438,-0.9224
2.9700,-0.5760,-0.9483,-2.5518,2.8265,-8.8946,-3.0106,-0.7672,0.3675,-0.9225
2.9800,-0.5089,-0.0633,-2.2305,2.7332,-8.9429,-2.9533,-0.7299,0.3137,-0.9331
2.9900,-0.3580,0.7304,-1.6299,2.6405,-8.9895,-2.8955,-0.7328,0.2871,-0.9274
3.0000,-0.4231,1.0479,-1.1751,2.5498,-9.0344,-2.8365,-0.7189,0.2442,-0.9028
3.0100,-0.6487,0.9706,-1.1317,2.4631,-9.0761,-2.7793,-0.6421,0.1704,-0.8731
3.0200,-0.9551,0.7818,-1.3672,2.3803,-9.1131,-2.7301,-0.4908,0.0694,-0.8668
3.0300,-1.6113,0.6155,-1.7031,2.2992,-9.1445,-2.6946,-0.2764,-0.0761,-0.9069
3.0400,-2.2564,0.5961,-2.0010,2.2160,-9.1704,-2.6761,-0.0614,-0.1956,-0.9876
3.0500,-2.5531,0.8693,-1.9696,2.1257,-9.1929,-2.6722,0.0632,-0.2325,-1.0992
3.0600,-2.4629,1.5406,-1.5300,2.0241,-9.2150,-2.6747,0.0617,-0.1162,-1.1995
3.0700,-1.4692,2.3101,-0.8075,1.9088,-9.2384,-2.6784,0.0033,0.2324,-1.2528
3.0800,-0.4648,2.8364,-0.3436,1.7782,-9.2623,-2.6858,-0.0034,0.6250,-1.3087
3.0900,-0.1992,3.0477,-0.2908,1.6317,-9.2847,-2.7013,0.0702,0.8615,-1.3996
3.1000,-0.1590,2.9180,-0.2020,1.4711,-9.3037,-2.7277,0.2030,0.9287,-1.5082
3.1100,-0.0866,2.4922,-0.1857,1.3001,-9.3173,-2.7675,0.3819,0.8705,-1.6047
3.1200,0.1054,1.9773,-0.4250,1.1256,-9.3237,-2.8219,0.5762,0.6089,-1.6583
3.1300,0.4676,1.5266,-0.4266,0.9600,-9.3223,-2.8872,0.7101,0.1988,-1.6120
3.1400,1.6260,1.0961,0.1427,0.8165,-9.3145,-2.9562,0.7424,-0.1185,-1.4154
3.1500,2.5931,0.7032,0.4524,0.7031,-9.3024,-3.0229,0.7155,-0.3128,-1.1519
3.1600,2.5455,0.4269,0.2103,0.6170,-9.2882,-3.0849,0.6611,-0.3662,-0.9299
3.1700,2.4274,0.3278,0.1506,0.5479,-9.2741,-3.1401,0.5536,-0.2845,-0.7788
3.1800,2.4400,0.2788,0.5010,0.4897,-9.2631,-3.1819,0.3618,-0.2720,-0.6448
3.1900,2.8736,0.2230,0.8712,0.4509,-9.2579,-3.2029,0.1222,-0.4461,-0.4087
3.2000,3.9492,0.2262,0.9120,0.4475,-9.2584,-3.2018,-0.0809,-0.6289,-0.0335
3.2100,4.7643,0.0981,0.5242,0.4820,-9.2620,-3.1864,-0.1641,-0.6077,0.3197
3.2200,4.5810,-0.0924,-0.2941,0.5373,-9.2640,-3.1717,-0.0787,-0.3800,0.4995
3.2300,3.6178,-0.2722,-1.1348,0.5929,-9.2606,-3.1717,0.1083,-0.0606,0.5252
3.2400,2.4837,-0.2250,-1.3269,0.6361,-9.2513,-3.1904,0.2692,0.2544,0.4656
3.2500,1.2821,0.1489,-1.2781,0.6646,-9.2380,-3.2230,0.3765,0.4101,0.3880
3.2600,0.1742,0.6080,-1.3649,0.6853,-9.2224,-3.2629,0.4160,0.3413,0.3327
3.2700,-0.6701,1.0853,-1.2294,0.7056,-9.2074,-3.3009,0.3565,0.1220,0.2699
3.2800,-1.2198,1.3974,-1.1250,0.7261,-9.1960,-3.3283,0.2304,-0.1119,0.1687
3.2900,-1.3044,1.4899,-0.9848,0.7404,-9.1901,-3.3413,0.0734,-0.1799,0.0186
3.3000,-1.3144,1.3455,-0.6635,0.7372,-9.1911,-3.3393,-0.0940,-0.0932,-0.1995
3.3100,-1.5915,0.7929,-0.5161,0.7075,-9.1995,-3.3224,-0.2651,0.0361,-0.4689
3.3200,-1.7937,-0.2068,-0.6121,0.6475,-9.2152,-3.2908,-0.4281,0.1799,-0.7475
3.3300,-1.7178,-1.4073,-0.9223,0.5577,-9.2363,-3.2475,-0.5275,0.3299,-1.0056
3.3400,-1.6606,-2.5799,-1.3341,0.4407,-9.2591,-3.2002,-0.5194,0.4423,-1.2310
3.3500,-1.5057,-3.4136,-1.5080,0.3030,-9.2798,-3.1556,-0.4759,0.4773,-1.3943
3.3600,-0.9897,-3.4233,-0.9504,0.1548,-9.2982,-3.1119,-0.4934,0.4561,-1.4441
3.3700,-0.1991,-3.1817,-0.2541,0.0102,-9.3154,-3.0639,-0.5365,0.3940,-1.3436
3.3800,0.5220,-3.7397,-0.2876,-0.1160,-9.3311,-3.0138,-0.5188,0.3266,-1.1050
3.3900,1.2214,-4.8784,-0.8145,-0.2151,-9.3442,-2.9679,-0.4451,0.3414,-0.7923
3.4000,1.8409,-5.9446,-1.3244,-0.2870,-9.3551,-2.9273,-0.4098,0.4018,-0.5147
3.4100,2.4299,-6.9526,-1.6112,-0.3376,-9.3665,-2.8851,-0.4662,0.5271,-0.2746
3.4200,3.0944,-7.8881,-1.9773,-0.3648,-9.3778,-2.8448,-0.5191,0.7030,-0.0344
3.4300,3.3784,-8.2871,-2.2521,-0.3713,-9.3829,-2.8273,-0.5231,0.7772,0.0795
3.4400,3.5805,-8.7140,-2.8659,-0.3729,-9.3955,-2.7848,-0.4842,0.8640,0.3661
3.4500,3.2640,-7.7740,-3.1393,-0.3456,-9.4094,-2.7409,-0.3669,0.7513,0.6904
3.4600,2.9049,-5.7604,-2.8142,-0.2844,-9.4200,-2.7112,-0.2106,0.4487,0.9484
3.4700,2.8606,-3.9096,-2.3418,-0.1908,-9.4261,-2.6981,-0.0476,0.0949,1.1829
3.4800,3.0342,-2.4878,-1.7688,-0.0646,-9.4273,-2.6996,0.0733,-0.2068,1.4464
3.4900,2.9743,-1.3363,-1.1285,0.0935,-9.4242,-2.7090,0.1217,-0.4250,1.6996
3.5000,2.5834,-0.3147,-0.7640,0.2782,-9.4174,-2.7197,0.1204,-0.5818,1.9009
3.5100,2.2318,0.4979,-0.7591,0.4833,-9.4067,-2.7276,0.0979,-0.7012,2.0586
3.5200,2.1246,0.9383,-0.9739,0.7055,-9.3915,-2.7310,0.0688,-0.8123,2.2029
3.5300,2.2355,0.8850,-1.1826,0.9437,-9.3711,-2.7289,0.0332,-0.8390,2.3612
3.5400,2.3364,0.3792,-1.2576,1.1941,-9.3442,-2.7229,0.0213,-0.7214,2.4923
3.5500,2.1620,-0.1326,-1.2862,1.4456,-9.3093,-2.7206,0.1094,-0.4533,2.5000
3.5600,1.7601,-0.4552,-1.2937,1.6807,-9.2653,-2.7361,0.3182,-0.0766,2.3597
3.5700,1.1816,-0.7468,-1.1172,1.8878,-9.2129,-2.7783,0.5452,0.2424,2.1495
3.5800,0.3651,-0.9557,-0.7727,2.0685,-9.1545,-2.8422,0.6837,0.3782,1.9658
3.5900,-0.4476,-1.1135,-0.3972,2.2319,-9.0931,-2.9149,0.7080,0.3696,1.8426
3.6000,-1.0896,-1.3708,-0.0421,2.3858,-9.0311,-2.9850,0.6475,0.3167,1.7628
3.6100,-1.5338,-1.7038,0.3560,2.5341,-8.9700,-3.0463,0.5405,0.2872,1.7196
3.6200,-1.5385,-1.8910,1.0005,2.6793,-8.9103,-3.0970,0.3946,0.3446,1.7298
3.6300,-1.5290,-1.8369,1.8131,2.8227,-8.8527,-3.1348,0.2101,0.4143,1.7477
3.6400,-1.8462,-2.0461,1.9157,2.9650,-8.7969,-3.1604,0.1144,0.3806,1.7431
3.6500,-1.7768,-1.9586,1.1757,3.1086,-8.7391,-3.1825,0.1677,0.3075,1.7716
3.6600,-1.7619,-1.1016,0.5262,3.2577,-8.6742,-3.2107,0.3403,0.0881,1.7804
3.6700,-2.9639,-0.5468,-0.1997,3.4129,-8.6006,-3.2473,0.6283,-0.3857,1.6731
3.6800,-3.8549,-0.5447,-0.9360,3.5714,-8.5185,-3.2928,0.9666,-0.8930,1.5152
3.6900,-3.4947,-1.0311,-1.3261,3.7318,-8.4271,-3.3493,1.2920,-1.2355,1.4119
3.7000,-2.6402,-1.6787,-1.4374,3.8926,-8.3249,-3.4209,1.5776,-1.3053,1.3703
3.7100,-2.2287,-1.7886,-1.2432,4.0498,-8.2119,-3.5102,1.7690,-1.2214,1.3469
3.7200,-2.2447,-1.4148,-0.6533,4.2040,-8.0910,-3.6083,1.8269,-1.2040,1.3700
3.7300,-2.1444,-0.9801,0.0724,4.3635,-7.9638,-3.7008,1.7964,-1.3206,1.4460
3.7400,-2.0669,-0.6937,0.4623,4.5350,-7.8303,-3.7784,1.7380,-1.4738,1.5494
3.7500,-1.2974,-0.5051,0.5625,4.7195,-7.6890,-3.8419,1.6970,-1.5239,1.6948
3.7600,-0.4039,-0.3210,0.4716,4.9131,-7.5379,-3.8981,1.6544,-1.4603,1.8368
3.7700,-0.9134,0.0562,0.5993,5.1102,-7.3806,-3.9454,1.5718,-1.4902,1.8615
3.7800,-2.3031,0.5896,0.9953,5.3066,-7.2246,-3.9751,1.4610,-1.6218,1.7873
3.7900,-3.1264,0.9480,1.2974,5.4996,-7.0729,-3.9855,1.4004,-1.7613,1.6985
3.8000,-3.5837,0.8735,1.6023,5.6893,-6.9235,-3.9816,1.4037,-1.8617,1.6200
3.8100,-3.9680,0.7493,2.0522,5.8730,-6.7758,-3.9691,1.3885,-1.8638,1.5340
3.8200,-4.2030,1.0438,2.2821,6.0478,-6.6323,-3.9491,1.3455,-1.8785,1.4382
3.8300,-4.1043,1.2902,2.2927,6.2136,-6.4942,-3.9211,1.2727,-1.8293,1.3618
3.8400,-3.8019,1.4941,2.3298,6.3687,-6.3625,-3.8884,1.1740,-1.7093,1.2792
3.8500,-3.8515,1.7149,2.2109,6.5110,-6.2396,-3.8518,1.0738,-1.6383,1.1619
3.8600,-3.8871,1.9069,1.8689,6.6416,-6.1270,-3.8095,0.9801,-1.5815,1.0470
3.8700,-3.5537,2.2929,1.6324,6.7617,-6.0240,-3.7623,0.9012,-1.5249,0.9489
3.8800,-3.4533,2.6044,1.7118,6.8722,-5.9306,-3.7102,0.8253,-1.5129,0.8312
3.8900,-3.5393,2.7845,1.8677,6.9741,-5.8476,-3.6515,0.7522,-1.5064,0.7186
3.9000,-3.3263,2.9068,2.0288,7.0668,-5.7743,-3.5895,0.6905,-1.4394,0.6156
3.9100,-3.0913,2.9484,2.1755,7.1488,-5.7102,-3.5293,0.6504,-1.3204,0.5064
3.9200,-2.8152,2.9779,2.2899,7.2178,-5.6553,-3.4769,0.6288,-1.1302,0.3906
3.9300,-2.4999,3.1821,2.4339,7.2713,-5.6100,-3.4388,0.6111,-0.8749,0.2605
3.9400,-2.2530,3.4795,2.5371,7.3068,-5.5754,-3.4197,0.6019,-0.5638,0.1113
3.9500,-1.9179,3.5255,2.5862,7.3215,-5.5528,-3.4253,0.6097,-0.2090,-0.0664
3.9600,-1.6816,3.2979,2.5219,7.3142,-5.5433,-3.4560,0.6225,0.0962,-0.2531
3.9700,-1.5740,2.9345,2.2694,7.2879,-5.5462,-3.5064,0.6261,0.3175,-0.4179
3.9800,-1.5550,2.5120,2.0134,7.2468,-5.5598,-3.5695,0.6126,0.4477,-0.5546
3.9900,-1.6097,2.1689,1.8941,7.1956,-5.5822,-3.6374,0.5759,0.4907,-0.6555
4.0000,-1.5409,1.9718,1.8423,7.1390,-5.6118,-3.7029,0.5100,0.4672,-0.7195
4.0100,-1.1445,1.8700,1.7675,7.0813,-5.6464,-3.7604,0.4352,0.3908,-0.7362
4.0200,-0.0192,1.8053,1.5016,7.0289,-5.6809,-3.8068,0.3812,0.2587,-0.6569
4.0300,1.8954,1.7560,0.9085,6.9892,-5.7068,-3.8410,0.3560,0.1190,-0.4705
4.0400,3.7889,1.5526,0.1382,6.9646,-5.7195,-3.8667,0.3610,0.0462,-0.2995
4.0500,4.0300,1.3474,-0.4952,6.9427,-5.7267,-3.8954,0.3800,0.2051,-0.3630
4.0600,2.2840,1.8468,-0.1633,6.8956,-5.7494,-3.9450,0.2819,0.6886,-0.6950
4.0700,0.9431,2.9256,1.6672,6.8080,-5.8032,-4.0172,0.0446,1.0906,-1.0504
4.0800,0.6770,3.5342,3.5349,6.6949,-5.8860,-4.0862,-0.1928,1.0098,-1.2794
4.0900,0.4413,2.8469,4.4809,6.5837,-5.9870,-4.1202,-0.4000,0.5076,-1.3597
4.1000,0.4418,1.0617,4.3204,6.4891,-6.0971,-4.1088,-0.5871,0.1217,-1.3712
4.1100,0.6619,-0.9925,2.1105,6.3951,-6.2139,-4.0810,-0.6983,0.3352,-1.4197
4.1200,1.5420,-2.7309,-1.0395,6.2795,-6.3351,-4.0739,-0.7537,0.8810,-1.4355
4.1300,2.7330,-4.2705,-2.6902,6.1443,-6.4569,-4.0887,-0.8438,1.2013,-1.4164
4.1400,2.3211,-6.0347,-3.0479,6.0008,-6.5815,-4.1031,-0.9935,1.2172,-1.4264
4.1500,0.9908,-7.4476,-2.7541,5.8598,-6.7091,-4.1003,-1.1309,1.0661,-1.3580
4.1600,0.4312,-7.4768,-1.6687,5.7346,-6.8305,-4.0770,-1.1471,0.8189,-1.1812
4.1700,0.2458,-5.9059,-0.2786,5.6282,-6.9390,-4.0421,-1.0630,0.6681,-1.0407
4.1800,0.2146,-3.7389,1.0192,5.5293,-7.0371,-4.0090,-0.9674,0.7128,-1.0016
4.1900,0.0576,-1.8883,1.8911,5.4250,-7.1308,-3.9858,-0.9053,0.8686,-1.0476
4.2000,-0.3777,-0.4693,2.3626,5.3078,-7.2254,-3.9731,-0.8935,1.0697,-1.1318
4.2100,-0.8189,0.4666,2.6023,5.1744,-7.3237,-3.9689,-0.9314,1.3061,-1.2222
4.2200,-1.3580,0.9429,2.6902,5.0233,-7.4276,-3.9696,-1.0174,1.5319,-1.3240
4.2300,-1.8680,1.1072,2.7117,4.8546,-7.5394,-3.9686,-1.1656,1.7234,-1.4298
4.2400,-2.2463,1.1017,2.5532,4.6703,-7.6602,-3.9581,-1.3410,1.8292,-1.5306
4.2500,-2.6172,0.9218,2.2352,4.4747,-7.7893,-3.9319,-1.5149,1.8462,-1.6196
4.2600,-2.7382,0.4989,1.9647,4.2717,-7.9247,-3.8866,-1.6846,1.8563,-1.6737
4.2700,-2.5165,-0.0832,1.6747,4.0638,-8.0633,-3.8239,-1.8193,1.8929,-1.6911
4.2800,-2.5324,-0.7500,1.2860,3.8528,-8.2016,-3.7474,-1.8992,1.9100,-1.6977
4.2900,-2.9242,-1.6688,0.8082,3.6411,-8.3371,-3.6591,-1.9115,1.8173,-1.7158
4.3000,-3.2220,-2.6477,0.3257,3.4336,-8.4667,-3.5609,-1.8550,1.6098,-1.7097
4.3100,-3.2115,-3.2373,-0.0533,3.2363,-8.5870,-3.4561,-1.7416,1.3288,-1.6730
4.3200,-3.0315,-3.3607,-0.3917,3.0521,-8.6968,-3.3478,-1.6109,1.0258,-1.6363
4.3300,-2.6224,-3.4459,-0.9705,2.8807,-8.7958,-3.2393,-1.4584,0.7690,-1.5834
4.3400,-2.2026,-3.7866,-2.1071,2.7218,-8.8828,-3.1383,-1.2223,0.5502,-1.5136
4.3500,-1.8591,-4.1516,-3.6265,2.5749,-8.9555,-3.0549,-0.8988,0.3561,-1.4493
4.3600,-1.3465,-4.3246,-4.9775,2.4377,-9.0130,-2.9982,-0.5130,0.2311,-1.3960
4.3700,-0.5989,-3.8629,-5.7615,2.3063,-9.0554,-2.9744,-0.1391,0.2326,-1.3509
4.3800,0.2108,-2.0286,-5.4201,2.1760,-9.0861,-2.9789,0.0759,0.3282,-1.3259
4.3900,0.8222,0.3798,-4.0619,2.0433,-9.1111,-2.9964,0.1050,0.4858,-1.3100
4.4000,1.2140,1.5214,-2.6921,1.9070,-9.1342,-3.0159,0.0760,0.6649,-1.2748
4.4100,1.1987,1.2135,-1.8352,1.7703,-9.1547,-3.0370,0.1010,0.7578,-1.2179
4.4200,0.6091,0.6011,-1.3249,1.6397,-9.1710,-3.0610,0.1589,0.6072,-1.1536
4.4300,-0.0225,0.3698,-0.7763,1.5222,-9.1831,-3.0856,0.2055,0.3222,-1.0858
4.4400,-0.0225,0.4302,-0.0964,1.4180,-9.1921,-3.1085,0.2103,0.1252,-1.0263
4.4500,-0.0253,0.7571,0.5462,1.3230,-9.2002,-3.1264,0.1525,0.0110,-0.9858
4.4600,-0.2990,1.1955,0.9617,1.2338,-9.2092,-3.1365,0.0694,-0.0366,-0.9530
4.4700,-0.5803,1.3325,0.8087,1.1486,-9.2191,-3.1396,0.0179,-0.0673,-0.9238
4.4800,-0.7100,1.4164,0.3160,1.0668,-9.2288,-3.1399,0.0160,-0.1110,-0.9021
4.4900,-0.3790,1.9288,0.1164,0.9868,-9.2374,-3.1408,0.0233,-0.0769,-0.8929
4.5000,0.0115,2.5624,0.2113,0.9036,-9.2451,-3.1434,0.0319,0.0875,-0.9033
4.5100,-0.1226,3.0631,0.1302,0.8116,-9.2516,-3.1491,0.0631,0.2690,-0.9641
4.5200,-0.6612,3.5116,-0.0963,0.7058,-9.2566,-3.1598,0.1183,0.3628,-1.0956
4.5300,-1.2573,3.6137,-0.2080,0.5838,-9.2589,-3.1777,0.2216,0.3584,-1.2800
4.5400,-1.6976,3.4061,-0.1782,0.4440,-9.2568,-3.2062,0.3519,0.3728,-1.4738
4.5500,-1.4802,3.1368,0.3407,0.2857,-9.2497,-3.2442,0.4227,0.4458,-1.6370
4.5600,-1.0149,2.7208,1.0516,0.1144,-9.2393,-3.2841,0.4061,0.4067,-1.7281
4.5700,-0.5645,2.3221,1.5376,-0.0543,-9.2276,-3.3183,0.3180,0.1424,-1.6784
4.5800,0.2448,2.0724,1.9264,-0.1978,-9.2177,-3.3410,0.1538,-0.2766,-1.4412
4.5900,1.3865,1.7738,2.2582,-0.2996,-9.2132,-3.3460,-0.0748,-0.5989,-1.0804
4.6000,2.4933,1.4018,2.0653,-0.3607,-9.2162,-3.3319,-0.2699,-0.6804,-0.7174
4.6100,3.3002,1.0069,1.2555,-0.3913,-9.2250,-3.3041,-0.3695,-0.5693,-0.4051
4.6200,3.7057,0.3795,0.4082,-0.4024,-9.2367,-3.2697,-0.4033,-0.3384,-0.1790
4.6300,3.4875,-0.5918,-0.2420,-0.4062,-9.2495,-3.2330,-0.4027,-0.0547,-0.0532
4.6400,2.9123,-1.5612,-0.6356,-0.4103,-9.2620,-3.1963,-0.3759,0.2167,0.0165
4.6500,2.2032,-2.1673,-0.8612,-0.4176,-9.2735,-3.1619,-0.3279,0.4263,0.0425
4.6600,1.5237,-2.4475,-1.2232,-0.4304,-9.2830,-3.1322,-0.2568,0.5739,0.0173
4.6700,0.9648,-2.2918,-1.6787,-0.4512,-9.2900,-3.1084,-0.1971,0.6475,-0.0537
4.6800,0.6075,-1.8216,-1.8962,-0.4808,-9.2953,-3.0881,-0.1731,0.6429,-0.1474
4.6900,0.4162,-1.5829,-1.9536,-0.5173,-9.2996,-3.0691,-0.1697,0.5546,-0.2336
4.7000,0.2676,-1.6531,-1.8377,-0.5568,-9.3036,-3.0500,-0.1888,0.3927,-0.2915
4.7100,0.5294,-1.7837,-1.5095,-0.5946,-9.3083,-3.0284,-0.2402,0.2394,-0.3087
4.7200,1.4077,-1.6631,-0.9097,-0.6297,-9.3152,-3.0001,-0.3423,0.2050,-0.2981
4.7300,2.4309,-1.3368,-0.4255,-0.6627,-9.3253,-2.9614,-0.4453,0.2621,-0.2561
4.7400,2.7800,-1.3772,-0.8014,-0.6927,-9.3374,-2.9159,-0.4763,0.3044,-0.2059
4.7500,2.3057,-1.7872,-1.5800,-0.7197,-9.3497,-2.8696,-0.4615,0.3024,-0.1881
4.7600,1.6533,-1.9550,-1.9730,-0.7459,-9.3616,-2.8238,-0.4661,0.3253,-0.1794
4.7700,1.0829,-2.1032,-2.2397,-0.7729,-9.3736,-2.7761,-0.4830,0.4313,-0.1746
4.7800,0.3209,-2.8390,-2.7042,-0.8049,-9.3855,-2.7264,-0.4820,0.6052,-0.2092
4.7900,-0.2698,-3.8881,-3.0648,-0.8462,-9.3967,-2.6750,-0.4835,0.8176,-0.2540
4.8000,-0.1949,-4.7630,-3.1318,-0.8950,-9.4074,-2.6207,-0.4858,1.0282,-0.2474
4.8100,0.2806,-5.5932,-3.4956,-0.9427,-9.4174,-2.5677,-0.4110,1.0992,-0.1571
4.8200,0.6079,-6.0714,-4.0334,-0.9770,-9.4253,-2.5256,-0.2626,0.9499,0.0022
4.8300,0.8173,-5.4839,-3.9250,-0.9881,-9.4313,-2.4990,-0.1326,0.6588,0.1970
4.8400,1.1689,-4.2683,-3.2726,-0.9717,-9.4362,-2.4867,-0.0308,0.2946,0.4016
4.8500,1.7898,-3.3247,-2.5430,-0.9259,-9.4404,-2.4882,0.0885,-0.0620,0.6268
4.8600,2.4055,-2.6801,-1.8222,-0.8484,-9.4434,-2.5040,0.1925,-0.4192,0.8808
4.8700,2.7949,-1.9751,-1.0833,-0.7370,-9.4461,-2.5286,0.2157,-0.7728,1.1472
4.8800,3.1892,-1.1994,-0.6180,-0.5914,-9.4495,-2.5538,0.1851,-1.0558,1.4228
4.8900,3.5446,-0.5519,-0.6847,-0.4131,-9.4527,-2.5763,0.1740,-1.2665,1.6944
4.9000,3.7454,-0.2251,-1.1911,-0.2054,-9.4531,-2.5991,0.2278,-1.4067,1.9371
4.9100,3.9828,-0.1990,-1.7534,0.0258,-9.4474,-2.6272,0.3432,-1.4206,2.1347
4.9200,4.4741,-0.4408,-2.0751,0.2713,-9.4328,-2.6652,0.4998,-1.2237,2.2806
4.9300,4.8827,-0.8698,-1.9419,0.5202,-9.4077,-2.7163,0.6546,-0.8207,2.3837
4.9400,4.8564,-1.2465,-1.3855,0.7652,-9.3724,-2.7798,0.7499,-0.2797,2.4842
4.9500,4.2017,-1.5775,-0.6685,1.0032,-9.3281,-2.8521,0.7640,0.3155,2.5893
4.9600,2.8084,-1.8200,0.1396,1.2319,-9.2769,-2.9286,0.7120,0.8512,2.6662
4.9700,0.8942,-1.9280,0.9713,1.4496,-9.2214,-3.0036,0.5908,1.1828,2.6672
4.9800,-1.1960,-2.0454,1.6487,1.6555,-9.1644,-3.0710,0.4530,1.2587,2.5996
4.9900,-2.7326,-2.4436,1.7576,1.8535,-9.1063,-3.1304,0.3861,1.1329,2.5299
5.0000,-3.5808,-2.5517,1.9665,2.0487,-9.0460,-3.1832,0.3343,0.8803,2.4444
5.0100,-4.1731,-2.0681,2.7492,2.2409,-8.9855,-3.2248,0.2341,0.5933,2.3145
5.0200,-4.6284,-1.6161,3.2332,2.4267,-8.9274,-3.2517,0.1340,0.3092,2.1257
5.0300,-5.4226,-1.0903,3.4118,2.6003,-8.8745,-3.2625,0.0444,-0.0664,1.8369
5.0400,-5.0252,-0.8858,3.2240,2.7611,-8.8265,-3.2609,0.0541,-0.2997,1.6520
5.0500,-3.3010,-1.4016,1.9172,2.9165,-8.7742,-3.2667,0.3272,-0.3716,1.6169
5.0600,-2.8253,-1.3491,0.1424,3.0704,-8.7085,-3.3010,0.7862,-0.5786,1.5236
5.0700,-2.8375,-0.7304,-0.7183,3.2221,-8.6278,-3.3676,1.2614,-0.8252,1.4071
5.0800,-2.1835,-0.7849,-1.0609,3.3708,-8.5314,-3.4659,1.7162,-0.9492,1.3296
5.0900,-1.0585,-1.3524,-1.5234,3.5150,-8.4169,-3.5995,2.1415,-0.8011,1.3246
5.1000,-0.0866,-1.9341,-2.0256,3.6545,-8.2813,-3.7704,2.4806,-0.5242,1.4295
5.1100,0.4557,-2.1043,-2.0979,3.7987,-8.1238,-3.9649,2.6459,-0.4922,1.6257
5.1200,0.2050,-1.9542,-1.9495,3.9640,-7.9496,-4.1518,2.5700,-0.8148,1.8193
5.1300,-0.6105,-1.7258,-1.7556,4.1562,-7.7689,-4.3033,2.3124,-1.2145,1.9242
5.1400,-1.0847,-1.1451,-1.1844,4.3620,-7.5912,-4.4155,2.0107,-1.2911,1.9422
5.1500,-1.6969,-0.3446,-0.5622,4.5616,-7.4206,-4.5033,1.8163,-1.2145,1.8481
5.1600,-2.9184,0.1407,-0.1814,4.7503,-7.2565,-4.5752,1.7472,-1.3330,1.6959
5.1700,-3.7382,0.4543,0.6450,4.9354,-7.0969,-4.6293,1.6981,-1.5607,1.5901
5.1800,-3.9981,0.7291,1.6928,5.1249,-6.9397,-4.6617,1.6345,-1.8091,1.5594
5.1900,-4.3588,0.8789,2.2061,5.3227,-6.7827,-4.6710,1.5659,-2.0258,1.5595
5.2000,-4.2553,1.0450,2.5150,5.5248,-6.6254,-4.6620,1.5095,-2.0980,1.5506
5.2100,-3.8747,1.2367,2.8032,5.7237,-6.4695,-4.6411,1.4352,-2.0618,1.5196
5.2200,-3.4166,1.4706,3.0378,5.9141,-6.3173,-4.6121,1.3476,-1.9826,1.4716
5.2300,-3.0264,1.5539,3.0973,6.0941,-6.1694,-4.5780,1.2781,-1.8748,1.4215
5.2400,-3.0248,1.5875,3.1086,6.2628,-6.0266,-4.5405,1.1977,-1.7821,1.3395
5.2500,-3.2331,1.6961,3.0376,6.3944,-5.9135,-4.5059,1.1230,-1.7250,1.2551
5.2600,-3.3284,1.7302,2.9716,6.4447,-5.8703,-4.4908,1.0970,-1.7089,1.2228
5.2700,-3.4670,2.0166,2.9324,6.5650,-5.7667,-4.4505,1.0135,-1.6554,1.1343
5.2800,-3.5490,2.4876,3.1900,6.6992,-5.6526,-4.3968,0.8921,-1.5984,1.0148
5.2900,-3.6048,2.7150,3.5689,6.8229,-5.5512,-4.3355,0.7678,-1.5874,0.8965
5.3000,-3.5290,2.8144,3.8496,6.9375,-5.4629,-4.2653,0.6508,-1.5670,0.7660
5.3100,-3.2219,3.1198,3.9934,7.0389,-5.3895,-4.1920,0.5540,-1.4431,0.5875
5.3200,-2.8875,3.5262,4.0465,7.1222,-5.3335,-4.1226,0.4609,-1.2708,0.3922
5.3300,-2.5135,3.9062,4.0168,7.1863,-5.2950,-4.0606,0.3602,-1.0573,0.2148
5.3400,-2.0353,4.1694,3.8270,7.2302,-5.2726,-4.0117,0.2833,-0.7559,0.0442
5.3500,-1.6421,4.1397,3.6583,7.2521,-5.2649,-3.9821,0.2256,-0.4259,-0.1102
5.3600,-1.2494,3.9867,3.5445,7.2530,-5.2706,-3.9731,0.1485,-0.1008,-0.2498
5.3700,-0.7201,3.7740,3.0860,7.2340,-5.2898,-3.9822,0.0464,0.1969,-0.3833
5.3800,-0.0008,3.6471,2.2253,7.1973,-5.3226,-4.0048,-0.0763,0.4422,-0.5097
5.3900,0.3000,4.0490,1.5239,7.1436,-5.3718,-4.0351,-0.2516,0.6460,-0.6802
5.4000,0.5793,4.6130,1.1315,7.0706,-5.4403,-4.0714,-0.4134,0.8938,-0.8423
5.4100,2.7529,4.4578,0.5381,6.9805,-5.5187,-4.1209,-0.4506,1.1848,-0.8508
5.4200,5.2346,3.8756,0.2943,6.8784,-5.5986,-4.1844,-0.4821,1.3425,-0.9255
5.4300,3.2168,3.3102,0.8849,6.7636,-5.6956,-4.2399,-0.6102,1.1385,-1.2636
5.4400,-1.3082,2.0318,0.3939,6.6363,-5.8219,-4.2691,-0.6522,0.8423,-1.6685
5.4500,-3.2421,0.2358,-1.1730,6.4949,-5.9676,-4.2852,-0.5886,0.7897,-1.9081
5.4600,-0.7607,-1.2806,-1.7269,6.3404,-6.1186,-4.3035,-0.5968,0.9072,-1.9742
5.4700,2.5022,-3.0501,-2.1852,6.1718,-6.2737,-4.3251,-0.7235,1.0602,-2.0703
5.4800,1.8123,-6.0618,-3.1977,5.9863,-6.4394,-4.3419,-0.8977,1.1738,-2.1806
5.4900,0.0511,-9.7390,-3.6834,5.7919,-6.6085,-4.3514,-0.9840,1.2617,-2.1048
5.5000,-0.1186,-11.0213,-3.2719,5.6053,-6.7643,-4.3569,-0.9482,1.1712,-1.8307
5.5100,0.0267,-8.5460,-1.9266,5.4445,-6.8983,-4.3511,-0.8746,0.8628,-1.5633
5.5200,-0.2268,-4.8118,-0.2498,5.3082,-7.0156,-4.3321,-0.8166,0.6438,-1.4321
5.5300,-0.2245,-1.9260,1.2857,5.1799,-7.1244,-4.3099,-0.7912,0.7095,-1.3802
5.5400,-0.0880,-0.1047,2.6058,5.0460,-7.2288,-4.2948,-0.7959,0.9412,-1.3503
5.5500,-0.3859,1.0715,3.4774,4.9014,-7.3309,-4.2892,-0.8143,1.1859,-1.3474
5.5600,-0.6856,1.8512,3.9519,4.7451,-7.4326,-4.2898,-0.8505,1.3774,-1.3716
5.5700,-1.0096,2.1702,4.2280,4.5786,-7.5365,-4.2893,-0.9375,1.4423,-1.4281
5.5800,-1.6540,2.1378,4.3220,4.4055,-7.6462,-4.2763,-1.0831,1.3807,-1.5081
5.5900,-2.0310,1.9927,4.1559,4.2292,-7.7631,-4.2435,-1.2649,1.2890,-1.5620
5.6000,-2.1355,1.8198,3.8603,4.0528,-7.8868,-4.1871,-1.4836,1.1852,-1.5837
5.6100,-2.4718,1.5119,3.3345,3.8786,-8.0166,-4.1045,-1.6999,1.0631,-1.5991
5.6200,-2.7966,0.9128,2.5237,3.7072,-8.1506,-3.9975,-1.8766,0.9690,-1.5976
5.6300,-2.8492,0.0146,1.7712,3.5388,-8.2853,-3.8711,-2.0103,0.9344,-1.5654
5.6400,-2.7763,-1.2773,1.2377,3.3735,-8.4176,-3.7307,-2.1002,0.9343,-1.5224
5.6500,-2.7749,-2.6830,0.7895,3.2118,-8.5454,-3.5797,-2.1491,0.8827,-1.4818
5.6600,-2.6317,-3.6095,0.4100,3.0565,-8.6673,-3.4190,-2.1717,0.8002,-1.4167
5.6700,-1.9243,-3.9878,-0.0799,2.9099,-8.7810,-3.2531,-2.1382,0.8029,-1.3130
5.6800,-1.1041,-3.9169,-1.0658,2.7722,-8.8828,-3.0933,-1.9715,0.8507,-1.1970
5.6900,-0.9447,-3.9715,-2.8324,2.6422,-8.9694,-2.9547,-1.6032,0.8247,-1.1428
5.7000,-1.3816,-4.3599,-5.0635,2.5138,-9.0386,-2.8545,-1.0193,0.6762,-1.2199
5.7100,-1.6443,-4.3067,-6.5741,2.3794,-9.0899,-2.8066,-0.3587,0.4859,-1.3630
5.7200,-1.2198,-2.8252,-6.0144,2.2383,-9.1259,-2.8060,0.0832,0.3705,-1.4455
5.7300,-0.3175,-0.3516,-3.6493,2.0952,-9.1532,-2.8275,0.1812,0.3602,-1.4406
5.7400,0.5061,1.1194,-1.6409,1.9536,-9.1774,-2.8504,0.1355,0.4454,-1.3765
5.7500,0.8018,1.0635,-0.8815,1.8176,-9.1988,-2.8713,0.1245,0.5260,-1.2549
5.7600,0.4790,0.3599,-0.8874,1.6933,-9.2153,-2.8943,0.1870,0.4694,-1.1138
5.7700,-0.1059,-0.1439,-1.0004,1.5832,-9.2263,-2.9217,0.2567,0.3041,-1.0236
5.7800,-0.5445,-0.0701,-0.6626,1.4837,-9.2343,-2.9487,0.2423,0.1229,-0.9946
5.7900,-0.5800,0.2736,-0.2372,1.3896,-9.2423,-2.9695,0.1907,0.0207,-0.9948
5.8000,-0.1017,0.4535,-0.1002,1.2953,-9.2504,-2.9868,0.1744,0.1016,-1.0025
5.8100,0.4071,0.7462,0.1559,1.1950,-9.2581,-3.0046,0.1527,0.2892,-1.0308
5.8200,0.5798,1.1520,0.4770,1.0855,-9.2661,-3.0212,0.1177,0.4447,-1.0760
5.8300,0.6783,1.4607,0.4759,0.9691,-9.2735,-3.0380,0.1424,0.5551,-1.0902
5.8400,0.7765,1.8625,0.3985,0.8510,-9.2776,-3.0608,0.2360,0.6089,-1.0509
5.8500,0.4763,2.1307,0.2977,0.7383,-9.2769,-3.0922,0.3395,0.5025,-0.9882
5.8600,-0.2174,2.2675,0.1396,0.6376,-9.2717,-3.1300,0.4072,0.2500,-0.9153
5.8700,-0.5635,2.3890,0.1192,0.5523,-9.2638,-3.1696,0.4173,0.0458,-0.8185
5.8800,-0.1437,2.4099,0.4402,0.4801,-9.2551,-3.2064,0.3630,0.0051,-0.7254
5.8900,0.2470,2.4432,0.9125,0.4139,-9.2480,-3.2360,0.2669,0.0408,-0.6913
5.9000,0.0473,2.4125,1.1223,0.3487,-9.2438,-3.2557,0.1546,-0.0269,-0.7016
5.9100,0.2406,2.2117,1.2045,0.2885,-9.2427,-3.2647,0.0465,-0.2075,-0.6670
5.9200,0.9046,2.0327,1.1237,0.2399,-9.2441,-3.2649,-0.0269,-0.3478,-0.5770
5.9300,1.5969,1.8147,1.0897,0.2033,-9.2472,-3.2585,-0.0956,-0.3220,-0.4523
5.9400,2.1409,1.6220,1.1037,0.1770,-9.2524,-3.2452,-0.1766,-0.2254,-0.3023
5.9500,2.0310,1.5647,0.7399,0.1620,-9.2595,-3.2258,-0.2310,-0.1730,-0.1626
5.9600,1.8282,1.2564,0.1666,0.1565,-9.2672,-3.2038,-0.2360,-0.0692,-0.0560
5.9700,1.9304,0.6719,-0.2292,0.1529,-9.2747,-3.1822,-0.2293,0.1637,-0.0027
5.9800,1.7271,0.0139,-0.5942,0.1431,-9.2822,-3.1608,-0.2413,0.4284,-0.0089
5.9900,1.0266,-0.7025,-1.0205,0.1236,-9.2902,-3.1381,-0.2632,0.5896,-0.0695
6.0000,0.1081,-1.3598,-1.3884,0.0931,-9.2988,-3.1133,-0.2803,0.6183,-0.1760
6.0100,-0.4314,-1.6992,-1.7724,0.0521,-9.3079,-3.0871,-0.2879,0.5475,-0.3064
6.0200,-0.3423,-1.7721,-2.1330,0.0026,-9.3171,-3.0596,-0.3041,0.4234,-0.4271
6.0300,0.2601,-1.7933,-2.3000,-0.0532,-9.3268,-3.0294,-0.3429,0.3322,-0.5171
6.0400,1.0131,-1.9173,-2.2291,-0.1148,-9.3377,-2.9938,-0.4170,0.3226,-0.5861
6.0500,1.3731,-2.1803,-2.0733,-0.1830,-9.3507,-2.9496,-0.5117,0.3827,-0.6400
6.0600,1.5185,-2.3979,-2.0162,-0.2577,-9.3653,-2.8971,-0.5736,0.5307,-0.6601
6.0700,1.1797,-2.6226,-2.3062,-0.3377,-9.3799,-2.8409,-0.5747,0.6208,-0.6845
6.0800,0.2860,-2.9711,-2.9374,-0.4208,-9.3928,-2.7867,-0.5253,0.5405,-0.7243
6.0900,0.0930,-3.2183,-3.1400,-0.5037,-9.4034,-2.7369,-0.4842,0.5149,-0.7162
6.1000,0.8478,-3.4044,-2.5873,-0.5833,-9.4129,-2.6880,-0.4893,0.6524,-0.6184
6.1100,1.8265,-3.9580,-1.9569,-0.6527,-9.4232,-2.6357,-0.5129,0.8489,-0.4127
6.1200,2.4908,-4.9342,-1.6274,-0.7039,-9.4344,-2.5818,-0.4777,1.0155,-0.1489
6.1300,2.6422,-6.0255,-1.6516,-0.7324,-9.4450,-2.5349,-0.3474,1.0324,0.1064
6.1400,2.4600,-6.4553,-1.8188,-0.7355,-9.4537,-2.5014,-0.2120,0.8604,0.3334
6.1500,2.5125,-5.7637,-1.8051,-0.7119,-9.4611,-2.4801,-0.1225,0.6506,0.5633
6.1600,3.0433,-4.6010,-1.7799,-0.6601,-9.4679,-2.4683,-0.0373,0.5211,0.8310
6.1700,3.3380,-3.4760,-1.8249,-0.5796,-9.4736,-2.4664,0.0589,0.4067,1.0972
6.1800,3.0757,-2.3007,-1.6733,-0.4728,-9.4774,-2.4742,0.1355,0.2424,1.3055
6.1900,2.6106,-1.2451,-1.5333,-0.3450,-9.4790,-2.4892,0.1935,0.0656,1.4467
6.2000,2.3195,-0.4615,-1.6670,-0.2019,-9.4774,-2.5105,0.2585,-0.0820,1.5499
6.2100,2.4038,0.0797,-1.9736,-0.0456,-9.4717,-2.5393,0.3457,-0.1838,1.6575
6.2200,2.7317,0.3878,-2.2311,0.1232,-9.4609,-2.5764,0.4338,-0.2302,1.7753
6.2300,3.1575,0.3572,-2.2776,0.3038,-9.4445,-2.6210,0.5153,-0.2271,1.8983
6.2400,3.5897,-0.0150,-2.0727,0.4957,-9.4217,-2.6732,0.6052,-0.1743,2.0350
6.2500,3.8276,-0.5143,-1.7109,0.6991,-9.3912,-2.7341,0.6994,-0.0862,2.1913
6.2600,3.6495,-0.9988,-1.2493,0.9139,-9.3520,-2.8038,0.7735,0.0435,2.3539
6.2700,2.7697,-1.3881,-0.7305,1.1377,-9.3043,-2.8794,0.8015,0.1901,2.4840
6.2800,1.2175,-1.6294,-0.2454,1.3661,-9.2494,-2.9558,0.7662,0.2595,2.5500
6.2900,-0.4035,-1.6584,0.2866,1.5952,-9.1897,-3.0266,0.6746,0.2454,2.5483
6.3000,-1.5807,-1.5677,0.8366,1.8194,-9.1276,-3.0876,0.5537,0.2608,2.4771
6.3100,-2.2576,-1.5733,1.4587,2.0303,-9.0659,-3.1377,0.4122,0.3566,2.3338
6.3200,-2.5505,-1.7163,2.1768,2.2207,-9.0074,-3.1775,0.2559,0.5122,2.1575
6.3300,-2.5458,-1.9487,2.7033,2.3887,-8.9534,-3.2085,0.1296,0.6637,1.9871
6.3400,-2.3859,-2.0883,2.7199,2.5374,-8.9028,-3.2352,0.0917,0.7261,1.8375
6.3500,-2.4672,-2.1604,2.1101,2.6737,-8.8521,-3.2644,0.1836,0.6037,1.7143
6.3600,-2.6566,-2.0245,1.0690,2.8060,-8.7966,-3.3032,0.4024,0.3658,1.6345
6.3700,-2.7106,-1.5426,0.0951,2.9378,-8.7323,-3.3587,0.7036,0.1374,1.5337
6.3800,-3.2315,-1.5354,-0.7945,3.0651,-8.6586,-3.4346,1.0370,-0.1449,1.3741
6.3900,-3.2733,-1.8654,-1.5940,3.1883,-8.5752,-3.5303,1.3768,-0.4015,1.2542
6.4000,-2.1957,-2.1447,-2.0346,3.3116,-8.4788,-3.6472,1.6931,-0.4779,1.2539
6.4100,-0.9781,-2.4931,-1.9299,3.4396,-8.3668,-3.7846,1.9194,-0.4795,1.3588
6.4200,-0.5206,-2.7121,-1.5547,3.5785,-8.2387,-3.9335,2.0843,-0.5766,1.4844
6.4300,-0.5375,-2.7843,-1.2052,3.7316,-8.0949,-4.0866,2.2226,-0.7009,1.6107
6.4400,-0.5071,-2.6818,-1.0815,3.8962,-7.9355,-4.2424,2.3249,-0.7247,1.7180
6.4500,-0.7540,-2.2020,-0.8792,4.0657,-7.7641,-4.3976,2.3467,-0.7714,1.7524
6.4600,-1.6298,-1.4001,-0.2763,4.2398,-7.5881,-4.5381,2.2552,-1.0449,1.7092
6.4700,-2.9497,-0.4940,0.4198,4.4250,-7.4143,-4.6475,2.1076,-1.5004,1.6441
6.4800,-3.9206,0.2145,1.2827,4.6263,-7.2451,-4.7177,1.9451,-1.9682,1.6086
6.4900,-4.3069,0.4949,1.9418,4.8446,-7.0798,-4.7494,1.7975,-2.3221,1.6018
6.5000,-4.2381,0.7240,2.3201,5.0723,-6.9165,-4.7524,1.7052,-2.4684,1.5990
6.5100,-4.0790,1.0717,2.6173,5.2998,-6.7525,-4.7399,1.6690,-2.4275,1.5973
6.5200,-3.9262,1.4254,2.9696,5.5180,-6.5881,-4.7224,1.6286,-2.2652,1.5526
6.5300,-3.8729,2.0103,3.3859,5.7179,-6.4275,-4.7061,1.5726,-2.0336,1.4403
6.5400,-4.0363,2.6076,3.6005,5.8977,-6.2744,-4.6910,1.5073,-1.8753,1.3061
6.5500,-4.3886,2.7581,3.5973,6.0627,-6.1311,-4.6705,1.4152,-1.8615,1.1820
6.5600,-4.4567,2.9545,3.4681,6.2192,-5.9976,-4.6378,1.2973,-1.8724,1.0870
6.5700,-4.2730,3.2865,3.4352,6.3669,-5.8751,-4.5943,1.1576,-1.8059,0.9805
6.5800,-4.0868,3.4443,3.5048,6.5005,-5.7662,-4.5451,1.0172,-1.6724,0.8431
6.5900,-3.7195,3.5890,3.5745,6.6173,-5.6721,-4.4949,0.9001,-1.5197,0.6905
6.6000,-3.2962,3.7474,3.8425,6.7164,-5.5933,-4.4465,0.7952,-1.3588,0.5225
6.6100,-2.9478,3.8851,4.1810,6.7979,-5.5309,-4.4006,0.6842,-1.2158,0.3469
6.6200,-2.7501,4.0250,4.2228,6.8625,-5.4854,-4.3572,0.5846,-1.0731,0.1637
6.6300,-2.4795,4.2730,3.9379,6.9084,-5.4571,-4.3201,0.5124,-0.8529,-0.0355
6.6400,-1.9839,4.6517,3.6098,6.9309,-5.4461,-4.2980,0.4592,-0.5463,-0.2517
6.6500,-1.3939,4.9418,3.4307,6.9273,-5.4524,-4.2958,0.3988,-0.1934,-0.4605
6.6600,-0.8143,4.8185,3.1819,6.8973,-5.4759,-4.3141,0.3138,0.1487,-0.6594
6.6700,-0.2987,4.3282,2.7020,6.8431,-5.5164,-4.3485,0.2033,0.4215,-0.8375
6.6800,0.2199,3.9779,2.1351,6.7705,-5.5726,-4.3902,0.0550,0.5763,-0.9676
6.6900,0.8793,3.7939,1.5452,6.6864,-5.6419,-4.4303,-0.1091,0.6393,-1.0324
6.7000,2.0445,3.4853,0.6225,6.6002,-5.7169,-4.4633,-0.2154,0.6373,-0.9702
6.7100,3.6627,2.9956,-0.3645,6.5172,-5.7887,-4.4927,-0.2708,0.7003,-0.8916
6.7200,3.8614,2.5587,0.1135,6.4300,-5.8647,-4.5197,-0.4363,0.7376,-0.9865
6.7300,1.8391,2.1082,1.7620,6.3354,-5.9604,-4.5278,-0.6760,0.5168,-1.2107
6.7400,-0.8007,0.9798,1.8856,6.2400,-6.0774,-4.5046,-0.7628,0.1521,-1.4276
6.7500,-1.5595,-0.4582,0.3906,6.1438,-6.2043,-4.4636,-0.7079,0.0470,-1.5697
6.7600,0.0472,-1.4146,-1.1573,6.0305,-6.3361,-4.4326,-0.7030,0.4371,-1.7251
6.7700,1.9746,-2.6443,-2.3663,5.8821,-6.4777,-4.4270,-0.8542,1.0387,-1.8366
6.7800,3.2457,-5.4607,-2.9489,5.7089,-6.6265,-4.4335,-1.0475,1.2747,-1.7867
6.7900,1.9289,-9.1825,-3.1455,5.5405,-6.7723,-4.4269,-1.1057,1.0500,-1.6458
6.8000,-0.0700,-10.3429,-2.3728,5.3940,-6.9051,-4.4029,-1.0262,0.7597,-1.4493
6.8100,-0.3987,-7.5147,-0.2812,5.2702,-7.0212,-4.3693,-0.9314,0.5403,-1.2866
6.8200,-0.5622,-3.6288,1.6528,5.1590,-7.1262,-4.3320,-0.8641,0.5062,-1.2340
6.8300,-0.4519,-0.9689,2.8328,5.0435,-7.2262,-4.3022,-0.8203,0.7287,-1.2482
6.8400,-0.3901,0.5175,3.5374,4.9122,-7.3247,-4.2874,-0.8134,1.0645,-1.2897
6.8500,-0.9390,1.1810,3.9280,4.7611,-7.4256,-4.2841,-0.8628,1.3280,-1.3949
6.8600,-1.7773,1.2809,4.1014,4.5901,-7.5346,-4.2800,-0.9923,1.4369,-1.5601
6.8700,-2.1452,1.1825,3.9132,4.4030,-7.6546,-4.2635,-1.1749,1.4856,-1.6868
6.8800,-2.1098,1.0683,3.6475,4.2048,-7.7838,-4.2293,-1.3929,1.5370,-1.7483
6.8900,-2.3273,0.8448,3.4151,4.0001,-7.9209,-4.1728,-1.6522,1.5382,-1.7843
6.9000,-2.6994,0.4356,2.9163,3.7932,-8.0653,-4.0884,-1.9095,1.4708,-1.8060
6.9100,-2.9493,-0.2263,2.0052,3.5875,-8.2136,-3.9771,-2.0825,1.3644,-1.8074
6.9200,-3.0546,-1.0897,0.8957,3.3876,-8.3596,-3.8460,-2.1368,1.2106,-1.7648
6.9300,-2.9109,-2.1556,-0.0915,3.1997,-8.4969,-3.7036,-2.0833,1.0127,-1.6637
6.9400,-2.7551,-3.5268,-1.0022,3.0293,-8.6206,-3.5588,-1.9247,0.7664,-1.5361
6.9500,-2.5970,-4.5622,-1.6123,2.8787,-8.7282,-3.4191,-1.7135,0.5101,-1.4026
6.9600,-2.1287,-4.6644,-1.9279,2.7467,-8.8207,-3.2882,-1.5236,0.3180,-1.2750
6.9700,-1.3623,-3.9830,-2.4393,2.6296,-8.9006,-3.1667,-1.3707,0.2280,-1.1592
6.9800,-0.5028,-3.0376,-3.0983,2.5231,-8.9698,-3.0563,-1.2189,0.2562,-1.0528
6.9900,-0.1470,-2.3584,-3.8175,2.4226,-9.0292,-2.9615,-1.0243,0.3130,-0.9861
7.0000,-0.2386,-2.1489,-4.4439,2.3241,-9.0791,-2.8869,-0.7805,0.3357,-0.9713
7.0100,-0.4441,-2.0820,-4.5796,2.2249,-9.1202,-2.8354,-0.5029,0.2811,-1.0067
7.0200,-0.7193,-1.4481,-4.0314,2.1226,-9.1534,-2.8068,-0.2299,0.1551,-1.0882
7.0300,-0.8295,-0.3238,-2.9320,2.0159,-9.1802,-2.7979,-0.0168,0.0263,-1.1664
7.0400,-0.7778,0.5627,-1.7655,1.9076,-9.2021,-2.8019,0.1050,-0.1015,-1.1936
7.0500,-0.6734,0.9670,-1.0315,1.8019,-9.2204,-2.8115,0.1663,-0.2497,-1.1944
7.0600,-0.6633,0.9850,-0.9212,1.7005,-9.2361,-2.8234,0.2178,-0.4350,-1.1977
7.0700,-0.7594,0.7870,-1.0080,1.6198,-9.2471,-2.8348,0.2612,-0.5913,-1.1960
7.0800,-0.8100,0.6722,-1.0109,1.5887,-9.2509,-2.8398,0.2779,-0.6440,-1.1928
7.0900,-0.8575,0.4866,-0.8761,1.5133,-9.2596,-2.8528,0.2876,-0.7291,-1.1784
7.1000,-0.6080,0.5619,-0.5096,1.4260,-9.2689,-2.8675,0.2599,-0.7435,-1.1525
7.1100,-0.2152,0.7993,-0.2712,1.3399,-9.2775,-2.8812,0.2402,-0.6026,-1.1173
7.1200,0.2800,1.0022,0.0172,1.2504,-9.2850,-2.8972,0.2394,-0.3215,-1.0976
7.1300,0.7301,1.4563,0.3334,1.1528,-9.2911,-2.9180,0.2560,-0.0114,-1.0934
7.1400,0.8418,1.8923,0.1244,1.0478,-9.2945,-2.9464,0.3324,0.2192,-1.0808
7.1500,0.6721,2.0887,-0.2703,0.9400,-9.2934,-2.9860,0.4550,0.3363,-1.0437
7.1600,0.1079,2.3685,-0.4489,0.8350,-9.2870,-3.0367,0.5686,0.2725,-1.0007
7.1700,-0.4688,2.7021,-0.2642,0.7373,-9.2760,-3.0952,0.6427,0.1556,-0.9528
7.1800,-0.3595,2.8204,0.3466,0.6455,-9.2617,-3.1578,0.6653,0.2167,-0.9051
7.1900,-0.3751,2.7107,1.0347,0.5502,-9.2467,-3.2192,0.6059,0.3511,-0.9585
7.2000,-0.8333,2.5868,1.8133,0.4435,-9.2345,-3.2701,0.4377,0.3673,-1.0780
7.2100,-0.4431,2.3925,2.7526,0.3295,-9.2278,-3.3023,0.2298,0.2707,-1.1326
7.2200,0.5219,2.0702,3.2466,0.2216,-9.2262,-3.3160,0.0571,0.0675,-1.0470
7.2300,1.8165,1.8327,3.2581,0.1373,-9.2283,-3.3150,-0.0745,-0.1992,-0.8000
7.2400,3.1737,1.7941,2.9759,0.0875,-9.2332,-3.3031,-0.1708,-0.3612,-0.4766
7.2500,3.6552,1.8179,2.2176,0.0703,-9.2397,-3.2852,-0.1961,-0.4293,-0.1892
7.2600,3.6255,1.6790,1.1245,0.0769,-9.2453,-3.2694,-0.1317,-0.3957,0.0197
7.2700,3.9552,1.6947,0.3257,0.0984,-9.2480,-3.2611,-0.0335,-0.2978,0.1992
7.2800,4.2615,1.4020,-0.6836,0.1362,-9.2467,-3.2634,0.0984,-0.2730,0.4221
7.2900,4.2631,0.5302,-1.8236,0.1947,-9.2403,-3.2783,0.2213,-0.2231,0.6458
7.3000,3.9778,-0.3108,-2.2998,0.2637,-9.2306,-3.3010,0.2609,0.0394,0.7430
7.3100,3.0228,-1.1194,-2.5185,0.3221,-9.2200,-3.3253,0.2414,0.4575,0.6711
7.3200,1.3821,-1.5764,-2.6581,0.3555,-9.2105,-3.3481,0.2006,0.7942,0.5007
7.3300,-0.7345,-1.4402,-2.5695,0.3643,-9.2033,-3.3669,0.1282,0.8609,0.3080
7.3400,-2.4661,-0.8750,-1.8067,0.3585,-9.2008,-3.3745,-0.0358,0.6563,0.1326
7.3500,-3.1855,-0.3019,-0.4835,0.3457,-9.2057,-3.3625,-0.2664,0.3647,-0.0433
7.3600,-3.2316,-0.1827,0.6776,0.3232,-9.2186,-3.3289,-0.4738,0.1422,-0.2659
7.3700,-2.6580,-0.5059,1.1657,0.2851,-9.2385,-3.2770,-0.6476,0.0233,-0.4933
7.3800,-1.2464,-1.1099,0.7121,0.2303,-9.2634,-3.2101,-0.7864,0.0536,-0.6574
7.3900,0.0998,-1.8859,-0.3257,0.1579,-9.2913,-3.1328,-0.8697,0.2831,-0.7930
7.4000,0.6231,-2.5788,-1.1685,0.0622,-9.3199,-3.0499,-0.9033,0.6212,-0.9552
7.4100,0.3074,-3.5478,-1.9531,-0.0572,-9.3467,-2.9666,-0.8617,0.8104,-1.1152
7.4200,-0.6868,-4.9160,-3.1984,-0.1902,-9.3692,-2.8890,-0.7701,0.7181,-1.2114
7.4300,-0.7853,-5.5048,-4.0465,-0.3232,-9.3875,-2.8170,-0.7319,0.5945,-1.1997
7.4400,0.9367,-5.1855,-3.7311,-0.4487,-9.4039,-2.7441,-0.7640,0.6725,-1.0815
7.4500,2.6953,-5.3485,-3.3931,-0.5646,-9.4203,-2.6657,-0.7949,0.8691,-0.9290
7.4600,3.2787,-6.3526,-3.7380,-0.6717,-9.4355,-2.5858,-0.7456,1.1245,-0.7785
7.4700,3.3871,-6.9826,-3.9620,-0.7685,-9.4478,-2.5131,-0.5928,1.2920,-0.5977
7.4800,3.0006,-6.6167,-3.9890,-0.8463,-9.4565,-2.4549,-0.4308,1.1859,-0.3800
7.4900,2.2185,-5.5393,-3.7852,-0.8964,-9.4632,-2.4111,-0.3124,0.8772,-0.1453
7.5000,1.5591,-4.4709,-3.4649,-0.9165,-9.4693,-2.3798,-0.2142,0.5180,0.0738
7.5100,1.3538,-3.2244,-2.9236,-0.9082,-9.4753,-2.3590,-0.1618,0.1878,0.2785
7.5200,1.5256,-1.5753,-2.0919,-0.8726,-9.4823,-2.3441,-0.1426,-0.1448,0.4815
7.5300,1.5111,-0.3932,-1.6972,-0.8096,-9.4901,-2.3347,-0.1075,-0.5094,0.6788
7.5400,1.5440,0.3055,-1.5883,-0.7189,-9.4979,-2.3327,-0.0401,-0.8796,0.8811
7.5500,1.8631,0.6778,-1.4124,-0.5999,-9.5042,-2.3400,0.0511,-1.2193,1.0899
7.5600,2.3181,0.6027,-1.3182,-0.4532,-9.5079,-2.3577,0.1714,-1.5447,1.2948
7.5700,2.7754,0.2600,-1.4389,-0.2788,-9.5071,-2.3870,0.3142,-1.8220,1.5118
7.5800,3.1569,0.0670,-1.4370,-0.0775,-9.5007,-2.4266,0.4403,-1.9478,1.7366
7.5900,3.2638,0.1525,-1.1931,0.1447,-9.4879,-2.4729,0.5344,-1.8542,1.9176
7.6000,3.1802,0.2761,-0.9893,0.3761,-9.4682,-2.5233,0.6103,-1.5201,2.0365
7.6100,3.1245,0.0475,-0.9285,0.6063,-9.4413,-2.5788,0.6794,-0.9976,2.1213
7.6200,2.7770,-0.5472,-0.8832,0.8288,-9.4072,-2.6411,0.7340,-0.4426,2.1762
7.6300,1.9302,-1.0736,-0.8181,1.0414,-9.3663,-2.7104,0.7692,-0.0173,2.2031
7.6400,0.8240,-1.2178,-0.6074,1.2458,-9.3194,-2.7849,0.7827,0.2202,2.2143
7.6500,-0.4198,-0.9888,-0.0307,1.4446,-9.2676,-2.8608,0.7582,0.2994,2.1970
7.6600,-1.6825,-0.6870,0.9760,1.6374,-9.2130,-2.9324,0.6730,0.3132,2.1432
7.6700,-2.7599,-0.5870,2.1979,1.8225,-9.1584,-2.9937,0.5275,0.2890,2.0598
7.6800,-3.6492,-0.5010,3.3961,1.9988,-9.1068,-3.0388,0.3441,0.2147,1.9403
7.6900,-4.5386,-0.2924,4.2065,2.1630,-9.0603,-3.0653,0.1705,0.1050,1.7543
7.7000,-5.0450,-0.0639,4.3396,2.3119,-9.0198,-3.0761,0.0680,-0.0682,1.5402
7.7100,-4.8548,0.1161,3.8830,2.4503,-8.9831,-3.0767,0.0729,-0.3878,1.3762
7.7200,-4.6543,0.6474,3.4168,2.5878,-8.9466,-3.0702,0.1377,-0.8599,1.2538
7.7300,-4.8586,1.5266,3.2501,2.7294,-8.9094,-3.0557,0.2054,-1.3547,1.1413
7.7400,-4.6697,1.8626,3.1369,2.8753,-8.8711,-3.0332,0.2567,-1.6844,1.0795
7.7500,-3.7525,1.5818,3.1288,3.0256,-8.8312,-3.0031,0.2327,-1.8092,1.1087
7.7600,-2.3350,1.2863,3.0922,3.1810,-8.7897,-2.9641,0.1454,-1.7492,1.1861
7.7700,-0.6603,1.0272,2.3688,3.3363,-8.7462,-2.9217,0.1040,-1.4467,1.2483
7.7800,1.4151,0.6715,0.9154,3.4821,-8.6986,-2.8940,0.1896,-0.8622,1.2888
7.7900,2.6974,0.2909,-0.7874,3.6071,-8.6448,-2.9023,0.4111,-0.1021,1.2300
7.8000,1.7667,-0.0887,-2.1542,3.6975,-8.5866,-2.9606,0.7109,0.6292,1.0263
7.8100,-0.3624,-0.0725,-2.4329,3.7501,-8.5268,-3.0651,0.9677,1.0134,0.7985
7.8200,-2.5985,0.6959,-1.3762,3.7803,-8.4674,-3.1903,1.0747,0.8975,0.6376
7.8300,-3.8936,1.7141,0.1658,3.8071,-8.4096,-3.3092,1.0431,0.5961,0.5780
7.8400,-4.2838,2.4512,1.2240,3.8409,-8.3538,-3.4100,0.9584,0.2510,0.5601
7.8500,-4.7564,2.9152,1.6270,3.8832,-8.3017,-3.4888,0.8712,-0.1306,0.4863
7.8600,-4.5840,3.0571,1.6931,3.9290,-8.2549,-3.5479,0.7921,-0.3595,0.3933
7.8700,-3.8841,3.0537,1.6606,3.9728,-8.2140,-3.5938,0.7210,-0.4871,0.2953
7.8800,-3.6155,3.2784,1.6534,4.0120,-8.1803,-3.6272,0.6271,-0.6182,0.1618
7.8900,-3.2479,3.5069,1.8914,4.0429,-8.1563,-3.6469,0.4999,-0.6986,-0.0033
7.9000,-2.8102,3.4005,2.0331,4.0617,-8.1433,-3.6550,0.3926,-0.6919,-0.1653
7.9100,-2.5115,3.0965,1.9786,4.0669,-8.1397,-3.6572,0.3209,-0.6181,-0.2997
7.9200,-2.3626,2.8920,1.9189,4.0584,-8.1440,-3.6571,0.2404,-0.5157,-0.4186
7.9300,-2.1410,3.0076,2.1120,4.0360,-8.1568,-3.6534,0.1109,-0.3879,-0.5336
7.9400,-2.0619,3.4440,2.5095,3.9988,-8.1807,-3.6408,-0.0815,-0.3057,-0.6822
7.9500,-2.0991,3.8602,2.7633,3.9454,-8.2182,-3.6143,-0.2942,-0.2365,-0.8568
7.9600,-1.8944,3.9660,2.7251,3.8735,-8.2690,-3.5759,-0.4548,-0.1067,-1.0301
7.9700,-1.5798,3.6069,2.3470,3.7820,-8.3295,-3.5331,-0.5358,0.0387,-1.1896
7.9800,-1.5397,3.0912,2.0114,3.6721,-8.3969,-3.4890,-0.5889,0.1203,-1.3563
7.9900,-1.7219,2.6215,1.9796,3.5447,-8.4709,-3.4414,-0.6496,0.1509,-1.5364
8.0000,-1.6288,1.9822,1.9889,3.3998,-8.5508,-3.3892,-0.7108,0.1929,-1.7125
8.0100,-1.4236,1.2338,2.0329,3.2372,-8.6358,-3.3323,-0.7775,0.2519,-1.8750
8.0200,-1.0916,0.3374,2.0284,3.0586,-8.7238,-3.2710,-0.8271,0.3106,-1.9972
8.0300,-0.7245,-0.6312,1.6287,2.8686,-8.8113,-3.2079,-0.8113,0.3348,-2.0654
8.0400,-0.2858,-1.6890,0.8352,2.6741,-8.8933,-3.1492,-0.6953,0.2943,-2.0666
8.0500,0.2130,-2.6468,-0.1707,2.4845,-8.9646,-3.1022,-0.4729,0.1488,-1.9868
8.0600,0.8962,-2.6789,-0.9334,2.3108,-9.0208,-3.0737,-0.1834,-0.0469,-1.8112
8.0700,2.1149,-1.7407,-1.0571,2.1609,-9.0601,-3.0678,0.0954,-0.1472,-1.5510
8.0800,3.6977,-0.5027,-0.7882,2.0368,-9.0831,-3.0847,0.3137,-0.0126,-1.2294
8.0900,5.1631,0.5051,-0.6062,1.9353,-9.0918,-3.1244,0.4789,0.3795,-0.8751
8.1000,5.8368,0.9745,-0.6704,1.8495,-9.0881,-3.1864,0.6142,0.9003,-0.5712
8.1100,5.5078,0.7798,-0.8884,1.7690,-9.0747,-3.2692,0.7407,1.4084,-0.3778
8.1200,4.5113,-0.2842,-1.2060,1.6866,-9.0532,-3.3705,0.8817,1.7434,-0.2694
8.1300,2.8446,-2.3494,-1.8613,1.6057,-9.0231,-3.4887,1.0918,1.7169,-0.1771
8.1400,0.7119,-4.7554,-2.6315,1.5422,-8.9808,-3.6236,1.3607,1.2648,-0.0250
8.1500,-0.5914,-6.0683,-2.4405,1.5136,-8.9253,-3.7698,1.5379,0.6628,0.1743
8.1600,-0.0243,-6.0730,-0.9965,1.5197,-8.8624,-3.9133,1.4881,0.2809,0.3360
8.1700,1.2302,-5.7863,0.6219,1.5441,-8.8018,-4.0385,1.2256,0.2462,0.4256
8.1800,1.5581,-5.0856,1.9168,1.5712,-8.7523,-4.1349,0.8302,0.4248,0.5062
8.1900,0.5086,-3.2114,3.1599,1.6015,-8.7173,-4.1969,0.4184,0.4780,0.6394
8.2000,-1.2783,-1.1143,3.7426,1.6476,-8.6949,-4.2254,0.1104,0.2479,0.7696
8.2100,-2.7209,0.1521,3.3229,1.7150,-8.6808,-4.2274,-0.0676,-0.1502,0.8129
8.2200,-3.7276,1.0134,2.5329,1.7996,-8.6719,-4.2104,-0.1648,-0.5967,0.7520
8.2300,-4.3308,1.5520,1.7412,1.8925,-8.6675,-4.1787,-0.2176,-0.9702,0.6042
8.2400,-4.5023,1.7048,0.9537,1.9813,-8.6670,-4.1384,-0.2078,-1.2081,0.3693
8.2500,-4.6302,1.9055,0.2111,2.0523,-8.6704,-4.0965,-0.1542,-1.3448,0.0279
8.2600,-4.7737,2.0712,-0.6281,2.0927,-8.6792,-4.0574,-0.0809,-1.3928,-0.4000
8.2700,-4.6529,1.8418,-1.5490,2.0946,-8.6940,-4.0247,-0.0097,-1.3364,-0.8218
8.2800,-4.0534,1.2606,-2.1820,2.0590,-8.7142,-3.9991,0.0213,-1.1395,-1.1221
8.2900,-2.9397,0.5782,-2.5174,1.9920,-8.7375,-3.9821,0.0428,-0.7911,-1.2731
8.3000,-1.7843,0.0423,-2.5546,1.9012,-8.7602,-3.9765,0.0870,-0.3448,-1.2949
8.3100,-0.8289,-0.4962,-2.1866,1.7932,-8.7790,-3.9849,0.1588,0.1387,-1.2473
8.3200,0.4323,-1.1152,-1.2948,1.6704,-8.7923,-4.0088,0.2292,0.6257,-1.1783
8.3300,1.7009,-1.4849,-0.0931,1.5378,-8.8008,-4.0430,0.2340,0.9969,-1.0546
8.3400,2.3305,-1.4906,0.9703,1.4086,-8.8068,-4.0770,0.1700,1.1250,-0.8633
8.3500,2.4675,-1.3380,1.7572,1.2977,-8.8115,-4.1038,0.0995,1.0566,-0.6131
8.3600,2.1352,-1.1658,2.1302,1.2157,-8.8144,-4.1228,0.0597,0.8541,-0.3402
8.3700,1.2154,-0.9984,2.0905,1.1672,-8.8150,-4.1358,0.0424,0.5555,-0.1012
8.3800,0.1843,-0.8731,1.9441,1.1488,-8.8137,-4.1437,0.0259,0.2975,0.0684
8.3900,-0.5536,-0.6904,1.8736,1.1499,-8.8118,-4.1474,-0.0025,0.1791,0.1626
8.4000,-1.1185,-0.4660,1.6851,1.1580,-8.8106,-4.1477,-0.0369,0.1906,0.1767
8.4100,-1.4012,-0.2602,1.3762,1.1615,-8.8113,-4.1453,-0.0819,0.2948,0.1190
8.4200,-1.3156,-0.0688,0.9815,1.1526,-8.8147,-4.1403,-0.1232,0.4361,0.0231
8.4300,-0.9518,0.0091,0.4626,1.1295,-8.8207,-4.1339,-0.1509,0.5659,-0.0652
8.4400,-0.3518,0.1650,0.0830,1.0964,-8.8283,-4.1266,-0.1687,0.6696,-0.0889
8.4500,0.1915,0.2716,-0.1851,1.0619,-8.8359,-4.1193,-0.1611,0.7143,-0.0319
8.4600,0.4188,0.0465,-0.4219,1.0344,-8.8421,-4.1131,-0.1475,0.6703,0.0633
8.4700,0.4043,-0.0316,-0.3534,1.0181,-8.8474,-4.1058,-0.1663,0.5794,0.1496
8.4800,0.3223,0.1095,-0.1434,1.0122,-8.8529,-4.0954,-0.1882,0.5056,0.2158
8.4900,0.1869,0.0894,-0.1341,1.0139,-8.8580,-4.0838,-0.1785,0.4679,0.2692
8.5000,-0.0372,0.0042,-0.1532,1.0211,-8.8621,-4.0732,-0.1642,0.4412,0.3111
8.5100,-0.2483,-0.1037,-0.1598,1.0323,-8.8653,-4.0634,-0.1607,0.4193,0.3301
8.5200,-0.3861,-0.2764,-0.1837,1.0442,-8.8686,-4.0531,-0.1695,0.4153,0.3110
8.5300,-0.5238,-0.4691,-0.1910,1.0530,-8.8731,-4.0409,-0.1993,0.4092,0.2627
8.5400,-0.6650,-0.4124,-0.1239,1.0586,-8.8795,-4.0253,-0.2489,0.3739,0.2305
8.5500,-0.8453,-0.1564,-0.1463,1.0655,-8.8880,-4.0049,-0.2864,0.2986,0.2286
8.5600,-1.0428,-0.0986,-0.4481,1.0754,-8.8971,-3.9819,-0.2862,0.2231,0.2218
8.5700,-1.1060,-0.1277,-0.7182,1.0852,-8.9060,-3.9592,-0.2713,0.2101,0.1849
8.5800,-1.0752,-0.0982,-0.8542,1.0898,-8.9148,-3.9381,-0.2535,0.2460,0.1152
8.5900,-1.0847,-0.0750,-0.9450,1.0854,-8.9236,-3.9194,-0.2295,0.2853,0.0229
8.6000,-1.0909,-0.0690,-1.0354,1.0724,-8.9323,-3.9030,-0.2091,0.2980,-0.0507
8.6100,-0.8750,0.0472,-1.0607,1.0553,-8.9412,-3.8873,-0.2143,0.2877,-0.0657
8.6200,-0.5410,0.2763,-1.0031,1.0401,-8.9504,-3.8701,-0.2304,0.2658,-0.0268
8.6300,-0.2222,0.4438,-0.9436,1.0312,-8.9594,-3.8518,-0.2343,0.2531,0.0555
8.6400,0.0813,0.4557,-0.8349,1.0311,-8.9671,-3.8337,-0.2203,0.2557,0.1621
8.6500,0.2302,0.3434,-0.7034,1.0401,-8.9729,-3.8179,-0.1941,0.2760,0.2583
8.6600,0.2871,0.2779,-0.3983,1.0548,-8.9772,-3.8037,-0.1957,0.3399,0.3199
8.6700,0.2163,0.2186,-0.0203,1.0706,-8.9816,-3.7889,-0.2237,0.4246,0.3526
8.6800,-0.0361,0.0467,0.0954,1.0868,-8.9864,-3.7728,-0.2389,0.4765,0.3889
8.6900,-0.4012,-0.1038,0.0652,1.1061,-8.9908,-3.7566,-0.2306,0.4496,0.4302
8.7000,-0.8771,-0.1413,0.0284,1.1315,-8.9941,-3.7411,-0.2105,0.3386,0.4616
8.7100,-1.2048,-0.0940,-0.0009,1.1644,-8.9962,-3.7260,-0.1910,0.1941,0.4849
8.7200,-1.2607,-0.0628,-0.0471,1.2034,-8.9973,-3.7109,-0.1749,0.0645,0.4794
8.7300,-1.1068,-0.0339,-0.0982,1.2440,-8.9979,-3.6960,-0.1637,0.0057,0.4382
8.7400,-0.7970,0.0634,-0.0536,1.2804,-8.9987,-3.6816,-0.1613,0.0467,0.3814
8.7500,-0.5956,0.1555,0.0427,1.3088,-8.9999,-3.6686,-0.1533,0.1545,0.3291
8.7600,-0.5579,0.2058,0.0622,1.3292,-9.0011,-3.6584,-0.1337,0.2717,0.2992
8.7700,-0.6492,0.1319,-0.0793,1.3445,-9.0018,-3.6511,-0.1221,0.3011,0.2800
8.7800,-0.9030,0.0610,-0.3396,1.3590,-9.0030,-3.6428,-0.1547,0.2256,0.2575
8.7900,-0.8197,0.3552,-0.3115,1.3753,-9.0065,-3.6279,-0.2319,0.1473,0.2521
8.8000,-0.4113,0.5275,-0.2077,1.3942,-9.0126,-3.6054,-0.3014,0.1235,0.2779
8.8100,-0.1117,0.3205,-0.2736,1.4167,-9.0201,-3.5778,-0.3424,0.1388,0.3229
8.8200,0.1641,0.1736,-0.2265,1.4428,-9.0276,-3.5483,-0.3541,0.1804,0.3781
8.8300,0.3107,0.1840,-0.0857,1.4723,-9.0340,-3.5199,-0.3327,0.2191,0.4268
8.8400,0.3792,0.2953,0.1198,1.5044,-9.0382,-3.4954,-0.2826,0.2472,0.4604
8.8500,0.5128,0.4610,0.3924,1.5385,-9.0400,-3.4759,-0.2315,0.2678,0.4913
8.8600,0.5271,0.6101,0.5543,1.5755,-9.0393,-3.4610,-0.1908,0.2905,0.5400
8.8700,0.4683,0.8196,0.6851,1.6167,-9.0364,-3.4496,-0.1638,0.3459,0.6114
8.8800,0.1776,0.7550,0.4731,1.6624,-9.0307,-3.4427,-0.1162,0.3773,0.6700
8.8900,-0.2042,0.4421,0.0009,1.7115,-9.0218,-3.4420,-0.0405,0.3808,0.6971
8.9000,-0.3108,0.2887,-0.2220,1.7529,-9.0122,-3.4464,0.0141,0.3882,0.6884
8.9100,-0.3261,0.2239,-0.3066,1.7690,-9.0078,-3.4496,0.0352,0.3862,0.6726
8.9200,-0.3759,0.0888,-0.4194,1.8068,-8.9967,-3.4591,0.0544,0.4080,0.6352
8.9300,-0.3418,0.1338,-0.3636,1.8462,-8.9842,-3.4706,0.0131,0.4490,0.5621
8.9400,-0.3684,0.4297,-0.1549,1.8761,-8.9764,-3.4749,-0.1186,0.4504,0.4512
8.9500,-0.3243,0.5013,-0.0544,1.8969,-8.9764,-3.4635,-0.3227,0.4150,0.3486
8.9600,-0.0015,0.2409,-0.1389,1.9111,-8.9858,-3.4312,-0.5740,0.4004,0.2835
8.9700,0.3185,-0.1014,-0.2107,1.9215,-9.0045,-3.3758,-0.8083,0.3754,0.2430
8.9800,0.0811,-0.6412,-0.5218,1.9304,-9.0301,-3.3015,-0.9387,0.2006,0.1694
8.9900,-0.2612,-0.8622,-0.7951,1.9395,-9.0584,-3.2174,-0.9186,-0.0665,0.0831
9.0000,-0.0658,-0.7219,-0.8400,1.9509,-9.0837,-3.1384,-0.7203,-0.2664,0.0559
9.0100,0.0793,-0.6105,-0.7900,1.9671,-9.1005,-3.0792,-0.4319,-0.3975,0.0757
9.0200,-0.0340,-0.3067,-0.3864,1.9891,-9.1087,-3.0407,-0.2292,-0.5135,0.0992
9.0300,-0.1069,0.0189,0.1624,2.0161,-9.1127,-3.0106,-0.1996,-0.6132,0.1150
9.0400,-0.0540,0.0205,0.3403,2.0468,-9.1166,-2.9779,-0.2292,-0.6488,0.1388
9.0500,0.1206,-0.1046,0.1814,2.0798,-9.1200,-2.9445,-0.2048,-0.5971,0.1715
9.0600,0.2748,0.0365,0.2313,2.1125,-9.1213,-2.9172,-0.1429,-0.4839,0.1880
9.0700,0.2264,0.3386,0.6170,2.1412,-9.1210,-2.8971,-0.1083,-0.3480,0.1663
9.0800,0.1024,0.5646,1.0350,2.1618,-9.1216,-2.8799,-0.1397,-0.2250,0.0973
9.0900,-0.0583,0.4942,1.0117,2.1712,-9.1253,-2.8608,-0.1871,-0.1513,-0.0108
9.1000,-0.2069,0.1804,0.5887,2.1688,-9.1325,-2.8398,-0.2055,-0.1160,-0.1200
9.1100,-0.1535,-0.0227,0.2654,2.1574,-9.1419,-2.8180,-0.2246,-0.0737,-0.1803
9.1200,0.0351,0.0575,0.1851,2.1420,-9.1527,-2.7946,-0.2644,-0.0135,-0.1742
9.1300,0.0958,0.2874,0.1634,2.1278,-9.1639,-2.7688,-0.2989,0.0275,-0.1266
9.1400,0.0341,0.4647,0.1012,2.1183,-9.1743,-2.7414,-0.3010,0.0175,-0.0642
9.1500,-0.0422,0.4119,0.0539,2.1156,-9.1828,-2.7149,-0.2664,-0.0381,0.0018
9.1600,-0.0475,0.2525,0.1103,2.1209,-9.1887,-2.6908,-0.2177,-0.1272,0.0641
9.1700,-0.0391,0.2099,0.2885,2.1337,-9.1922,-2.6686,-0.1819,-0.2277,0.1075
9.1800,0.0049,0.1167,0.4888,2.1517,-9.1941,-2.6474,-0.1534,-0.2943,0.1272
9.1900,0.1260,-0.0646,0.6086,2.1720,-9.1949,-2.6278,-0.1378,-0.2933,0.1388
9.2000,0.2188,0.0044,0.7342,2.1920,-9.1960,-2.6074,-0.1834,-0.2555,0.1326
9.2100,0.1958,-0.0940,0.7192,2.2093,-9.1988,-2.5827,-0.2301,-0.2134,0.1103
9.2200,0.3643,-0.7956,0.3773,2.2242,-9.2020,-2.5587,-0.2029,-0.1025,0.1276
9.2300,0.6319,-1.2012,0.1479,2.2388,-9.2030,-2.5423,-0.1395,0.0595,0.1748
9.2400,0.5623,-0.9500,0.1718,2.2528,-9.2016,-2.5349,-0.0792,0.1837,0.1937
9.2500,0.3554,-0.5451,0.2228,2.2644,-9.1988,-2.5347,-0.0378,0.2666,0.1794
9.2600,0.2524,-0.1358,0.2695,2.2723,-9.1956,-2.5392,-0.0205,0.3461,0.1606
9.2700,0.1698,0.2312,0.1997,2.2771,-9.1927,-2.5457,-0.0277,0.4105,0.1521
9.2800,-0.0834,0.3547,-0.0160,2.2805,-9.1900,-2.5521,-0.0367,0.4070,0.1508
9.2900,-0.4054,0.3122,-0.2531,2.2850,-9.1874,-2.5575,-0.0310,0.3239,0.1532
9.3000,-0.6397,0.2833,-0.3410,2.2925,-9.1847,-2.5604,-0.0290,0.1762,0.1479
9.3100,-0.5686,0.0475,-0.3088,2.3034,-9.1821,-2.5600,-0.0342,0.0478,0.1505
9.3200,-0.3130,-0.2105,-0.2506,2.3173,-9.1795,-2.5567,-0.0407,-0.0352,0.1518
9.3300,-0.2115,-0.1965,-0.1578,2.3319,-9.1775,-2.5506,-0.0557,-0.1165,0.1199
9.3400,-0.1307,-0.1495,-0.0474,2.3445,-9.1770,-2.5409,-0.0788,-0.1788,0.0711
9.3500,0.0588,-0.1755,0.0640,2.3543,-9.1781,-2.5279,-0.1052,-0.1922,0.0414
9.3600,0.2903,-0.1554,0.1587,2.3625,-9.1801,-2.5128,-0.1325,-0.1472,0.0452
9.3700,0.3635,-0.0201,0.2184,2.3705,-9.1824,-2.4970,-0.1504,-0.0786,0.0656
9.3800,0.2130,0.2438,0.2527,2.3784,-9.1845,-2.4817,-0.1545,-0.0345,0.0761
9.3900,-0.0077,0.3993,0.2602,2.3858,-9.1866,-2.4668,-0.1521,-0.0226,0.0670
9.4000,-0.1498,0.3217,0.1707,2.3918,-9.1888,-2.4528,-0.1366,-0.0224,0.0500
9.4100,-0.1979,0.1752,0.0267,2.3959,-9.1908,-2.4411,-0.0982,-0.0389,0.0219
9.4200,-0.1606,-0.0178,0.0133,2.3975,-9.1925,-2.4331,-0.0526,-0.0587,-0.0118
9.4300,0.0169,-0.1832,0.1955,2.3970,-9.1939,-2.4285,-0.0183,-0.0697,-0.0323
9.4400,0.2257,-0.2862,0.4608,2.3953,-9.1950,-2.4258,-0.0075,-0.0694,-0.0376
9.4500,0.4037,-0.3430,0.6727,2.3936,-9.1961,-2.4233,-0.0189,-0.0352,-0.0266
9.4600,0.5307,-0.1784,0.7222,2.3921,-9.1971,-2.4210,-0.0272,0.0345,-0.0058
9.4700,0.5442,0.2411,0.5384,2.3910,-9.1974,-2.4209,-0.0112,0.1194,0.0208
9.4800,0.4450,0.5430,0.2605,2.3905,-9.1965,-2.4248,0.0134,0.1922,0.0502
9.4900,0.2170,0.4055,0.0373,2.3912,-9.1945,-2.4319,0.0257,0.2215,0.0742
9.5000,-0.0189,0.0112,-0.0874,2.3936,-9.1918,-2.4395,0.0235,0.2077,0.0906
9.5100,-0.1309,-0.3422,-0.0825,2.3975,-9.1891,-2.4458,0.0104,0.1761,0.0940
9.5200,-0.1372,-0.4936,0.0129,2.4017,-9.1869,-2.4501,-0.0011,0.1487,0.0811
9.5300,-0.0137,-0.3904,0.1354,2.4049,-9.1851,-2.4536,0.0033,0.1504,0.0717
9.5400,0.1774,-0.1868,0.2579,2.4079,-9.1830,-2.4586,0.0170,0.1784,0.0847
9.5500,0.2339,-0.0616,0.3998,2.4120,-9.1804,-2.4643,0.0051,0.1830,0.1026
9.5600,0.1206,-0.0799,0.4929,2.4177,-9.1782,-2.4670,-0.0352,0.1527,0.1099
9.5700,0.0387,-0.1847,0.4423,2.4243,-9.1769,-2.4654,-0.0699,0.1250,0.1048
9.5800,0.0682,-0.2074,0.3317,2.4302,-9.1765,-2.4610,-0.0893,0.1237,0.0896
9.5900,0.1538,-0.0947,0.2128,2.4346,-9.1766,-2.4561,-0.0850,0.1473,0.0793
9.6000,0.1889,0.0348,0.0658,2.4379,-9.1765,-2.4534,-0.0576,0.1753,0.0774
9.6100,0.1578,0.1053,0.0139,2.4405,-9.1757,-2.4538,-0.0346,0.1999,0.0796
9.6200,0.0946,0.1129,0.0246,2.4428,-9.1745,-2.4560,-0.0296,0.2108,0.0810
9.6300,-0.0152,0.0863,0.0033,2.4450,-9.1734,-2.4579,-0.0409,0.1971,0.0761
9.6400,-0.0643,0.0524,-0.0180,2.4472,-9.1728,-2.4579,-0.0548,0.1675,0.0678
9.6500,-0.0147,-0.0145,-0.0198,2.4492,-9.1728,-2.4561,-0.0628,0.1301,0.0546
9.6600,0.0631,-0.0356,-0.0162,2.4509,-9.1731,-2.4530,-0.0619,0.0984,0.0441
9.6700,0.1752,0.0490,-0.0130,2.4527,-9.1734,-2.4502,-0.0474,0.0865,0.0464
9.6800,0.2343,0.1022,0.0287,2.4551,-9.1731,-2.4488,-0.0315,0.0883,0.0529
9.6900,0.2056,0.0922,0.0982,2.4581,-9.1725,-2.4483,-0.0330,0.1018,0.0600
9.7000,0.1993,0.1243,0.1127,2.4615,-9.1718,-2.4475,-0.0432,0.1229,0.0733
9.7100,0.1753,0.1911,0.0050,2.4659,-9.1708,-2.4468,-0.0408,0.1375,0.0928
9.7200,0.0521,0.2109,-0.1575,2.4718,-9.1691,-2.4473,-0.0200,0.1261,0.1050
9.7300,-0.1077,0.1648,-0.2268,2.4786,-9.1667,-2.4494,0.0071,0.0885,0.0984
9.7400,-0.1778,0.0486,-0.1488,2.4850,-9.1641,-2.4526,0.0227,0.0548,0.0756
9.7500,-0.1158,-0.0778,0.0017,2.4894,-9.1620,-2.4559,0.0216,0.0421,0.0463
9.7600,0.0381,-0.1081,0.1128,2.4916,-9.1607,-2.4586,0.0122,0.0500,0.0263
9.7700,0.1710,-0.0202,0.1537,2.4923,-9.1600,-2.4605,-0.0020,0.0598,0.0189
9.7800,0.2099,0.0600,0.1905,2.4925,-9.1598,-2.4609,-0.0223,0.0588,0.0205
9.7900,0.2074,0.0092,0.2144,2.4935,-9.1600,-2.4593,-0.0394,0.0461,0.0306
9.8000,0.1383,-0.0606,0.1738,2.4961,-9.1601,-2.4561,-0.0443,0.0189,0.0435
9.8100,0.0484,-0.0899,0.1328,2.5005,-9.1599,-2.4524,-0.0393,-0.0055,0.0558
9.8200,0.0267,-0.1341,0.1754,2.5062,-9.1593,-2.4488,-0.0325,-0.0112,0.0608
9.8300,-0.0072,-0.1398,0.2364,2.5116,-9.1586,-2.4459,-0.0267,-0.0057,0.0514
9.8400,-0.0360,-0.0852,0.2766,2.5156,-9.1582,-2.4434,-0.0319,0.0080,0.0339
9.8500,-0.0565,-0.0487,0.2800,2.5175,-9.1585,-2.4402,-0.0427,0.0141,0.0162
9.8600,-0.1316,-0.0038,0.1900,2.5191,-9.1591,-2.4361,-0.0446,-0.0274,0.0187
9.8700,-0.2974,0.1188,0.0548,2.5235,-9.1597,-2.4297,-0.0520,-0.1355,0.0336
9.8800,-0.3080,0.1758,-0.0726,2.5318,-9.1599,-2.4199,-0.0543,-0.2339,0.0455
9.8900,-0.0492,0.0664,-0.1372,2.5413,-9.1601,-2.4092,-0.0423,-0.2339,0.0303
9.9000,0.2481,-0.0250,-0.0754,2.5461,-9.1609,-2.4012,-0.0315,-0.1057,-0.0217
9.9100,0.4714,-0.0432,0.0432,2.5421,-9.1628,-2.3981,-0.0341,0.0906,-0.0668
9.9200,0.4625,-0.0719,0.0981,2.5310,-9.1658,-2.3984,-0.0486,0.2183,-0.0845
9.9300,0.1973,-0.0591,0.0542,2.5184,-9.1692,-2.3988,-0.0624,0.1980,-0.0728
9.9400,-0.0971,-0.0358,-0.0297,2.5103,-9.1721,-2.3961,-0.0673,0.0576,-0.0334
