time,seconds_elapsed,z,y,x
1759336103911681300,0.181681396484375,-0.031154127791523933,0.09224065393209457,-0.051312681287527084
1759336103921681200,0.19168115234375,-0.02687807008624077,0.056810468435287476,-0.03726277872920036
1759336103931681300,0.201681396484375,-0.019547687843441963,0.018325956538319588,-0.01160643994808197
1759336103941681200,0.21168115234375,-0.016493361443281174,-0.02015855349600315,0.013439035043120384
1759336103951681300,0.221681396484375,-0.014049900695681572,-0.03237585723400116,0.0403171069920063
1759336103961681200,0.23168115234375,-0.01160643994808197,-0.033597588539123535,0.042760565876960754
1759336103971681300,0.241681396484375,-0.00733038317412138,-0.029932396486401558,0.030543262138962746
1759336103981681200,0.25168115234375,-0.00366519158706069,-0.013439035043120384,0.015271631069481373
1759336103991681300,0.261681396484375,-0.006719517521560192,0.004886921960860491,-0.012217304669320583
1759336104001681200,0.27168115234375,-0.01466076634824276,0.021380282938480377,-0.027488935738801956
1759336104011681300,0.281681396484375,-0.021991148591041565,0.018325956538319588,-0.03787364438176155
1759336104021678800,0.291678955078125,-0.022602014243602753,0.019547687843441963,-0.045204028487205505
1759336104031678700,0.3016787109375,-0.024434609338641167,0.033597588539123535,-0.05009094998240471
1759336104041678800,0.311678955078125,-0.025656340643763542,0.0555887371301651,-0.05864306539297104
1759336104051678700,0.3216787109375,-0.022602014243602753,0.06719517707824707,-0.06841690838336945
1759336104061678800,0.331678955078125,-0.014049900695681572,0.0708603709936142,-0.07024950534105301
1759336104071678700,0.3416787109375,-0.0024434609804302454,0.06536258012056351,-0.06658431142568588
1759336104081678800,0.351678955078125,0.006719517521560192,0.04153883829712868,-0.04948008432984352
1759336104091678700,0.3616787109375,0.016493361443281174,0.01160643994808197,-0.01466076634824276
1759336104101678800,0.371678955078125,0.02687807008624077,-0.01160643994808197,0.025656340643763542
1759336104111678700,0.3816787109375,0.03298672288656235,-0.029932396486401558,0.05375614017248154
1759336104121678800,0.391678955078125,0.03176499158143997,-0.04459316283464432,0.048258353024721146
1759336104131678700,0.4016787109375,0.02687807008624077,-0.02687807008624077,0.033597588539123535
1759336104141678800,0.411678955078125,0.018325956538319588,-0.006719517521560192,0.0024434609804302454
1759336104151678700,0.4216787109375,0.007941247895359993,0.01466076634824276,-0.021991148591041565
1759336104161678800,0.431678955078125,-0.0006108652451075613,0.02687807008624077,-0.03787364438176155
1759336104171678700,0.4416787109375,-0.00427605677396059,0.04092797264456749,-0.03726277872920036
1759336104181678800,0.451678955078125,-0.0012217304902151227,0.05375614017248154,-0.015882495790719986
1759336104191678700,0.4616787109375,0.0024434609804302454,0.05314527451992035,-0.003054326167330146
1759336104201678800,0.471678955078125,0.004886921960860491,0.04092797264456749,0.01771509274840355
1759336104211678700,0.4816787109375,0.00733038317412138,0.013439035043120384,0.025656340643763542
1759336104221677800,0.491677734375,0.018325956538319588,-0.02015855349600315,0.029932396486401558
1759336104231678000,0.501677978515625,0.04948008432984352,-0.02932153269648552,0.039706241339445114
1759336104241677800,0.511677734375,0.027488935738801956,-0.02932153269648552,0.0507018156349659
1759336104251678000,0.521677978515625,0.012217304669320583,0,0.03237585723400116
1759336104261677800,0.531677734375,0,0.02076941914856434,0.010995574295520782
1759336104271678000,0.541677978515625,-0.00855211354792118,0.039095375686883926,-0.0024434609804302454
1759336104281677800,0.551677734375,-0.01038470957428217,0.05314527451992035,-0.006108652334660292
1759336104291678000,0.561677978515625,-0.009162978269159794,0.06169738993048668,-0.004886921960860491
1759336104301677800,0.571677734375,-0.006108652334660292,0.05619960278272629,0.007941247895359993
1759336104311678000,0.581677978515625,-0.0012217304902151227,0.04764748737215996,0.018325956538319588
1759336104321678800,0.591678955078125,0.00366519158706069,0.02932153269648552,0.012217304669320583
1759336104331678700,0.6016787109375,0.007941247895359993,0.01038470957428217,0.010995574295520782
1759336104341678800,0.611678955078125,0.00427605677396059,-0.009162978269159794,0.005497787147760391
1759336104351678700,0.6216787109375,0.0006108652451075613,-0.010995574295520782,0.006719517521560192
1759336104361678800,0.631678955078125,0.0012217304902151227,-0.010995574295520782,0.01710422709584236
1759336104371678700,0.6416787109375,0.001832595793530345,-0.006719517521560192,0.02015855349600315
1759336104381678000,0.651677978515625,0.00427605677396059,0.00733038317412138,0.029932396486401558
1759336104391678000,0.661677978515625,0.00366519158706069,0.009773843921720982,0.02321287989616394
1759336104401678000,0.671677978515625,0.00366519158706069,0.006108652334660292,0.009162978269159794
1759336104411678000,0.681677978515625,0.00855211354792118,0.004886921960860491,-0.003054326167330146
1759336104421677000,0.691677001953125,0.012217304669320583,-0.005497787147760391,-0.030543262138962746
1759336104431677200,0.70167724609375,0.012217304669320583,-0.01038470957428217,-0.05864306539297104
1759336104441677000,0.711677001953125,0.012828170321881771,-0.0024434609804302454,-0.07330382615327835
1759336104451677200,0.72167724609375,0.012217304669320583,0.00366519158706069,-0.06902777403593063
1759336104461677000,0.731677001953125,0.015882495790719986,0.0006108652451075613,-0.06230825558304787
1759336104471677200,0.74167724609375,0.02687807008624077,-0.006108652334660292,-0.036651913076639175
1759336104481677000,0.751677001953125,0.024434609338641167,-0.00733038317412138,-0.016493361443281174
1759336104491677200,0.76167724609375,0.015882495790719986,-0.009162978269159794,-0.0012217304902151227
1759336104501677000,0.771677001953125,0.009162978269159794,-0.012828170321881771,0.006719517521560192
1759336104511677200,0.78167724609375,0.00427605677396059,-0.02076941914856434,0.0006108652451075613
1759336104521678000,0.791677978515625,0.003054326167330146,-0.01771509274840355,-0.0024434609804302454
1759336104531678000,0.801677978515625,0.005497787147760391,-0.01466076634824276,-0.01038470957428217
1759336104541678000,0.811677978515625,0.012217304669320583,-0.01160643994808197,-0.01038470957428217
1759336104551678000,0.821677978515625,0.01771509274840355,-0.018325956538319588,-0.00855211354792118
1759336104561678000,0.831677978515625,0.02382374368607998,-0.036041051149368286,0.003054326167330146
1759336104571678000,0.841677978515625,0.02871066704392433,-0.048258353024721146,0.025045474991202354
1759336104581678000,0.851677978515625,0.02626720629632473,-0.03726277872920036,0.054367005825042725
1759336104591678000,0.861677978515625,0.02382374368607998,-0.018936822190880775,0.05619960278272629
1759336104601678000,0.871677978515625,0.01710422709584236,0.009162978269159794,0.04337143152952194
1759336104611678000,0.881677978515625,0.00733038317412138,0.0403171069920063,0.01771509274840355
1759336104621677000,0.891677001953125,-0.00366519158706069,0.05619960278272629,-0.004886921960860491
1759336104631677200,0.90167724609375,-0.01710422709584236,0.05619960278272629,-0.02015855349600315
1759336104641677000,0.911677001953125,-0.024434609338641167,0.042760565876960754,-0.021991148591041565
1759336104651677200,0.92167724609375,-0.02687807008624077,0.02076941914856434,-0.012828170321881771
1759336104661677000,0.931677001953125,-0.02626720629632473,-0.00427605677396059,0.0012217304902151227
1759336104671677200,0.94167724609375,-0.018936822190880775,-0.02687807008624077,0.009162978269159794
1759336104681677800,0.951677734375,-0.00855211354792118,-0.03481931984424591,0.014049900695681572
1759336104691678000,0.961677978515625,0,-0.03176499158143997,0.015271631069481373
1759336104701677800,0.971677734375,0.009773843921720982,-0.012828170321881771,0.021380282938480377
1759336104711678000,0.981677978515625,0.01466076634824276,0,0.02382374368607998
1759336104721678600,0.9916787109375,0.016493361443281174,0.01038470957428217,0.018936822190880775
1759336104731678700,1.0016787109375,0.015271631069481373,0.021380282938480377,0.00855211354792118
1759336104741678800,1.011678955078125,0.012828170321881771,0.02871066704392433,-0.00733038317412138
1759336104751678700,1.0216787109375,0.00855211354792118,0.019547687843441963,-0.02626720629632473
1759336104761678300,1.03167822265625,0.005497787147760391,0.009773843921720982,-0.04214970022439957
1759336104771678200,1.04167822265625,0.0024434609804302454,-0.003054326167330146,-0.05192354694008827
1759336104781678300,1.05167822265625,-0.004886921960860491,-0.022602014243602753,-0.05619960278272629
1759336104791678500,1.061678466796875,-0.00366519158706069,-0.018325956538319588,-0.04459316283464432
1759336104801678300,1.07167822265625,0.009773843921720982,-0.01160643994808197,-0.029932396486401558
1759336104811678200,1.08167822265625,0.028099801391363144,-0.004886921960860491,-0.014049900695681572
1759336104821677600,1.091677490234375,0.03237585723400116,0.00855211354792118,-0.005497787147760391
1759336104831677700,1.101677734375,0.033597588539123535,0.018936822190880775,-0.0012217304902151227
1759336104841677600,1.111677490234375,0.02687807008624077,0.02076941914856434,-0.0006108652451075613
1759336104851677700,1.121677734375,0.015882495790719986,0.021991148591041565,-0.00427605677396059
1759336104861677600,1.131677490234375,0.005497787147760391,0.018936822190880775,-0.01710422709584236
1759336104871677700,1.141677734375,-0.0012217304902151227,0.00366519158706069,-0.036651913076639175
1759336104881677600,1.151677490234375,-0.001832595793530345,-0.009773843921720982,-0.05253441259264946
1759336104891677700,1.161677734375,-0.0012217304902151227,-0.015882495790719986,-0.05742133408784866
1759336104901677600,1.171677490234375,0,-0.015882495790719986,-0.054367005825042725
1759336104911677700,1.181677734375,0.005497787147760391,-0.01771509274840355,-0.03848451003432274
1759336104921678600,1.1916787109375,0.016493361443281174,-0.018325956538319588,-0.01466076634824276
1759336104931678500,1.201678466796875,0.036651913076639175,-0.03787364438176155,0.028099801391363144
1759336104941678600,1.2116787109375,0.04214970022439957,-0.04703662544488907,0.05253441259264946
1759336104951678500,1.221678466796875,0.04092797264456749,-0.03848451003432274,0.07269296050071716
1759336104961678600,1.2316787109375,0.03481931984424591,-0.01160643994808197,0.06841690838336945
1759336104971678500,1.241678466796875,0.02871066704392433,0.025045474991202354,0.04459316283464432
1759336104981678600,1.2516787109375,0.02076941914856434,0.05619960278272629,0.012828170321881771
1759336104991678500,1.261678466796875,0.012828170321881771,0.08246681094169617,-0.015882495790719986
1759336105001678600,1.2716787109375,0.006108652334660292,0.09040805697441101,-0.03726277872920036
1759336105011678500,1.281678466796875,-0.0006108652451075613,0.06780604273080826,-0.05253441259264946
1759336105021677800,1.291677734375,-0.007941247895359993,0.0403171069920063,-0.054367005825042725
1759336105031677700,1.301677734375,-0.012217304669320583,0.006108652334660292,-0.04642575979232788
1759336105041677600,1.311677490234375,-0.009773843921720982,-0.0555887371301651,-0.025656340643763542
1759336105051677700,1.321677734375,0,-0.07330382615327835,-0.018325956538319588
1759336105061678000,1.331677978515625,0.004886921960860491,-0.06475171446800232,-0.01466076634824276
1759336105071678000,1.341677978515625,0.003054326167330146,-0.04459316283464432,-0.028099801391363144
1759336105081678000,1.351677978515625,-0.00427605677396059,-0.01466076634824276,-0.042760565876960754
1759336105091677700,1.361677734375,-0.012217304669320583,0.012217304669320583,-0.05803219974040985
1759336105101677600,1.371677490234375,-0.025045474991202354,0.03420845419168472,-0.06963863968849182
1759336105111677700,1.381677734375,-0.03481931984424591,0.05253441259264946,-0.07635815441608429
1759336105121678300,1.39167822265625,-0.0403171069920063,0.05314527451992035,-0.0757472887635231
1759336105131678200,1.40167822265625,-0.04092797264456749,0.04092797264456749,-0.07513642311096191
1759336105141678300,1.41167822265625,-0.04337143152952194,0.025656340643763542,-0.06658431142568588
1759336105151678500,1.421678466796875,-0.04459316283464432,0.012828170321881771,-0.0507018156349659
1759336105161678300,1.43167822265625,-0.04764748737215996,-0.022602014243602753,-0.025045474991202354
1759336105171678500,1.441678466796875,-0.04459316283464432,-0.039095375686883926,-0.01160643994808197
1759336105181678300,1.45167822265625,-0.0354301854968071,-0.03726277872920036,-0.00366519158706069
1759336105191678500,1.461678466796875,-0.03237585723400116,-0.02382374368607998,-0.0024434609804302454
1759336105204847900,1.474847900390625,-0.03237585723400116,-0.01038470957428217,-0.010995574295520782
1759336105214848000,1.484847900390625,-0.0354301854968071,-0.003054326167330146,-0.021991148591041565
1759336105224847000,1.49484716796875,-0.036041051149368286,-0.001832595793530345,-0.03298672288656235
1759336105234847000,1.504846923828125,-0.030543262138962746,-0.00427605677396059,-0.028099801391363144
1759336105244847000,1.51484716796875,-0.022602014243602753,-0.012217304669320583,-0.01160643994808197
1759336105254847000,1.524846923828125,-0.01710422709584236,-0.01710422709584236,0.012217304669320583
1759336105264847000,1.53484716796875,-0.015882495790719986,-0.02076941914856434,0.036041051149368286
1759336105274847000,1.544846923828125,-0.015882495790719986,-0.031154127791523933,0.06169738993048668
1759336105284847000,1.55484716796875,-0.010995574295520782,-0.02015855349600315,0.07147123664617538
1759336105294847000,1.564846923828125,-0.005497787147760391,0.0012217304902151227,0.07880161702632904
1759336105304847000,1.57484716796875,-0.0024434609804302454,0.021991148591041565,0.08124507963657379
1759336105314847000,1.584846923828125,-0.0024434609804302454,0.03787364438176155,0.07757988572120667
1759336105324847900,1.594847900390625,-0.0012217304902151227,0.04642575979232788,0.07330382615327835
1759336105334847700,1.60484765625,-0.003054326167330146,0.039095375686883926,0.06352998316287994
1759336105344848000,1.614847900390625,-0.00366519158706069,0.027488935738801956,0.051312681287527084
1759336105354847700,1.62484765625,0,0.00855211354792118,0.04214970022439957
1759336105364847900,1.634847900390625,0.00733038317412138,-0.01466076634824276,0.039706241339445114
1759336105374847700,1.64484765625,0.015271631069481373,-0.02687807008624077,0.036041051149368286
1759336105384848000,1.654847900390625,0.02015855349600315,-0.029932396486401558,0.028099801391363144
1759336105394848300,1.66484814453125,0.018325956538319588,-0.02015855349600315,0.014049900695681572
1759336105404848400,1.674848388671875,0.01466076634824276,-0.015882495790719986,0.006719517521560192
1759336105414848300,1.68484814453125,0.009773843921720982,-0.009773843921720982,0.00855211354792118
1759336105424847400,1.694847412109375,0.009773843921720982,-0.007941247895359993,0.021380282938480377
1759336105434847500,1.704847412109375,0.006719517521560192,-0.01771509274840355,0.05009094998240471
1759336105444847400,1.714847412109375,-0.003054326167330146,-0.031154127791523933,0.0806342139840126
1759336105454847500,1.724847412109375,-0.01038470957428217,-0.03726277872920036,0.10567969083786011
1759336105464847400,1.734847412109375,-0.01466076634824276,-0.033597588539123535,0.10995574295520782
1759336105474847500,1.744847412109375,-0.013439035043120384,-0.010995574295520782,0.10201449692249298
1759336105484847400,1.754847412109375,-0.015882495790719986,-0.001832595793530345,0.07391469180583954
1759336105494847500,1.764847412109375,-0.01038470957428217,0.02382374368607998,0.03481931984424591
1759336105504847400,1.774847412109375,-0.004886921960860491,0.02321287989616394,-0.01466076634824276
1759336105514847500,1.784847412109375,-0.006108652334660292,0.01771509274840355,-0.0354301854968071
1759336105524848000,1.79484814453125,-0.005497787147760391,0.010995574295520782,-0.039095375686883926
1759336105534848300,1.80484814453125,-0.00366519158706069,0.009773843921720982,-0.02932153269648552
1759336105544848100,1.81484814453125,-0.003054326167330146,0.005497787147760391,-0.013439035043120384
1759336105554848300,1.82484814453125,-0.0006108652451075613,0.006108652334660292,0.001832595793530345
1759336105564848000,1.83484814453125,0.001832595793530345,0.014049900695681572,0.009162978269159794
1759336105574848300,1.84484814453125,0.001832595793530345,0.014049900695681572,0.015271631069481373
1759336105584848100,1.85484814453125,0,0.005497787147760391,0.02076941914856434
1759336105594848300,1.86484814453125,-0.0024434609804302454,-0.00733038317412138,0.02626720629632473
1759336105604848000,1.87484814453125,-0.00733038317412138,-0.019547687843441963,0.029932396486401558
1759336105614848300,1.88484814453125,-0.009162978269159794,-0.022602014243602753,0.03787364438176155
1759336105624847400,1.894847412109375,-0.00733038317412138,-0.021991148591041565,0.04459316283464432
1759336105634847500,1.904847412109375,-0.001832595793530345,-0.015882495790719986,0.051312681287527084
1759336105644847400,1.914847412109375,0.001832595793530345,-0.012217304669320583,0.05375614017248154
1759336105654847500,1.924847412109375,0.00366519158706069,-0.009162978269159794,0.04886921867728233
1759336105664847400,1.934847412109375,0.005497787147760391,-0.0024434609804302454,0.04886921867728233
1759336105674847500,1.944847412109375,0.005497787147760391,0,0.05253441259264946
1759336105684847400,1.954847412109375,0.00366519158706069,-0.006719517521560192,0.05803219974040985
1759336105694847500,1.964847412109375,0,-0.022602014243602753,0.06352998316287994
1759336105704847400,1.974847412109375,-0.009162978269159794,-0.03726277872920036,0.07452555745840073
1759336105714847500,1.984847412109375,-0.02015855349600315,-0.04092797264456749,0.07757988572120667
1759336105724848000,1.99484814453125,-0.025656340643763542,-0.039095375686883926,0.06841690838336945
1759336105734848300,2.00484814453125,-0.02626720629632473,-0.016493361443281174,0.039706241339445114
1759336105744848400,2.014848388671875,-0.025045474991202354,0.006108652334660292,0.019547687843441963
1759336105754848300,2.02484814453125,-0.02382374368607998,0.02626720629632473,0.007941247895359993
1759336105764848400,2.034848388671875,-0.01710422709584236,0.033597588539123535,0.004886921960860491
1759336105774848300,2.04484814453125,-0.012217304669320583,0.016493361443281174,0.01160643994808197
1759336105784848400,2.054848388671875,-0.007941247895359993,-0.006108652334660292,0.025045474991202354
1759336105794848300,2.06484814453125,-0.0012217304902151227,-0.028099801391363144,0.03848451003432274
1759336105804848400,2.074848388671875,0.00733038317412138,-0.04214970022439957,0.04948008432984352
1759336105814848300,2.08484814453125,0.009773843921720982,-0.04398229718208313,0.048258353024721146
1759336105824847400,2.094847412109375,0.00733038317412138,-0.0354301854968071,0.04092797264456749
1759336105834847500,2.104847412109375,0.0024434609804302454,-0.019547687843441963,0.021991148591041565
1759336105844847400,2.114847412109375,-0.00855211354792118,0.007941247895359993,-0.012828170321881771
1759336105854847500,2.124847412109375,-0.015882495790719986,0.022602014243602753,-0.02321287989616394
1759336105864847400,2.134847412109375,-0.021380282938480377,0.025656340643763542,-0.022602014243602753
1759336105874847500,2.144847412109375,-0.022602014243602753,0.016493361443281174,-0.016493361443281174
1759336105884847400,2.154847412109375,-0.021991148591041565,0.01160643994808197,0.0012217304902151227
1759336105894847500,2.164847412109375,-0.02076941914856434,0.00427605677396059,0.01710422709584236
1759336105904847400,2.174847412109375,-0.02321287989616394,-0.007941247895359993,0.02871066704392433
1759336105914847500,2.184847412109375,-0.02382374368607998,-0.00427605677396059,0.029932396486401558
1759336105924848400,2.194848388671875,-0.021380282938480377,0.004886921960860491,0.02871066704392433
1759336105934848300,2.20484814453125,-0.018936822190880775,0.012828170321881771,0.028099801391363144
1759336105944848400,2.214848388671875,-0.018936822190880775,0.018936822190880775,0.029932396486401558
1759336105954848300,2.22484814453125,-0.01771509274840355,0.021991148591041565,0.028099801391363144
1759336105964848400,2.234848388671875,-0.01771509274840355,0.018936822190880775,0.019547687843441963
1759336105974848300,2.24484814453125,-0.01771509274840355,0.012828170321881771,0.01771509274840355
1759336105984848400,2.254848388671875,-0.019547687843441963,0.01466076634824276,0.01771509274840355
1759336105994848300,2.26484814453125,-0.02382374368607998,0.018325956538319588,0.016493361443281174
1759336106004848400,2.274848388671875,-0.025656340643763542,0.01160643994808197,0.018325956538319588
1759336106014848300,2.28484814453125,-0.02382374368607998,-0.0012217304902151227,0.01771509274840355
1759336106024847600,2.29484765625,-0.018325956538319588,0.00366519158706069,0.01771509274840355
1759336106034847500,2.304847412109375,-0.012217304669320583,0.01710422709584236,0.016493361443281174
1759336106044847400,2.314847412109375,-0.01038470957428217,0.01710422709584236,0.010995574295520782
1759336106054847500,2.324847412109375,-0.006108652334660292,0.01160643994808197,0.006108652334660292
1759336106064847400,2.334847412109375,0.003054326167330146,0.010995574295520782,-0.0006108652451075613
1759336106074847500,2.344847412109375,0.01466076634824276,0.012828170321881771,-0.00427605677396059
1759336106084847400,2.354847412109375,0.01710422709584236,0.019547687843441963,-0.006108652334660292
1759336106094847500,2.364847412109375,0.01771509274840355,0.03237585723400116,0.0012217304902151227
1759336106104847400,2.374847412109375,0.02382374368607998,0.0354301854968071,0.01771509274840355
1759336106114847500,2.384847412109375,0.03420845419168472,0.03298672288656235,0.02932153269648552
1759336106124848400,2.394848388671875,0.03848451003432274,0.024434609338641167,0.031154127791523933
1759336106134848300,2.40484814453125,0.0354301854968071,0.025045474991202354,0.027488935738801956
1759336106144848400,2.414848388671875,0.02687807008624077,0.029932396486401558,0.014049900695681572
1759336106154848300,2.42484814453125,0.016493361443281174,0.025656340643763542,-0.012217304669320583
1759336106164848400,2.434848388671875,0.012828170321881771,0.014049900695681572,-0.036651913076639175
1759336106174848300,2.44484814453125,0.01466076634824276,0.0012217304902151227,-0.05192354694008827
1759336106184848400,2.454848388671875,0.016493361443281174,-0.010995574295520782,-0.04581489413976669
1759336106194848300,2.46484814453125,0.01710422709584236,-0.012828170321881771,-0.007941247895359993
1759336106204848400,2.474848388671875,0.010995574295520782,-0.009773843921720982,0.014049900695681572
1759336106214848300,2.48484814453125,0.004886921960860491,-0.0006108652451075613,0.01771509274840355
1759336106224847400,2.494847412109375,-0.00366519158706069,0.010995574295520782,-0.0024434609804302454
1759336106234847500,2.504847412109375,-0.016493361443281174,0.012217304669320583,-0.04092797264456749
1759336106244847400,2.514847412109375,-0.0354301854968071,0.015882495790719986,-0.08246681094169617
1759336106254847500,2.524847412109375,-0.05192354694008827,0.018936822190880775,-0.11667526513338089
1759336106264847400,2.534847412109375,-0.06230825558304787,0.015882495790719986,-0.1313360333442688
1759336106274847500,2.544847412109375,-0.059864792972803116,0.00855211354792118,-0.12950342893600464
1759336106284847400,2.554847412109375,-0.0507018156349659,-0.006719517521560192,-0.10567969083786011
1759336106294847500,2.564847412109375,-0.042760565876960754,-0.02871066704392433,-0.07880161702632904
1759336106304847400,2.574847412109375,-0.021380282938480377,-0.054367005825042725,-0.04948008432984352
1759336106314847500,2.584847412109375,-0.010995574295520782,-0.05192354694008827,-0.039706241339445114
1759336106324848400,2.594848388671875,-0.012217304669320583,-0.05192354694008827,-0.05497787147760391
1759336106334848300,2.60484814453125,-0.018936822190880775,-0.04642575979232788,-0.08368854224681854
1759336106344848400,2.614848388671875,-0.028099801391363144,-0.04459316283464432,-0.10751228034496307
1759336106354848300,2.62484814453125,-0.039095375686883926,-0.04764748737215996,-0.1264491081237793
1759336106364848400,2.634848388671875,-0.04398229718208313,-0.018325956538319588,-0.14966198801994324
1759336106374848300,2.64484814453125,-0.04948008432984352,0.005497787147760391,-0.15454891324043274
1759336106384848400,2.654848388671875,-0.05314527451992035,0.03298672288656235,-0.1417207419872284
1759336106394848300,2.66484814453125,-0.06169738993048668,0.06841690838336945,-0.11178833991289139
1759336106404848400,2.674848388671875,-0.07941248267889023,0.07757988572120667,-0.1062905490398407
1759336106414848300,2.68484814453125,-0.10018189996480942,0.09162978827953339,-0.13011430203914642
1759336106424847600,2.69484765625,-0.11301007121801376,0.09407325088977814,-0.17409659922122955
1759336106434847500,2.704847412109375,-0.10567969083786011,0.06719517707824707,-0.15760323405265808
1759336106444847400,2.714847412109375,-0.05497787147760391,0.06291911751031876,-0.05314527451992035
1759336106454847500,2.724847412109375,-0.036041051149368286,0.018936822190880775,0.11301007121801376
1759336106464847400,2.734847412109375,-0.04581489413976669,-0.08429940044879913,0.26083946228027344
1759336106474847500,2.744847412109375,-0.036651913076639175,-0.14233160018920898,0.3274237811565399
1759336106484847400,2.754847412109375,-0.004886921960860491,-0.18997909128665924,0.27550023794174194
1759336106494847500,2.764847412109375,0.05803219974040985,-0.24373523890972137,0.1160643994808197
1759336106504847400,2.774847412109375,0.0659734457731247,-0.20341812074184418,-0.10384709388017654
1759336106514847500,2.784847412109375,0.03237585723400116,-0.15027284622192383,-0.3585779070854187
1759336106524848400,2.794848388671875,-0.04092797264456749,-0.11972958594560623,-0.6298020482063293
1759336106534848300,2.80484814453125,-0.1563815027475357,-0.10262536257505417,-0.8979719281196594
1759336106544848400,2.814848388671875,-0.1716531366109848,-0.07696902006864548,-0.9486737251281738
1759336106554848300,2.82484814453125,-0.1569923609495163,-0.10201449692249298,-0.9633345007896423
1759336106564848400,2.834848388671875,-0.11056660860776901,-0.11423180252313614,-0.9266825914382935
1759336106574848300,2.84484814453125,-0.07757988572120667,-0.08552113175392151,-0.8723155856132507
1759336106584848400,2.854848388671875,-0.05497787147760391,-0.03848451003432274,-0.8344419002532959
1759336106594848300,2.86484814453125,-0.04642575979232788,0.012828170321881771,-0.8356636762619019
1759336106604848400,2.874848388671875,-0.06108652427792549,0.059864792972803116,-0.8613200187683105
1759336106614848300,2.88484814453125,-0.06108652427792549,0.08552113175392151,-0.8429940342903137
1759336106624847400,2.894847412109375,-0.02321287989616394,0.06475171446800232,-0.749531626701355
1759336106634847500,2.904847412109375,0.025045474991202354,-0.02871066704392433,-0.626747727394104
1759336106644847400,2.914847412109375,0.07880161702632904,-0.1264491081237793,-0.5064072608947754
1759336106654847500,2.924847412109375,0.1368338167667389,-0.2883284091949463,-0.40072759985923767
1759336106664847400,2.934847412109375,0.1270599663257599,-0.3243694305419922,-0.3549126982688904
1759336106674847500,2.944847412109375,0.09162978827953339,-0.2938261926174164,-0.33047810196876526
1759336106684847400,2.954847412109375,0.04337143152952194,-0.22479841113090515,-0.3176499307155609
1759336106694847500,2.964847412109375,0,-0.14294247329235077,-0.3176499307155609
1759336106704847400,2.974847412109375,-0.039706241339445114,-0.08307767659425735,-0.36102136969566345
1759336106714847500,2.984847412109375,-0.08246681094169617,-0.022602014243602753,-0.44593164324760437
1759336106724848000,2.99484814453125,-0.11545353382825851,0.09040805697441101,-0.5381723046302795
1759336106734848300,3.00484814453125,-0.1313360333442688,0.22540926933288574,-0.6157521605491638
1759336106744848400,3.014848388671875,-0.14049901068210602,0.33047810196876526,-0.6609562039375305
1759336106754848300,3.02484814453125,-0.1466076523065567,0.4196644127368927,-0.6475171446800232
1759336106764848400,3.034848388671875,-0.16371189057826996,0.5277875661849976,-0.5174028873443604
1759336106774848300,3.04484814453125,-0.18936823308467865,0.5455026626586914,-0.38667771220207214
1759336106784848100,3.05484814453125,-0.2278527319431305,0.5772676467895508,-0.24984388053417206
1759336106794848300,3.06484814453125,-0.2638937830924988,0.6163630485534668,-0.13744467496871948
1759336106804848000,3.07484814453125,-0.26083946228027344,0.6383541822433472,-0.06963863968849182
1759336106814848300,3.08484814453125,-0.23090706765651703,0.6114761233329773,-0.051312681287527084
1759336106824847400,3.094847412109375,-0.19120082259178162,0.5338962078094482,-0.06719517707824707
1759336106834847200,3.10484716796875,-0.15577064454555511,0.4447098970413208,-0.08002334833145142
1759336106844847400,3.114847412109375,-0.11667526513338089,0.38240164518356323,-0.051312681287527084
1759336106854847200,3.12484716796875,-0.07880161702632904,0.34574973583221436,0.036041051149368286
1759336106864847400,3.134847412109375,-0.05803219974040985,0.31642818450927734,0.1508837193250656
1759336106874847200,3.14484716796875,-0.042760565876960754,0.28038713335990906,0.2779437005519867
1759336106884847400,3.154847412109375,-0.051312681287527084,0.2217440903186798,0.45142942667007446
1759336106894847200,3.16484716796875,-0.07941248267889023,0.19425514340400696,0.5229006409645081
1759336106904847400,3.174847412109375,-0.11484266817569733,0.1869247704744339,0.5522221922874451
1759336106914847200,3.18484716796875,-0.1563815027475357,0.19425514340400696,0.5381723046302795
1759336106924848000,3.19484814453125,-0.192422553896904,0.192422553896904,0.4954117238521576
1759336106934848300,3.20484814453125,-0.2223549485206604,0.19975294172763824,0.44715335965156555
1759336106944848100,3.21484814453125,-0.24190263450145721,0.22296582162380219,0.39584067463874817
1759336106954848300,3.22484814453125,-0.2528982162475586,0.25045475363731384,0.3481931984424591
1759336106964848000,3.23484814453125,-0.2620611786842346,0.25534167885780334,0.3182607889175415
1759336106974848300,3.24484814453125,-0.29565876722335815,0.2577851414680481,0.3243694305419922
1759336106984848100,3.25484814453125,-0.34025195240974426,0.2840523421764374,0.3646865487098694
1759336106994848300,3.26484814453125,-0.39156460762023926,0.3280346393585205,0.394618958234787
1759336107004848000,3.27484814453125,-0.41172316670417786,0.32559117674827576,0.3793473243713379
1759336107014848300,3.28484814453125,-0.41661009192466736,0.303600013256073,0.35124751925468445
1759336107024847400,3.294847412109375,-0.4056145250797272,0.2932153046131134,0.3170390725135803
1759336107034847500,3.304847412109375,-0.39095374941825867,0.29138273000717163,0.27550023794174194
1759336107044847400,3.314847412109375,-0.3744603991508484,0.3023782968521118,0.24190263450145721
1759336107054847200,3.32484716796875,-0.37201693654060364,0.31642818450927734,0.2168571650981903
1759336107064847400,3.334847412109375,-0.3732386529445648,0.3628539443016052,0.21441370248794556
1759336107074847200,3.34484716796875,-0.3799581825733185,0.42088615894317627,0.22296582162380219
1759336107084847400,3.354847412109375,-0.3701843321323395,0.47830748558044434,0.24373523890972137
1759336107094847500,3.364847412109375,-0.3280346393585205,0.4758640229701996,0.2773328125476837
1759336107104847400,3.374847412109375,-0.2773328125476837,0.39584067463874817,0.32986724376678467
1759336107114847200,3.38484716796875,-0.18997909128665924,0.19486601650714874,0.4343251883983612
1759336107124848000,3.39484814453125,-0.1270599663257599,0.01466076634824276,0.4996877610683441
1759336107134848300,3.40484814453125,-0.04092797264456749,-0.17043140530586243,0.5742133259773254
1759336107144848400,3.414848388671875,0.024434609338641167,-0.33536502718925476,0.6499606370925903
1759336107154848300,3.42484814453125,0.08918632566928864,-0.50335294008255,0.7159340381622314
1759336107164848400,3.434848388671875,0.14844025671482086,-0.6591235995292664,0.7727445363998413
1759336107174848300,3.44484814453125,0.17959438264369965,-0.7953465580940247,0.8222246170043945
1759336107184848400,3.454848388671875,0.17837265133857727,-0.8900306820869446,0.8827002644538879
1759336107194848300,3.46484814453125,0.1508837193250656,-0.8503243923187256,0.9627236127853394
1759336107204848400,3.474848388671875,0.09957103431224823,-0.7483099102973938,1.0415252447128296
1759336107214848300,3.48484814453125,0.039706241339445114,-0.6548475623130798,1.1172724962234497
1759336107224847400,3.494847412109375,0.001832595793530345,-0.5613851547241211,1.1618657112121582
1759336107234847500,3.504847412109375,-0.02382374368607998,-0.45753806829452515,1.131933331489563
1759336107244847400,3.514847412109375,-0.030543262138962746,-0.41661009192466736,1.0714576244354248
1759336107254847500,3.524847412109375,-0.031154127791523933,-0.37568211555480957,0.9957103729248047
1759336107264847400,3.534847412109375,-0.04398229718208313,-0.3585779070854187,0.9010262489318848
1759336107274847500,3.544847412109375,-0.0757472887635231,-0.3738495409488678,0.7941248416900635
1759336107284847400,3.554847412109375,-0.1160643994808197,-0.42210787534713745,0.6982190012931824
1759336107294847500,3.564847412109375,-0.18570303916931152,-0.42577308416366577,0.6249151229858398
1759336107304847400,3.574847412109375,-0.28466320037841797,-0.3494149148464203,0.5760459303855896
1759336107314847500,3.584847412109375,-0.3744603991508484,-0.21807889640331268,0.5320636034011841
1759336107324848000,3.59484814453125,-0.4398229718208313,-0.07208210229873657,0.48258355259895325
1759336107334848300,3.60484814453125,-0.4764748811721802,0.0555887371301651,0.4300491213798523
1759336107344848100,3.61484814453125,-0.48380526900291443,0.14966198801994324,0.3494149148464203
1759336107354848300,3.62484814453125,-0.4642575979232788,0.12339477986097336,0.29077184200286865
1759336107364848000,3.63484814453125,-0.42271876335144043,0.036651913076639175,0.2382374405860901
1759336107374848300,3.64484814453125,-0.37690386176109314,-0.09957103431224823,0.18020524084568024
1759336107384848100,3.65484814453125,-0.34513887763023376,-0.2791654169559479,0.12400564551353455
1759336107394848300,3.66484814453125,-0.3341432809829712,-0.44776421785354614,0.07269296050071716
1759336107404848000,3.67484814453125,-0.34513887763023376,-0.5571091175079346,0.015271631069481373
1759336107414848300,3.68484814453125,-0.35735616087913513,-0.5662720799446106,-0.054367005825042725
1759336107424847400,3.694847412109375,-0.3591887652873993,-0.47830748558044434,-0.13500121235847473
1759336107434847500,3.704847412109375,-0.35124751925468445,-0.3225368559360504,-0.21441370248794556
1759336107444847400,3.714847412109375,-0.32498031854629517,-0.13927727937698364,-0.2828305959701538
1759336107454847200,3.72484716796875,-0.2571742534637451,0.10323622822761536,-0.3390302062034607
1759336107464847400,3.734847412109375,-0.2168571650981903,0.2076941877603531,-0.3433062732219696
1759336107474847200,3.74484716796875,-0.18509216606616974,0.24434609711170197,-0.3445279896259308
1759336107484847400,3.754847412109375,-0.17104226350784302,0.21624629199504852,-0.34086281061172485
1759336107494847200,3.76484716796875,-0.15821409225463867,0.16004669666290283,-0.3280346393585205
1759336107504847400,3.774847412109375,-0.12767083942890167,0.0708603709936142,-0.2981022298336029
1759336107514847200,3.78484716796875,-0.07941248267889023,-0.029932396486401558,-0.2590068578720093
1759336107524848000,3.79484814453125,-0.02076941914856434,-0.11301007121801376,-0.21502456068992615
1759336107534848300,3.80484814453125,0.03848451003432274,-0.18814650177955627,-0.1722639948129654
1759336107544848100,3.81484814453125,0.09224065393209457,-0.23579397797584534,-0.1264491081237793
1759336107554848300,3.82484814453125,0.12889257073402405,-0.24862214922904968,-0.08552113175392151
1759336107564848000,3.83484814453125,0.1466076523065567,-0.2028072625398636,-0.045204028487205505
1759336107574848300,3.84484814453125,0.13866640627384186,-0.11178833991289139,-0.021380282938480377
1759336107584848100,3.85484814453125,0.11728613078594208,-0.054367005825042725,-0.033597588539123535
1759336107594848300,3.86484814453125,0.08674286305904388,0.006719517521560192,-0.06536258012056351
1759336107604848000,3.87484814453125,0.06291911751031876,0.05864306539297104,-0.11178833991289139
1759336107614848300,3.88484814453125,0.04459316283464432,0.09224065393209457,-0.16493362188339233
1759336107624847400,3.894847412109375,0.03481931984424591,0.10567969083786011,-0.21380282938480377
1759336107634847200,3.90484716796875,0.03787364438176155,0.11423180252313614,-0.23457226157188416
1759336107644847400,3.914847412109375,0.04886921867728233,0.09285151958465576,-0.2321287989616394
1759336107654847200,3.92484716796875,0.0555887371301651,0.051312681287527084,-0.20097467303276062
1759336107664847400,3.934847412109375,0.05497787147760391,0.014049900695681572,-0.15454891324043274
1759336107674847200,3.94484716796875,0.04092797264456749,-0.006108652334660292,-0.10384709388017654
1759336107684847400,3.954847412109375,0.014049900695681572,0.030543262138962746,-0.04764748737215996
1759336107694847200,3.96484716796875,0.003054326167330146,0.08674286305904388,-0.02321287989616394
1759336107704847400,3.974847412109375,0,0.14416420459747314,-0.006719517521560192
1759336107714847200,3.98484716796875,-0.001832595793530345,0.1771509200334549,0.001832595793530345
1759336107724848000,3.99484814453125,-0.00733038317412138,0.18997909128665924,0.005497787147760391
1759336107734848300,4.00484814453125,-0.009162978269159794,0.19547687470912933,0.01160643994808197
1759336107744848100,4.01484814453125,-0.019547687843441963,0.1667662113904953,0.02382374368607998
1759336107754848300,4.02484814453125,-0.025045474991202354,0.13561208546161652,0.04581489413976669
1759336107764848000,4.03484814453125,-0.022602014243602753,0.12461651116609573,0.05925392732024193
1759336107774848300,4.04484814453125,-0.018325956538319588,0.09712757170200348,0.06475171446800232
1759336107784848100,4.05484814453125,-0.009162978269159794,0.05497787147760391,0.06963863968849182
1759336107794848300,4.06484814453125,0.0012217304902151227,0.006108652334660292,0.06902777403593063
1759336107804848000,4.07484814453125,0.01160643994808197,-0.06963863968849182,0.07391469180583954
1759336107814848300,4.08484814453125,0.003054326167330146,-0.08979719132184982,0.08307767659425735
1759336107824847400,4.094847412109375,-0.01160643994808197,-0.09162978827953339,0.08979719132184982
1759336107834847200,4.10484716796875,-0.016493361443281174,-0.09651670604944229,0.09224065393209457
1759336107844847400,4.114847412109375,-0.00366519158706069,-0.11178833991289139,0.10384709388017654
1759336107854847200,4.12484716796875,0.014049900695681572,-0.1319468915462494,0.13072516024112701
1759336107864847400,4.134847412109375,0.018936822190880775,-0.15393804013729095,0.14416420459747314
1759336107874847200,4.14484716796875,0.009162978269159794,-0.16432274878025055,0.13927727937698364
1759336107884847400,4.154847412109375,-0.007941247895359993,-0.15454891324043274,0.12828169763088226
1759336107894847500,4.164847412109375,-0.028099801391363144,-0.1270599663257599,0.11545353382825851
1759336107904847400,4.174847412109375,-0.04214970022439957,-0.08246681094169617,0.09224065393209457
1759336107914847500,4.184847412109375,-0.03787364438176155,-0.00366519158706069,0.05009094998240471
1759336107924848000,4.19484814453125,-0.033597588539123535,0.009773843921720982,0.022602014243602753
1759336107934848300,4.20484814453125,-0.03420845419168472,0.030543262138962746,0.007941247895359993
1759336107944848400,4.214848388671875,-0.04642575979232788,0.05497787147760391,-0.0012217304902151227
1759336107954848300,4.22484814453125,-0.06230825558304787,0.0757472887635231,0.001832595793530345
1759336107964848000,4.23484814453125,-0.07024950534105301,0.0861319974064827,0.01466076634824276
1759336107974848300,4.24484814453125,-0.07330382615327835,0.09896016865968704,0.030543262138962746
1759336107984848400,4.254848388671875,-0.06841690838336945,0.11667526513338089,0.045204028487205505
1759336107994848300,4.26484814453125,-0.0659734457731247,0.11850785464048386,0.06169738993048668
1759336108004848000,4.27484814453125,-0.054367005825042725,0.1258382350206375,0.06902777403593063
1759336108014848300,4.28484814453125,-0.039706241339445114,0.10751228034496307,0.0555887371301651
1759336108024847400,4.294847412109375,-0.027488935738801956,0.08002334833145142,0.02321287989616394
1759336108034847500,4.304847412109375,-0.00733038317412138,0.07269296050071716,-0.018325956538319588
1759336108044847400,4.314847412109375,0,0.05619960278272629,-0.03848451003432274
1759336108054847200,4.32484716796875,0,0.0507018156349659,-0.04764748737215996
1759336108064847400,4.334847412109375,0,0.039706241339445114,-0.05009094998240471
1759336108074847200,4.34484716796875,-0.0006108652451075613,-0.007941247895359993,-0.05742133408784866
1759336108084847400,4.354847412109375,0.007941247895359993,-0.05497787147760391,-0.05925392732024193
1759336108094847200,4.36484716796875,0.02321287989616394,-0.08368854224681854,-0.06719517707824707
1759336108104847400,4.374847412109375,0.03726277872920036,-0.10018189996480942,-0.06780604273080826
1759336108114847200,4.38484716796875,0.04459316283464432,-0.11056660860776901,-0.07696902006864548
1759336108124848000,4.39484814453125,0.05192354694008827,-0.08368854224681854,-0.08857546001672745
1759336108134848300,4.40484814453125,0.05497787147760391,-0.03420845419168472,-0.10262536257505417
1759336108144848100,4.41484814453125,0.048258353024721146,0.02382374368607998,-0.09651670604944229
1759336108154848300,4.42484814453125,0.03848451003432274,0.04398229718208313,-0.08674286305904388
1759336108164848000,4.43484814453125,0.03420845419168472,0.06291911751031876,-0.07819075137376785
1759336108174848300,4.44484814453125,0.03481931984424591,0.06414084881544113,-0.07024950534105301
1759336108184849000,4.454848876953125,0.03176499158143997,0.04092797264456749,-0.07452555745840073
1759336108194848800,4.464848876953125,0.021380282938480377,0.01771509274840355,-0.08368854224681854
1759336108204849000,4.474848876953125,0.007941247895359993,-0.006108652334660292,-0.0757472887635231
1759336108214848800,4.484848876953125,0.0006108652451075613,-0.00733038317412138,-0.0507018156349659
1759336108224848000,4.494847900390625,-0.006108652334660292,-0.01160643994808197,-0.025656340643763542
1759336108234848000,4.504847900390625,-0.016493361443281174,-0.009162978269159794,-0.007941247895359993
1759336108244847900,4.514847900390625,-0.02321287989616394,-0.001832595793530345,-0.005497787147760391
1759336108254848000,4.524847900390625,-0.024434609338641167,0.009162978269159794,-0.024434609338641167
1759336108264848000,4.534847900390625,-0.01771509274840355,0.02321287989616394,-0.07941248267889023
1759336108274848000,4.544847900390625,-0.02076941914856434,0.04642575979232788,-0.11850785464048386
1759336108284847900,4.554847900390625,-0.02382374368607998,0.06841690838336945,-0.15027284622192383
1759336108294848000,4.564847900390625,-0.025045474991202354,0.0757472887635231,-0.16554448008537292
1759336108304848000,4.574847900390625,-0.01771509274840355,0.06230825558304787,-0.1508837193250656
1759336108314848000,4.584847900390625,-0.0006108652451075613,0.03176499158143997,-0.10690141469240189
1759336108324848600,4.5948486328125,0.01771509274840355,0.0012217304902151227,-0.05742133408784866
1759336108334848800,4.604848876953125,0.02871066704392433,-0.02626720629632473,-0.01466076634824276
1759336108344848600,4.6148486328125,0.03420845419168472,-0.04337143152952194,0.010995574295520782
1759336108354848800,4.624848876953125,0.036651913076639175,-0.04703662544488907,0.025045474991202354
1759336108364848600,4.6348486328125,0.03176499158143997,-0.0403171069920063,0.027488935738801956
1759336108374848800,4.644848876953125,0.01466076634824276,-0.013439035043120384,0.03237585723400116
1759336108384849000,4.654848876953125,0.00366519158706069,0,0.0354301854968071
1759336108394848800,4.664848876953125,-0.0006108652451075613,0.006108652334660292,0.029932396486401558
1759336108404849000,4.674848876953125,-0.0006108652451075613,0.01771509274840355,0.022602014243602753
1759336108414848800,4.684848876953125,-0.0024434609804302454,0.03481931984424591,0.00733038317412138
1759336108424848000,4.694847900390625,-0.00855211354792118,0.036041051149368286,-0.012217304669320583
1759336108434848000,4.704847900390625,-0.012217304669320583,0.021991148591041565,-0.029932396486401558
1759336108444847900,4.714847900390625,-0.00733038317412138,0.012217304669320583,-0.03237585723400116
1759336108454848000,4.724847900390625,0.001832595793530345,0.007941247895359993,-0.02687807008624077
1759336108464848000,4.734847900390625,0.005497787147760391,-0.01038470957428217,-0.01710422709584236
1759336108474848000,4.744847900390625,0.004886921960860491,-0.013439035043120384,-0.012217304669320583
1759336108484847400,4.754847412109375,0.0012217304902151227,-0.019547687843441963,-0.02015855349600315
1759336108494847500,4.764847412109375,-0.00427605677396059,-0.009773843921720982,-0.05742133408784866
1759336108504847400,4.774847412109375,-0.006719517521560192,0.03420845419168472,-0.08674286305904388
1759336108514847500,4.784847412109375,-0.01160643994808197,0.06719517707824707,-0.11545353382825851
1759336108524848400,4.794848388671875,-0.012828170321881771,0.06902777403593063,-0.1215621829032898
1759336108534848300,4.80484814453125,-0.006108652334660292,0.039095375686883926,-0.10262536257505417
1759336108544848400,4.814848388671875,0.001832595793530345,-0.004886921960860491,-0.06291911751031876
1759336108554848300,4.82484814453125,0.009773843921720982,-0.03481931984424591,-0.015882495790719986
1759336108564848400,4.834848388671875,0.01038470957428217,-0.07330382615327835,0.009773843921720982
1759336108574848300,4.84484814453125,0.00855211354792118,-0.07391469180583954,0.021380282938480377
1759336108584848400,4.854848388671875,0.005497787147760391,-0.06780604273080826,0.014049900695681572
1759336108594848300,4.86484814453125,-0.00366519158706069,-0.05375614017248154,-0.00733038317412138
1759336108604848400,4.874848388671875,-0.01038470957428217,-0.027488935738801956,-0.051312681287527084
1759336108614848300,4.88484814453125,-0.01038470957428217,-0.022602014243602753,-0.08307767659425735
1759336108624847400,4.894847412109375,-0.01038470957428217,-0.021380282938480377,-0.10873401165008545
1759336108634847500,4.904847412109375,-0.01710422709584236,-0.018325956538319588,-0.12034045159816742
1759336108644847400,4.914847412109375,-0.025045474991202354,-0.012217304669320583,-0.11789698898792267
1759336108654847500,4.924847412109375,-0.031154127791523933,-0.010995574295520782,-0.1007927656173706
1759336108664847400,4.934847412109375,-0.03237585723400116,-0.016493361443281174,-0.07024950534105301
1759336108674847500,4.944847412109375,-0.02687807008624077,-0.025656340643763542,-0.030543262138962746
1759336108684847400,4.954847412109375,-0.01710422709584236,-0.04337143152952194,0.006108652334660292
1759336108694847200,4.96484716796875,0.004886921960860491,-0.05314527451992035,0.028099801391363144
1759336108704847400,4.974847412109375,0.02321287989616394,-0.06414084881544113,0.039706241339445114
1759336108714847200,4.98484716796875,0.036041051149368286,-0.08307767659425735,0.036041051149368286
1759336108724848000,4.99484814453125,0.04153883829712868,-0.1160643994808197,0.01710422709584236
1759336108734848300,5.00484814453125,0.031154127791523933,-0.1472185254096985,0.009162978269159794
1759336108744848100,5.01484814453125,0.01771509274840355,-0.1918116807937622,0.00855211354792118
1759336108754848300,5.02484814453125,-0.0024434609804302454,-0.24373523890972137,0.01771509274840355
1759336108764848000,5.03484814453125,-0.02321287989616394,-0.27488934993743896,0.04703662544488907
1759336108774848300,5.04484814453125,-0.033597588539123535,-0.3139847218990326,0.14355333149433136
1759336108784848100,5.05484814453125,-0.04092797264456749,-0.3237585723400116,0.14966198801994324
1759336108794848300,5.06484814453125,-0.06230825558304787,-0.251676470041275,0.1472185254096985
1759336108804848000,5.07484814453125,-0.059864792972803116,-0.1417207419872284,0.08918632566928864
1759336108824847400,5.094847412109375,-0.02321287989616394,0.1160643994808197,-0.10384709388017654
1759336108844847400,5.114847412109375,-0.03726277872920036,0.1771509200334549,-0.12828169763088226
1759336108854847200,5.12484716796875,-0.048258353024721146,0.14538592100143433,-0.09896016865968704
1759336108864847400,5.134847412109375,-0.0659734457731247,0.13805554807186127,-0.09651670604944229
1759336108874847200,5.14484716796875,-0.07391469180583954,0.13439035415649414,-0.09834930300712585
1759336108884847400,5.154847412109375,-0.07452555745840073,0.1264491081237793,-0.08674286305904388
1759336108894847200,5.16484716796875,-0.07819075137376785,0.11178833991289139,-0.07330382615327835
1759336108904847400,5.174847412109375,-0.08368854224681854,0.08918632566928864,-0.05619960278272629
1759336108914847200,5.18484716796875,-0.0910189226269722,0.05925392732024193,-0.045204028487205505
1759336108924848000,5.19484814453125,-0.0959058403968811,0.06536258012056351,-0.03787364438176155
1759336108934848300,5.20484814453125,-0.09285151958465576,0.08735372871160507,-0.04398229718208313
1759336108944848100,5.21484814453125,-0.08307767659425735,0.1270599663257599,-0.042760565876960754
1759336108954848300,5.22484814453125,-0.059864792972803116,0.12034045159816742,-0.030543262138962746
1759336108964848000,5.23484814453125,-0.051312681287527084,0.09712757170200348,0.01038470957428217
1759336108974848300,5.24484814453125,-0.04214970022439957,0.0659734457731247,0.04703662544488907
1759336108984848100,5.25484814453125,-0.02871066704392433,0.036651913076639175,0.07269296050071716
1759336108994848300,5.26484814453125,-0.009773843921720982,0.014049900695681572,0.06902777403593063
1759336109004848000,5.27484814453125,0.004886921960860491,-0.009162978269159794,0.05253441259264946
1759336109014848300,5.28484814453125,0.004886921960860491,-0.036041051149368286,0.027488935738801956
1759336109024847400,5.294847412109375,0,-0.03848451003432274,-0.0006108652451075613
1759336109034847500,5.304847412109375,0.010995574295520782,-0.025045474991202354,-0.001832595793530345
1759336109044847400,5.314847412109375,0.01771509274840355,-0.06963863968849182,0.012217304669320583
1759336109054847200,5.32484716796875,0.02015855349600315,-0.1319468915462494,0.045204028487205505
1759336109064847400,5.334847412109375,0.02321287989616394,-0.1918116807937622,0.0959058403968811
1759336109074847200,5.34484716796875,0.028099801391363144,-0.2070833146572113,0.09651670604944229
1759336109084847400,5.354847412109375,0.03237585723400116,-0.18997909128665924,0.08491026610136032
1759336109094847500,5.364847412109375,0.03237585723400116,-0.16004669666290283,0.06536258012056351
1759336109104847400,5.374847412109375,0.029932396486401558,-0.12950342893600464,0.04581489413976669
1759336109114847500,5.384847412109375,0.027488935738801956,-0.09773843735456467,0.01710422709584236
1759336109124848400,5.394848388671875,0.03420845419168472,-0.033597588539123535,-0.00427605677396059
1759336109134848300,5.40484814453125,0.05497787147760391,0.04153883829712868,-0.039706241339445114
1759336109144848400,5.414848388671875,0.08918632566928864,0.10018189996480942,-0.07269296050071716
1759336109154848300,5.42484814453125,0.13805554807186127,0.09040805697441101,-0.07269296050071716
1759336109164848400,5.434848388671875,0.2064724564552307,0.018936822190880775,-0.033597588539123535
1759336109174848300,5.44484814453125,0.2681698501110077,-0.0403171069920063,0.033597588539123535
1759336109184848400,5.454848388671875,0.2932153046131134,-0.15577064454555511,0.15943582355976105
1759336109194848300,5.46484814453125,0.2535090744495392,-0.22540926933288574,0.23335053026676178
1759336109204848400,5.474848388671875,0.17959438264369965,-0.26450464129447937,0.27550023794174194
1759336109214848300,5.48484814453125,0.0959058403968811,-0.2779437005519867,0.28466320037841797
1759336109224847400,5.494847412109375,0.0555887371301651,-0.2480112910270691,0.2480112910270691
1759336109234847500,5.504847412109375,0.06352998316287994,-0.20097467303276062,0.17837265133857727
1759336109244847400,5.514847412109375,0.10262536257505417,-0.1459967941045761,0.09896016865968704
1759336109254847500,5.524847412109375,0.1459967941045761,-0.09651670604944229,0.04703662544488907
1759336109264847400,5.534847412109375,0.17898350954055786,-0.0757472887635231,0.025045474991202354
1759336109274847500,5.544847412109375,0.18020524084568024,-0.10018189996480942,0.030543262138962746
1759336109284847400,5.554847412109375,0.16065755486488342,-0.15271630883216858,0.048258353024721146
1759336109294847500,5.564847412109375,0.12095131725072861,-0.19486601650714874,0.04948008432984352
1759336109304847400,5.574847412109375,0.08674286305904388,-0.18509216606616974,0.029932396486401558
1759336109314847500,5.584847412109375,0.07147123664617538,-0.1569923609495163,0.018936822190880775
1759336109324848400,5.594848388671875,0.1014036312699318,-0.11484266817569733,0.024434609338641167
1759336109334848300,5.60484814453125,0.11972958594560623,-0.1007927656173706,0.03848451003432274
1759336109344848400,5.614848388671875,0.13988813757896423,-0.1062905490398407,0.05864306539297104
1759336109354848300,5.62484814453125,0.15271630883216858,-0.1111774742603302,0.07941248267889023
1759336109364848400,5.634848388671875,0.1417207419872284,-0.1270599663257599,0.10018189996480942
1759336109374848300,5.64484814453125,0.12278391420841217,-0.15943582355976105,0.1111774742603302
1759336109384848400,5.654848388671875,0.1007927656173706,-0.18936823308467865,0.10751228034496307
1759336109394848300,5.66484814453125,0.060475658625364304,-0.24434609711170197,0.1014036312699318
1759336109404848400,5.674848388671875,0.0006108652451075613,-0.3341432809829712,0.11850785464048386
1759336109414848300,5.68484814453125,-0.08674286305904388,-0.42699480056762695,0.15943582355976105
1759336109424847400,5.694847412109375,-0.11972958594560623,-0.4239404797554016,0.14966198801994324
1759336109434847500,5.704847412109375,-0.11362093687057495,-0.37201693654060364,0.1007927656173706
1759336109444847400,5.714847412109375,-0.08796459436416626,-0.28955012559890747,0.0354301854968071
1759336109454847500,5.724847412109375,-0.06230825558304787,-0.15515977144241333,-0.060475658625364304
1759336109464847400,5.734847412109375,-0.03176499158143997,-0.152105450630188,-0.17104226350784302
1759336109474847500,5.744847412109375,0.0006108652451075613,0.07024950534105301,-0.20341812074184418
1759336109484847400,5.754847412109375,0.01710422709584236,0.2021963894367218,-0.252287358045578
1759336109494847500,5.764847412109375,0.03787364438176155,0.3066543638706207,-0.22540926933288574
1759336109504847400,5.774847412109375,0.036651913076639175,0.33597588539123535,-0.13988813757896423
