time,seconds_elapsed,z,y,x
1759582824590544600,0.025544677734375,0.0042662238702178,0.06406094133853912,0.010567807592451572
1759582824600602600,0.0356025390625,-0.0005516726523637772,0.032004620879888535,-0.0036358139477670193
1759582824610660600,0.04566064453125,-0.012534566223621368,0.004101884085685015,-0.013358749449253082
1759582824620718600,0.055718505859375,-0.01791239157319069,-0.001435105805285275,-0.013606121763586998
1759582824630776600,0.065776611328125,-0.015419406816363335,-0.0003370845806784928,-0.009581020101904869
1759582824640835800,0.0758359375,-0.014453386887907982,-0.011789476498961449,-0.0042767394334077835
1759582824650893600,0.0858935546875,-0.005104626063257456,-0.031136007979512215,-0.00473453663289547
1759582824660951600,0.09595166015625,0.0032378342002630234,-0.06059128791093826,-0.007419216446578503
1759582824671009500,0.106009521484375,0.009497860446572304,-0.08225051313638687,-0.010870140045881271
1759582824681067800,0.11606787109375,0.005340133793652058,-0.08557946979999542,-0.006837315857410431
1759582824691125500,0.12612548828125,-0.006015480030328035,-0.06417202949523926,-0.0008219811134040356
1759582824701183500,0.13618359375,-0.009534354321658611,-0.03045823983848095,0.007390956860035658
1759582824711241700,0.14624169921875,-0.018415464088320732,-0.005180048756301403,0.0130150206387043
1759582824721299700,0.1562998046875,-0.02001762203872204,0.005623064003884792,0.014729296788573265
1759582824731358700,0.166358642578125,-0.019782312214374542,0.006764943245798349,0.017054451629519463
1759582824741416700,0.176416748046875,-0.01568157598376274,0.0022335746325552464,0.016482938081026077
1759582824751474700,0.186474609375,-0.008626015856862068,-0.0011359530035406351,0.013254636898636818
1759582824761532700,0.19653271484375,-0.004997991491109133,-0.007398376241326332,0.01284131407737732
1759582824771590700,0.206590576171875,-0.010295327752828598,-0.019861271604895592,0.01496848464012146
1759582824781648600,0.216648681640625,-0.01704058237373829,-0.03019034117460251,0.013141823001205921
1759582824791706600,0.22670654296875,-0.012994382530450821,-0.01878957264125347,0.008880391716957092
1759582824801764600,0.2367646484375,-0.012790118344128132,-0.0011155034881085157,0.00402251910418272
1759582824811823600,0.24682373046875,-0.01200911309570074,0.0011943138670176268,0.002916363999247551
1759582824821881600,0.256881591796875,-0.014611020684242249,-0.0042127021588385105,-0.00027996208518743515
1759582824831939600,0.266939697265625,-0.0202191062271595,-0.0070851873606443405,-0.0008490793406963348
1759582824841997600,0.27699755859375,-0.024870850145816803,-0.007753640878945589,0.00025240378454327583
1759582824852055600,0.2870556640625,-0.02947891689836979,0.002171694068238139,0.002172276843339205
1759582824862113800,0.29711376953125,-0.03035644069314003,0.02346285618841648,0.005260660778731108
1759582824872171500,0.307171630859375,-0.021468494087457657,0.05734552443027496,-0.0002971505746245384
1759582824882230800,0.317230712890625,-0.015815135091543198,0.07948145270347595,-0.0058176168240606785
1759582824892288800,0.327288818359375,-0.016475066542625427,0.0676298514008522,-0.009617149829864502
1759582824902346500,0.337346435546875,-0.019362278282642365,0.04280020296573639,-0.011047061532735825
1759582824912404500,0.347404541015625,-0.010344348847866058,0.027718940749764442,-0.012275999411940575
1759582824922462700,0.357462646484375,-0.0016249148175120354,0.022976160049438477,-0.008963466621935368
1759582824932520700,0.367520751953125,0.0032281633466482162,0.03051850013434887,-0.00398095790296793
1759582824942578400,0.377578369140625,0.0022180266678333282,0.04213041439652443,-0.0012293793261051178
1759582824952637700,0.3876376953125,0.0001642960123717785,0.04314102977514267,-0.0030934470705688
1759582824962695700,0.39769580078125,-0.003491425421088934,0.02622862532734871,-0.0065366472117602825
1759582824972753700,0.407753662109375,-0.01076195202767849,0.0018954515689983964,-0.007438361179083586
1759582824982811600,0.417811767578125,-0.018978014588356018,-0.01904134824872017,-0.0045867557637393475
1759582824992869600,0.42786962890625,-0.024066517129540443,-0.02240705117583275,-0.000674838200211525
1759582825002927600,0.437927734375,-0.024496473371982574,0.005763172172009945,0.005323972087353468
1759582825012985600,0.447985595703125,-0.02231268212199211,0.03965482488274574,0.011513957753777504
1759582825023044600,0.458044677734375,-0.022846605628728867,0.0646568089723587,0.012053057551383972
1759582825033102800,0.468102783203125,-0.04327810928225517,0.08372477442026138,0.008897477760910988
1759582825043160600,0.47816064453125,-0.09366238117218018,0.09218449145555496,0.011157052591443062
1759582825053218600,0.488218505859375,-0.11836293339729309,0.0875050500035286,0.01571159064769745
1759582825063276800,0.49827685546875,-0.2603328227996826,0.0808180719614029,0.028146233409643173
1759582825073335600,0.50833544921875,-0.24283158779144287,0.09742022305727005,0.034901607781648636
1759582825083393500,0.5183935546875,-0.31994444131851196,0.1474539190530777,0.03373149409890175
1759582825093451800,0.52845166015625,-0.25623470544815063,0.2601253390312195,0.02117122709751129
1759582825103509800,0.538509765625,-0.29903969168663025,0.3948613405227661,-0.019083518534898758
1759582825113567500,0.5485673828125,-0.20622725784778595,0.5062879323959351,-0.09582214057445526
1759582825123625700,0.558625732421875,-0.14718440175056458,0.5612974762916565,-0.1824917048215866
1759582825133684700,0.568684814453125,0.043645214289426804,0.48065832257270813,-0.19781553745269775
1759582825143742500,0.578742431640625,0.1386106014251709,0.34075048565864563,-0.16404852271080017
1759582825153800700,0.58880078125,0.23452506959438324,0.20170623064041138,-0.09157021343708038
1759582825163858700,0.598858642578125,0.1956290751695633,0.0549791157245636,0.00972551666200161
1759582825173916700,0.608916748046875,0.19163811206817627,-0.09380919486284256,0.1051410585641861
1759582825183974700,0.618974609375,0.1464994102716446,-0.21449823677539825,0.1793575882911682
1759582825194033700,0.62903369140625,0.13816344738006592,-0.2808857858181,0.2076834887266159
1759582825204091600,0.639091552734375,0.09879020601511002,-0.27912595868110657,0.18756863474845886
1759582825214149600,0.649149658203125,0.08965230733156204,-0.21223288774490356,0.1261291801929474
1759582825224207600,0.65920751953125,0.09311787784099579,-0.1352611482143402,0.05470665544271469
1759582825234265600,0.669265625,0.11051621288061142,-0.06115928292274475,-0.011901013553142548
1759582825244324600,0.67932470703125,0.12354759126901627,-0.012581358663737774,-0.06158041954040527
1759582825254382600,0.689382568359375,0.11313342303037643,0.038160596042871475,-0.10957150906324387
1759582825264440600,0.699440673828125,0.10681826621294022,0.04656233638525009,-0.13597968220710754
1759582825274498800,0.709498779296875,0.0688587874174118,0.024851694703102112,-0.1571885198354721
1759582825284556500,0.719556640625,0.10313472896814346,-0.020840425044298172,-0.18216097354888916
1759582825294615800,0.72961572265625,0.08176776766777039,-0.06793875992298126,-0.20415128767490387
1759582825304673800,0.739673828125,0.14994148910045624,-0.0945059210062027,-0.22125570476055145
1759582825314731500,0.7497314453125,0.13577038049697876,-0.08443795889616013,-0.22250030934810638
1759582825324789800,0.759789794921875,0.20543095469474792,-0.0416814386844635,-0.20851072669029236
1759582825334847700,0.76984765625,0.17009475827217102,0.027927225455641747,-0.18938282132148743
1759582825344906500,0.779906494140625,0.24258118867874146,0.08757562935352325,-0.17765870690345764
1759582825354964700,0.78996484375,0.1886790692806244,0.132295161485672,-0.17701022326946259
1759582825365022700,0.800022705078125,0.2616331875324249,0.1625760942697525,-0.19044826924800873
1759582825375080700,0.810080810546875,0.20606566965579987,0.1826685667037964,-0.21442413330078125
1759582825385139700,0.8201396484375,0.29123300313949585,0.19415342807769775,-0.23921088874340057
1759582825395197700,0.83019775390625,0.23424562811851501,0.17967915534973145,-0.2556236684322357
1759582825405255700,0.840255615234375,0.33680227398872375,0.17473599314689636,-0.2630443572998047
1759582825415313700,0.850313720703125,0.259150892496109,0.19049498438835144,-0.2489786297082901
1759582825425371600,0.86037158203125,0.3044942617416382,0.2040638029575348,-0.22177545726299286
1759582825435430700,0.8704306640625,0.27177679538726807,0.19713212549686432,-0.18616339564323425
1759582825445488600,0.880488525390625,0.25301480293273926,0.1606869250535965,-0.15810583531856537
1759582825455546600,0.890546630859375,0.2144586145877838,0.11720949411392212,-0.14652295410633087
1759582825465604600,0.9006044921875,0.18484576046466827,0.06894760578870773,-0.1487675905227661
1759582825475663600,0.91066357421875,0.16514688730239868,0.01821732334792614,-0.15374690294265747
1759582825485721600,0.9207216796875,0.1642366200685501,-0.027361080050468445,-0.15150798857212067
1759582825495779800,0.93077978515625,0.17803603410720825,-0.031459636986255646,-0.14751280844211578
1759582825505837600,0.940837646484375,0.19595885276794434,-0.006507680285722017,-0.14492660760879517
1759582825515895600,0.9508955078125,0.2132590264081955,0.022549407556653023,-0.14811576902866364
1759582825525954800,0.960954833984375,0.23049607872962952,0.03587959334254265,-0.16590461134910583
1759582825536012500,0.971012451171875,0.24405710399150848,0.03640773147344589,-0.1985178291797638
1759582825546070500,0.981070556640625,0.24277053773403168,0.020227428525686264,-0.2475210577249527
1759582825556128800,0.991128662109375,0.23801562190055847,-0.0177161768078804,-0.2924054265022278
1759582825566187500,1.0011875,0.23745688796043396,-0.06288818269968033,-0.32649603486061096
1759582825576245500,1.01124560546875,0.24285611510276794,-0.09385359287261963,-0.3441939353942871
1759582825586303700,1.0213037109375,0.24711984395980835,-0.1099417507648468,-0.34394678473472595
1759582825596361700,1.03136181640625,0.23958124220371246,-0.11120662093162537,-0.3301178216934204
1759582825606421200,1.041421142578125,0.2439136803150177,-0.08768851310014725,-0.30706337094306946
1759582825616479200,1.051479248046875,0.25066348910331726,-0.05058898404240608,-0.28443050384521484
1759582825626537200,1.061537109375,0.24968692660331726,-0.026818938553333282,-0.25608569383621216
1759582825636595200,1.07159521484375,0.25256049633026123,-0.01448736060410738,-0.2273542433977127
1759582825646654200,1.081654296875,0.2604873776435852,-0.022572718560695648,-0.19796545803546906
1759582825656712200,1.091712158203125,0.2684612572193146,-0.05827638506889343,-0.17682693898677826
1759582825666770200,1.101770263671875,0.27937009930610657,-0.10171253979206085,-0.1764698177576065
1759582825676828200,1.111828125,0.2762465178966522,-0.1525905430316925,-0.19483418762683868
1759582825686887200,1.12188720703125,0.26695236563682556,-0.20902054011821747,-0.2253313809633255
1759582825696945200,1.131945068359375,0.2618922293186188,-0.2561055123806,-0.26286911964416504
1759582825707003100,1.142003173828125,0.2550404965877533,-0.2828844487667084,-0.29827338457107544
1759582825717062100,1.152062255859375,0.2567955255508423,-0.2818703353404999,-0.3203696310520172
1759582825727120100,1.1621201171875,0.27161547541618347,-0.24948148429393768,-0.3309815526008606
1759582825737178400,1.172178466796875,0.2785203456878662,-0.20604358613491058,-0.3275015354156494
1759582825747236400,1.182236328125,0.2790662348270416,-0.159297376871109,-0.3089485168457031
1759582825757295000,1.192295166015625,0.2771785855293274,-0.10606716573238373,-0.2890288531780243
1759582825767353300,1.202353271484375,0.26815900206565857,-0.056470852345228195,-0.27180325984954834
1759582825777411300,1.212411376953125,0.25796082615852356,-0.027507556602358818,-0.2580822706222534
1759582825787469000,1.222468994140625,0.2501675486564636,-0.023612773045897484,-0.24909675121307373
1759582825797528300,1.2325283203125,0.24585428833961487,-0.05421729013323784,-0.24300290644168854
1759582825807586300,1.24258642578125,0.2579510509967804,-0.10163768380880356,-0.23769287765026093
1759582825817644000,1.25264404296875,0.2689344584941864,-0.17158107459545135,-0.22942322492599487
1759582825827703300,1.262703369140625,0.27153801918029785,-0.2145898938179016,-0.2294929474592209
1759582825837761300,1.27276123046875,0.2769538462162018,-0.2263791859149933,-0.24380610883235931
1759582825847819300,1.2828193359375,0.2902192175388336,-0.22868259251117706,-0.26091447472572327
1759582825857878300,1.292878173828125,0.3157062232494354,-0.22904159128665924,-0.27430644631385803
1759582825867936300,1.302936279296875,0.34012046456336975,-0.2215450555086136,-0.2831169664859772
1759582825877994200,1.312994140625,0.345073938369751,-0.19271749258041382,-0.2955382168292999
1759582825888052200,1.32305224609375,0.34270957112312317,-0.12952999770641327,-0.31920814514160156
1759582825898111200,1.333111328125,0.3149465024471283,-0.020898178219795227,-0.3547975420951843
1759582825908169200,1.343169189453125,0.2874762713909149,0.07546377927064896,-0.39680570363998413
1759582825918227200,1.353227294921875,0.3346521556377411,0.14651046693325043,-0.41313889622688293
1759582825928286200,1.3632861328125,0.40004128217697144,0.13665038347244263,-0.39664992690086365
1759582825938344200,1.37334423828125,0.45845651626586914,0.11387047916650772,-0.3884325325489044
1759582825948402200,1.383402099609375,0.5526674389839172,0.024202430620789528,-0.32047176361083984
1759582825958461200,1.393461181640625,0.7085002064704895,-0.03492693603038788,-0.20030726492404938
1759582825968519200,1.403519287109375,0.7895364165306091,0.09640499204397202,-0.0814109817147255
1759582825978577200,1.4135771484375,0.6586203575134277,0.28069305419921875,-0.1779288649559021
1759582825988636200,1.42363623046875,0.45916077494621277,0.3518151640892029,-0.39603617787361145
1759582825998694100,1.433694091796875,0.336498886346817,0.2785334289073944,-0.505673885345459
1759582826008752400,1.44375244140625,0.25825974345207214,0.057874564081430435,-0.49990782141685486
1759582826018810400,1.453810302734375,0.19141016900539398,-0.14610160887241364,-0.48825356364250183
1759582826028869000,1.463869140625,0.15084755420684814,-0.30866363644599915,-0.46235141158103943
1759582826038927400,1.47392724609375,0.14094898104667664,-0.33769264817237854,-0.35250839591026306
1759582826048985300,1.4839853515625,0.12982255220413208,-0.3409976363182068,-0.24848400056362152
1759582826059044000,1.494044189453125,0.11637625843286514,-0.27266424894332886,-0.17694981396198273
1759582826069102300,1.504102294921875,0.11114581674337387,-0.23967726528644562,-0.14028288424015045
1759582826079160300,1.514160400390625,0.14616654813289642,-0.23917795717716217,-0.14856570959091187
1759582826089219300,1.52421923828125,0.1878194510936737,-0.24439403414726257,-0.19599847495555878
1759582826099277300,1.53427734375,0.21905140578746796,-0.24085968732833862,-0.2681410312652588
1759582826109335300,1.544335205078125,0.2602822184562683,-0.23448088765144348,-0.3294571340084076
1759582826119394300,1.554394287109375,0.310885488986969,-0.19018812477588654,-0.36569610238075256
1759582826129452300,1.564452392578125,0.342717707157135,-0.1218777745962143,-0.37967291474342346
1759582826139511300,1.57451123046875,0.35299649834632874,-0.005503963213413954,-0.37774327397346497
1759582826149569300,1.5845693359375,0.3759501278400421,0.16316238045692444,-0.34803372621536255
1759582826159627300,1.594627197265625,0.3879857659339905,0.315360963344574,-0.3182755708694458
1759582826169686300,1.604686279296875,0.3771244287490845,0.423776775598526,-0.30193454027175903
1759582826179744300,1.614744140625,0.3742884397506714,0.4360283613204956,-0.27035263180732727
1759582826189802200,1.62480224609375,0.36306241154670715,0.420335590839386,-0.22555550932884216
1759582826199861200,1.634861328125,0.2943195700645447,0.40378671884536743,-0.18932586908340454
1759582826209919200,1.644919189453125,0.201630637049675,0.3795534372329712,-0.13275597989559174
1759582826219977200,1.654977294921875,0.1529161036014557,0.37489157915115356,-0.07966266572475433
1759582826230036200,1.6650361328125,0.10752131789922714,0.37967944145202637,-0.038706224411726
1759582826240094200,1.67509423828125,0.12261158227920532,0.37143534421920776,-0.04944142699241638
1759582826250152400,1.68515234375,0.13002502918243408,0.35698530077934265,-0.09606938064098358
1759582826260211200,1.695211181640625,0.14349541068077087,0.3663898706436157,-0.17975135147571564
1759582826270269200,1.705269287109375,0.1761241853237152,0.4115387201309204,-0.2521810829639435
1759582826280328200,1.715328125,0.19630928337574005,0.4630073606967926,-0.2814563810825348
1759582826290386200,1.72538623046875,0.20139139890670776,0.5110121965408325,-0.27974849939346313
1759582826300444200,1.735444091796875,0.20469419658184052,0.5220613479614258,-0.25930649042129517
1759582826310503200,1.745503173828125,0.20315302908420563,0.5553225874900818,-0.22326329350471497
1759582826320561200,1.75556103515625,0.24051666259765625,0.6031113266944885,-0.21465080976486206
1759582826330619400,1.765619384765625,0.26353463530540466,0.6139624118804932,-0.22214041650295258
1759582826340678100,1.77567822265625,0.27448251843452454,0.5414180159568787,-0.23725053668022156
1759582826350736100,1.785736083984375,0.31703048944473267,0.43724310398101807,-0.28763219714164734
1759582826360795100,1.795795166015625,0.3547489643096924,0.32357537746429443,-0.3723582625389099
1759582826370853000,1.80585302734375,0.3968636691570282,0.20803385972976685,-0.4484913647174835
1759582826380911400,1.815911376953125,0.43117931485176086,0.1356574147939682,-0.4846499264240265
1759582826390970000,1.82597021484375,0.4368728995323181,0.06882672011852264,-0.4716619551181793
1759582826401028000,1.836028076171875,0.3993999660015106,-0.1710669994354248,-0.4591255187988281
1759582826411087400,1.84608740234375,0.3047080636024475,-0.300949364900589,-0.46136710047721863
1759582826421145000,1.85614501953125,0.18662944436073303,-0.27137041091918945,-0.4375705420970917
1759582826431203000,1.866203125,0.14167927205562592,-0.24043884873390198,-0.4245990812778473
1759582826441262300,1.876262451171875,0.1429787427186966,-0.24419322609901428,-0.39974069595336914
1759582826451320000,1.886320068359375,0.10905434191226959,-0.21941117942333221,-0.33626532554626465
1759582826461379300,1.89637939453125,0.0648580938577652,-0.2143881618976593,-0.25661295652389526
1759582826471437300,1.906437255859375,0.021107949316501617,-0.18192768096923828,-0.17588640749454498
1759582826481495000,1.9164951171875,-0.002388645661994815,-0.10155752301216125,-0.11601186543703079
1759582826491554300,1.92655419921875,0.0038159871473908424,-0.008412934839725494,-0.0667622983455658
1759582826501612300,1.9366123046875,0.01166260801255703,0.10881343483924866,-0.01217198558151722
1759582826511671300,1.94667138671875,0.018608255311846733,0.22225791215896606,0.07157506793737411
1759582826521729300,1.956729248046875,0.013279534876346588,0.34715110063552856,0.13927263021469116
1759582826531787300,1.966787353515625,-0.001088359858840704,0.4611884653568268,0.1605151891708374
1759582826541846300,1.97684619140625,-0.02448076754808426,0.5115363001823425,0.11252982914447784
1759582826551904300,1.986904296875,-0.07639910280704498,0.4657171070575714,0.013430854305624962
1759582826561963300,1.99696337890625,-0.13964252173900604,0.35782021284103394,-0.09045399725437164
1759582826572021200,2.007021240234375,-0.1749511957168579,0.2356869876384735,-0.13957886397838593
1759582826582080000,2.017080078125,-0.19683119654655457,0.16197149455547333,-0.12809531390666962
1759582826592138200,2.02713818359375,-0.22793380916118622,0.16012345254421234,-0.08061857521533966
1759582826602195500,2.037195556640625,-0.24855466187000275,0.18631590902805328,-0.02633642964065075
1759582826612254500,2.04725439453125,-0.2672939896583557,0.22884871065616608,0.00043925875797867775
1759582826622312400,2.0573125,-0.2887657880783081,0.25081977248191833,-0.0011464557610452175
1759582826632371500,2.067371337890625,-0.31824323534965515,0.24862240254878998,-0.019319867715239525
1759582826642429700,2.0774296875,-0.34933900833129883,0.2638859748840332,-0.042394593358039856
1759582826652488400,2.087488525390625,-0.37899091839790344,0.3121770918369293,-0.06887999922037125
1759582826662546400,2.09754638671875,-0.41734594106674194,0.3747940957546234,-0.10139766335487366
1759582826672604700,2.107604736328125,-0.457392156124115,0.43303796648979187,-0.13127726316452026
1759582826682663400,2.117663330078125,-0.47527313232421875,0.4843403100967407,-0.1878601312637329
1759582826692721400,2.127721435546875,-0.42210233211517334,0.5071199536323547,-0.29908812046051025
1759582826702780400,2.137780517578125,-0.28874868154525757,0.3941360116004944,-0.416485458612442
1759582826712838400,2.14783837890625,-0.2134198397397995,0.1394725739955902,-0.47890836000442505
1759582826722897400,2.1578974609375,-0.2372441440820694,-0.02343052811920643,-0.5032797455787659
1759582826732955400,2.167955322265625,-0.2675914168357849,0.002961664227768779,-0.5015436410903931
1759582826743014700,2.1780146484375,-0.30359339714050293,0.13443812727928162,-0.49149686098098755
1759582826753072400,2.188072265625,-0.3731652796268463,0.2555416226387024,-0.45388421416282654
1759582826763130400,2.19813037109375,-0.45274731516838074,0.28975746035575867,-0.3803679645061493
1759582826773189600,2.208189697265625,-0.5108849406242371,0.25617605447769165,-0.278174489736557
1759582826783247400,2.218247314453125,-0.6041588187217712,0.214723601937294,-0.1448761224746704
1759582826793306600,2.228306640625,-0.7558069229125977,0.28088292479515076,0.01606561429798603
1759582826803364600,2.238364501953125,-0.9126279354095459,0.5197499990463257,0.1801203340291977
1759582826813423400,2.24842333984375,-0.9905504584312439,0.794979989528656,0.3188720941543579
1759582826823481600,2.258481689453125,-0.9939190745353699,0.9786226749420166,0.4186634123325348
1759582826833540400,2.268540283203125,-0.9409812688827515,0.9771230220794678,0.49345535039901733
1759582826843598300,2.278598388671875,-0.841086745262146,0.8383129835128784,0.5591534376144409
1759582826853657600,2.28865771484375,-0.7254544496536255,0.6746606826782227,0.639702320098877
1759582826863715300,2.29871533203125,-0.5967657566070557,0.5525853037834167,0.7393329739570618
1759582826873774600,2.308774658203125,-0.45081189274787903,0.5231016874313354,0.8486005663871765
1759582826883832600,2.31883251953125,-0.28025373816490173,0.5796403288841248,0.9830329418182373
1759582826893891600,2.3288916015625,-0.15251122415065765,0.7052193284034729,1.1373565196990967
1759582826903949600,2.338949462890625,-0.07431505620479584,0.8353566527366638,1.3118926286697388
1759582826914007600,2.349007568359375,0.00992942787706852,0.8973703384399414,1.5400383472442627
1759582826924066600,2.359066650390625,0.058151282370090485,0.9658218622207642,1.7579089403152466
1759582826934124500,2.36912451171875,0.1270872950553894,1.0051789283752441,1.9429028034210205
1759582826944183600,2.37918359375,0.20374611020088196,1.0748071670532227,2.064833164215088
1759582826954241500,2.389241455078125,0.27821385860443115,1.096442461013794,2.1407222747802734
1759582826964300300,2.39930029296875,0.3500467836856842,1.0845091342926025,2.178556203842163
1759582826974358500,2.409358642578125,0.3835179805755615,1.048863172531128,2.1807730197906494
1759582826984417500,2.41941748046875,0.39882317185401917,1.0108025074005127,2.1396493911743164
1759582826994475300,2.429475341796875,0.3968788683414459,1.0048768520355225,2.0441455841064453
1759582827004534500,2.439534423828125,0.3787049353122711,0.9786473512649536,1.9005907773971558
1759582827014592500,2.449592529296875,0.3902539908885956,1.0044478178024292,1.707628607749939
1759582827024651500,2.459651611328125,0.41906601190567017,1.2197095155715942,1.6105173826217651
1759582827034709500,2.46970947265625,0.4383281171321869,1.481992244720459,1.6388825178146362
1759582827044768500,2.4797685546875,0.4349246621131897,1.736233115196228,1.636734127998352
1759582827054826500,2.489826416015625,0.7432084679603577,1.7768023014068604,1.3746548891067505
1759582827064885500,2.499885498046875,1.1326745748519897,1.8783687353134155,1.066504716873169
1759582827074943500,2.509943603515625,1.4838343858718872,2.06630277633667,0.8954315185546875
1759582827085002500,2.52000244140625,1.6759963035583496,2.0747787952423096,0.8692037463188171
1759582827095060500,2.530060546875,1.7722898721694946,1.7836291790008545,0.9275943636894226
1759582827105119500,2.540119384765625,1.907259464263916,1.404565453529358,0.9588985443115234
1759582827115177500,2.550177490234375,2.0753891468048096,1.1203060150146484,0.9452807307243347
1759582827125236500,2.560236572265625,2.2377705574035645,0.9466043710708618,0.9008073806762695
1759582827135294500,2.57029443359375,2.4313459396362305,0.6168062686920166,0.9229084253311157
1759582827145353500,2.580353515625,2.681495189666748,0.3278099000453949,1.0095188617706299
1759582827155411500,2.590411376953125,2.7801432609558105,0.010672441683709621,1.216575026512146
1759582827165470700,2.600470703125,2.71785569190979,-0.4290837347507477,1.520922303199768
1759582827175528400,2.610528564453125,2.5987722873687744,-0.7836908102035522,1.7973737716674805
1759582827185587500,2.62058740234375,2.41312313079834,-1.0218538045883179,1.9777418375015259
1759582827195646500,2.630646484375,2.250170946121216,-1.244217038154602,2.099296808242798
1759582827205704400,2.640704345703125,2.140481472015381,-1.4325807094573975,2.125969648361206
1759582827215763500,2.650763427734375,1.9873846769332886,-1.804084300994873,2.1651320457458496
1759582827225821400,2.660821533203125,1.7460730075836182,-2.078047752380371,2.2079031467437744
1759582827235880400,2.67088037109375,1.6604715585708618,-2.0532052516937256,2.2132480144500732
1759582827245938400,2.6809384765625,1.4949524402618408,-1.6429098844528198,2.1390862464904785
1759582827255997400,2.69099755859375,1.393185019493103,-1.4612668752670288,2.0242555141448975
1759582827266055700,2.7010556640625,1.2595868110656738,-1.4515490531921387,1.8829622268676758
1759582827276114400,2.711114501953125,1.1055679321289062,-1.406718373298645,1.6589030027389526
1759582827286172400,2.72117236328125,1.00099778175354,-1.34221351146698,1.3909062147140503
1759582827296231400,2.7312314453125,0.842570424079895,-1.4329166412353516,1.2021558284759521
1759582827306289400,2.741289306640625,0.7560810446739197,-1.4151870012283325,1.0168423652648926
1759582827316348700,2.7513486328125,0.6969348788261414,-1.2668342590332031,0.8252175450325012
1759582827326406400,2.761406494140625,0.6266798973083496,-1.062403917312622,0.6465175747871399
1759582827336465700,2.771465576171875,0.5714534521102905,-0.7947450280189514,0.4580150842666626
1759582827346524400,2.7815244140625,0.5078569054603577,-0.6066030859947205,0.2822113037109375
1759582827356582400,2.79158251953125,0.4462241530418396,-0.49365147948265076,0.09670662134885788
1759582827366641400,2.801641357421875,0.43134772777557373,-0.35211458802223206,-0.12318792194128036
1759582827376699400,2.811699462890625,0.41723400354385376,-0.22403550148010254,-0.35197028517723083
1759582827386758700,2.821758544921875,0.4007088243961334,-0.1239914521574974,-0.5652838945388794
1759582827396816400,2.83181640625,0.40429848432540894,0.09086013585329056,-0.7837957143783569
1759582827406875400,2.84187548828125,0.27802205085754395,0.05966971814632416,-0.8992360234260559
1759582827416933600,2.85193359375,0.11200637370347977,0.038448408246040344,-0.9959607124328613
1759582827426992400,2.861992431640625,-0.029724612832069397,0.0020165618043392897,-1.0971518754959106
1759582827437051600,2.8720517578125,-0.2053672820329666,-0.08633700013160706,-1.2213717699050903
1759582827447109400,2.882109375,-0.3752301037311554,-0.16583485901355743,-1.3909375667572021
1759582827457168600,2.892168701171875,-0.4175213575363159,-0.06779936701059341,-1.5827399492263794
1759582827467226600,2.9022265625,-0.267928808927536,0.16694436967372894,-1.7477574348449707
1759582827477285400,2.912285400390625,-0.3150366544723511,0.07613350450992584,-1.8751505613327026
1759582827487343600,2.922343505859375,-0.5190660357475281,0.16069045662879944,-1.9157414436340332
1759582827497402400,2.93240234375,-0.709677517414093,0.10660219192504883,-1.8659435510635376
1759582827507460600,2.942460693359375,-0.9192358255386353,-0.34425362944602966,-1.6059837341308594
1759582827517519400,2.952519287109375,-1.0205203294754028,-0.4309389889240265,-1.5117506980895996
1759582827527578600,2.96257861328125,-1.2281848192214966,-0.47171029448509216,-1.5472066402435303
1759582827537636600,2.97263671875,-1.3790712356567383,-0.6996694207191467,-1.5829905271530151
1759582827547695400,2.9826953125,-1.397935390472412,-0.8475978970527649,-1.5448330640792847
1759582827557753600,2.992753662109375,-1.3264093399047852,-0.8256793022155762,-1.4599241018295288
1759582827567812400,3.002812255859375,-1.2355053424835205,-0.7085952162742615,-1.438336730003357
1759582827577870300,3.012870361328125,-1.1367963552474976,-0.5147905945777893,-1.4811714887619019
1759582827587929600,3.0229296875,-1.0338102579116821,-0.20996151864528656,-1.5882235765457153
1759582827597988400,3.03298828125,-0.9570186138153076,0.09954706579446793,-1.7174052000045776
1759582827608046800,3.043046875,-0.9002154469490051,0.35227683186531067,-1.8685331344604492
1759582827618105900,3.05310595703125,-0.8707369565963745,0.5524661540985107,-2.033151865005493
1759582827628163800,3.063163818359375,-0.9025006294250488,0.7019237279891968,-2.212989568710327
1759582827638222800,3.073222900390625,-0.9698930978775024,0.841380774974823,-2.3814432621002197
1759582827648280800,3.08328076171875,-0.9890521764755249,0.901827871799469,-2.4864516258239746
1759582827658340000,3.093340087890625,-1.0153838396072388,0.9354100823402405,-2.4893765449523926
1759582827668398800,3.10339892578125,-1.0523333549499512,0.917436420917511,-2.3824877738952637
1759582827678456800,3.113456787109375,-1.0756614208221436,0.8203634023666382,-2.155264139175415
1759582827688515800,3.123515869140625,-1.0807709693908691,0.6280919313430786,-1.8256784677505493
1759582827698573800,3.13357373046875,-1.0772645473480225,0.4076506793498993,-1.4797236919403076
1759582827708632800,3.1436328125,-1.079903483390808,0.17175452411174774,-1.142273187637329
1759582827718690800,3.15369091796875,-1.1056805849075317,-0.12010674923658371,-0.8525166511535645
1759582827728749800,3.163749755859375,-1.1236445903778076,-0.4789932668209076,-0.6314623355865479
1759582827738808800,3.173808837890625,-1.0770177841186523,-0.8113512396812439,-0.48508042097091675
1759582827748866800,3.18386669921875,-0.9500136971473694,-1.073756217956543,-0.3860982060432434
1759582827758925800,3.19392578125,-0.7931436896324158,-1.2906498908996582,-0.31160131096839905
1759582827768983800,3.20398388671875,-0.6221837401390076,-1.579079508781433,-0.2376505583524704
1759582827779043000,3.21404296875,-0.5352842807769775,-1.9376392364501953,-0.16102342307567596
1759582827789101800,3.224101806640625,-0.5379137992858887,-2.152752637863159,-0.12641541659832
1759582827799159800,3.234159912109375,-0.538938581943512,-2.114567518234253,-0.19412574172019958
1759582827809218800,3.24421875,-0.4681123197078705,-1.8754149675369263,-0.3547545075416565
1759582827819276800,3.25427685546875,-0.29948896169662476,-1.3871747255325317,-0.6060863137245178
1759582827829335800,3.264335693359375,-0.009844450280070305,-0.7203647494316101,-0.9631081819534302
1759582827839394800,3.274394775390625,0.2948467433452606,-0.05724908038973808,-1.341868281364441
1759582827849453000,3.284453125,0.39651763439178467,0.49190929532051086,-1.5969749689102173
1759582827859511800,3.29451171875,0.33574455976486206,0.9372276663780212,-1.676026701927185
1759582827869569800,3.30456982421875,0.2546454668045044,1.248984456062317,-1.6455929279327393
1759582827879628800,3.31462890625,0.4095894992351532,1.4656600952148438,-1.7532395124435425
1759582827889687800,3.324687744140625,0.8391215205192566,1.6414874792099,-2.0067250728607178
1759582827899746000,3.33474609375,1.0695576667785645,1.7387714385986328,-2.106844902038574
1759582827909804800,3.3448046875,0.8956124186515808,1.5005898475646973,-1.9283643960952759
1759582827919862800,3.35486279296875,0.5475484132766724,0.9704585075378418,-1.5222091674804688
1759582827929921800,3.364921875,0.19148126244544983,0.4840303063392639,-1.0235239267349243
1759582827939980800,3.374980712890625,-0.045880962163209915,0.20934149622917175,-0.7022802233695984
1759582827950038800,3.385038818359375,-0.07697442919015884,0.08944225311279297,-0.6260818243026733
1759582827960097800,3.395097900390625,-0.04615712910890579,0.12561197578907013,-0.6359840035438538
1759582827970156000,3.405156005859375,0.0064172400161623955,0.09579489380121231,-0.570932924747467
1759582827980214800,3.41521484375,0.055138975381851196,0.09048561751842499,-0.4397496283054352
1759582827990274000,3.425274169921875,0.07335960865020752,0.14361852407455444,-0.303880512714386
1759582828000331800,3.435331787109375,0.06544024497270584,0.21891504526138306,-0.14724446833133698
1759582828010390800,3.445390869140625,0.06561414897441864,0.2985139787197113,-0.017652925103902817
1759582828020449800,3.45544970703125,0.08916634321212769,0.3880859315395355,0.030294891446828842
1759582828030507800,3.4655078125,0.09808900207281113,0.4995863735675812,-0.0004603569395840168
1759582828040567000,3.475567138671875,0.068089559674263,0.549243688583374,-0.07400408387184143
1759582828050624800,3.485624755859375,-0.014359326101839542,0.4818921685218811,-0.16097499430179596
1759582828060684000,3.49568408203125,-0.14702363312244415,0.369996577501297,-0.2264246642589569
1759582828070742800,3.50574267578125,-0.2860907018184662,0.3248085677623749,-0.2743208110332489
1759582828080800800,3.51580078125,-0.4097866714000702,0.3507978022098541,-0.2976781725883484
1759582828090859800,3.52585986328125,-0.5047334432601929,0.39566701650619507,-0.29100164771080017
1759582828100917800,3.535917724609375,-0.5786483883857727,0.3888210952281952,-0.2708367109298706
1759582828110977000,3.54597705078125,-0.6592423319816589,0.32269614934921265,-0.27324795722961426
1759582828121035800,3.556035888671875,-0.6904951333999634,0.20552939176559448,-0.32228657603263855
1759582828131093800,3.56609375,-0.6657402515411377,0.09477917850017548,-0.40639346837997437
1759582828141152800,3.57615283203125,-0.5983452200889587,0.07441611588001251,-0.5011380910873413
1759582828151212000,3.5862119140625,-0.6443150639533997,0.12936840951442719,-0.6005125045776367
1759582828161270000,3.59627001953125,-0.7400815486907959,0.14723262190818787,-0.7061614394187927
1759582828171328800,3.606328857421875,-0.8264928460121155,0.22832275927066803,-0.8195733428001404
1759582828181387000,3.616386962890625,-0.9408388733863831,0.4230392575263977,-0.8899886608123779
1759582828191445800,3.62644580078125,-1.0614960193634033,0.5358579754829407,-0.8596224784851074
1759582828201505000,3.636505126953125,-1.0899115800857544,0.3834529519081116,-0.6909623742103577
1759582828211562800,3.646562744140625,-1.0152536630630493,0.3574168086051941,-0.47080498933792114
1759582828221621800,3.656621826171875,-0.9372493028640747,0.5304418802261353,-0.2348310798406601
1759582828231680800,3.6666806640625,-0.8869218230247498,0.6470977067947388,0.024618735536932945
1759582828241738800,3.67673876953125,-0.8223928809165955,0.6190295815467834,0.28445085883140564
1759582828251798000,3.686798095703125,-0.7578362822532654,0.5256292223930359,0.5185742378234863
1759582828261856800,3.696856689453125,-0.5957642793655396,0.42885076999664307,0.773163378238678
1759582828271915000,3.7069150390625,-0.39845603704452515,0.3781009912490845,1.0292813777923584
1759582828281973800,3.716973876953125,-0.21201080083847046,0.3800230026245117,1.2732815742492676
1759582828292031700,3.72703173828125,-0.0404890738427639,0.4204373061656952,1.4798191785812378
1759582828302091000,3.737091064453125,0.12067677080631256,0.4397958219051361,1.652360439300537
1759582828312149800,3.747149658203125,0.283663272857666,0.4143463671207428,1.7912479639053345
1759582828322208000,3.7572080078125,0.44302311539649963,0.367927223443985,1.8912259340286255
1759582828332266800,3.767266845703125,0.5983371734619141,0.35611867904663086,1.9465893507003784
1759582828342326000,3.777325927734375,0.7743359208106995,0.36942940950393677,1.9720802307128906
1759582828352383700,3.7873837890625,0.9349919557571411,0.42893949151039124,1.962681770324707
1759582828362443000,3.797443115234375,1.031691312789917,0.5341354012489319,1.9142698049545288
1759582828372501800,3.807501708984375,1.0653125047683716,0.6279155611991882,1.851170301437378
1759582828382559700,3.817559814453125,1.1242674589157104,0.6622386574745178,1.858251929283142
1759582828392619000,3.827618896484375,1.177480697631836,0.6520768404006958,1.9159122705459595
1759582828402677800,3.837677734375,1.1461381912231445,0.6258404850959778,1.9589015245437622
1759582828412736000,3.847736083984375,1.0193612575531006,0.6180814504623413,1.971735954284668
1759582828422794800,3.857794677734375,0.8327943086624146,0.6080880761146545,1.9826409816741943
1759582828432854000,3.86785400390625,0.6203417181968689,0.5664905905723572,2.0284481048583984
1759582828442911700,3.877911865234375,0.39329490065574646,0.5603293180465698,2.073427677154541
1759582828452970800,3.887970703125,0.1467415988445282,0.4779057502746582,2.154191732406616
1759582828463029000,3.898029052734375,0.02416349947452545,0.3356999158859253,2.235114812850952
1759582828473087700,3.908087646484375,0.0866742804646492,0.13607282936573029,2.250608205795288
1759582828483147000,3.91814697265625,0.1442546397447586,-0.06916230171918869,2.0404789447784424
1759582828493204700,3.928204833984375,0.31521278619766235,0.0007928138365969062,1.6162976026535034
1759582828503264000,3.938263916015625,0.7707877159118652,0.5506030917167664,1.1329247951507568
1759582828513322800,3.94832275390625,1.337844967842102,1.246949315071106,0.7385495901107788
1759582828523380700,3.958380615234375,1.718185305595398,1.862459421157837,0.5153687596321106
1759582828533440000,3.96843994140625,1.9126253128051758,2.2285468578338623,0.422661691904068
1759582828543498800,3.978498779296875,2.0116589069366455,2.221529006958008,0.44318798184394836
1759582828553557000,3.988556884765625,2.1147899627685547,1.9696134328842163,0.5449705719947815
1759582828563615700,3.99861572265625,2.1612324714660645,1.5835708379745483,0.6857271194458008
1759582828573675000,4.008675048828125,2.1738088130950928,1.1786662340164185,0.83924800157547
1759582828583732700,4.018732666015625,2.1215696334838867,0.695712685585022,1.0121500492095947
1759582828593792000,4.0287919921875,2.024688243865967,0.21666571497917175,1.1755424737930298
1759582828603850500,4.0388505859375,1.9453134536743164,-0.07266490161418915,1.2493828535079956
1759582828613908700,4.04890869140625,1.9112199544906616,-0.145603209733963,1.1964538097381592
1759582828623967700,4.0589677734375,1.9439494609832764,-0.24839936196804047,1.1206661462783813
1759582828634026800,4.06902685546875,1.9995768070220947,-0.5188246965408325,1.1026923656463623
1759582828644084700,4.079084716796875,2.0490193367004395,-0.7619645595550537,1.1031044721603394
1759582828654143500,4.0891435546875,2.0682296752929688,-1.0423027276992798,1.196990728378296
1759582828664202800,4.09920263671875,2.021329402923584,-1.2008596658706665,1.397017002105713
1759582828674260700,4.1092607421875,1.8805137872695923,-1.2537577152252197,1.6034213304519653
1759582828684319700,4.11931982421875,1.7329174280166626,-1.2333372831344604,1.7215638160705566
1759582828694378500,4.12937841796875,1.5715415477752686,-1.2423479557037354,1.7136565446853638
1759582828704436500,4.1394365234375,1.4709593057632446,-1.1865112781524658,1.5762754678726196
1759582828714495700,4.149495849609375,1.3294237852096558,-1.3381667137145996,1.4606447219848633
1759582828724554500,4.159554443359375,1.1526902914047241,-1.397545337677002,1.3477219343185425
1759582828734612700,4.16961279296875,0.9917423129081726,-1.2668111324310303,1.1899794340133667
1759582828744671500,4.17967138671875,0.8806871175765991,-1.1120518445968628,1.0295590162277222
1759582828754730800,4.189730712890625,0.7619849443435669,-0.9954233169555664,0.8623689413070679
1759582828764788700,4.199788818359375,0.674146294593811,-0.89729905128479,0.7006499767303467
1759582828774847700,4.20984765625,0.5712465643882751,-0.8160566091537476,0.5623653531074524
1759582828784906800,4.21990673828125,0.4619697630405426,-0.7282683253288269,0.42039138078689575
1759582828794964500,4.229964599609375,0.3872917890548706,-0.6136000752449036,0.24848699569702148
1759582828805023700,4.240023681640625,0.3141838610172272,-0.4951164126396179,0.025573739781975746
1759582828815082500,4.25008251953125,0.24749429523944855,-0.3669717609882355,-0.21957474946975708
1759582828825140700,4.260140625,0.18563014268875122,-0.19924239814281464,-0.467035710811615
1759582828835199500,4.270199462890625,0.12306561321020126,-0.08407013863325119,-0.6893700361251831
1759582828845258800,4.2802587890625,0.06423895806074142,-0.01624949276447296,-0.8559290170669556
1759582828855316700,4.290316650390625,-0.0032673811074346304,0.082689069211483,-0.9757254123687744
1759582828865375700,4.300375732421875,-0.03496445342898369,0.2642558813095093,-1.103403925895691
1759582828875434800,4.310434814453125,-0.21669164299964905,0.22107671201229095,-1.1979962587356567
1759582828885492500,4.320492431640625,-0.29946446418762207,0.09059859067201614,-1.3088432550430298
1759582828895551700,4.3305517578125,-0.3105996549129486,0.3938436806201935,-1.2187514305114746
1759582828905610500,4.340610595703125,0.012956405058503151,0.7940791249275208,-1.241165041923523
1759582828915668700,4.350668701171875,0.0926501676440239,0.28220441937446594,-1.625854730606079
1759582828925727500,4.3607275390625,0.015223819762468338,0.15766116976737976,-1.7610164880752563
1759582828935786800,4.370786865234375,-0.2756647765636444,0.2895072400569916,-1.5856478214263916
1759582828945844700,4.3808447265625,-0.3903346359729767,-0.1488400250673294,-1.2719790935516357
1759582828955903700,4.39090380859375,-0.5809077024459839,-0.49584463238716125,-1.3201918601989746
1759582828965962800,4.400962646484375,-0.8668193817138672,-0.4283231198787689,-1.355503797531128
1759582828976020500,4.4110205078125,-1.263066053390503,-0.4468516409397125,-1.2519522905349731
1759582828986079700,4.421079833984375,-1.2630196809768677,-0.7320719361305237,-1.251051664352417
1759582828996138500,4.431138427734375,-1.3408607244491577,-0.8590309619903564,-1.325243592262268
1759582829006196700,4.44119677734375,-1.1553339958190918,-0.7908055186271667,-1.38882577419281
1759582829016255700,4.451255859375,-1.116862177848816,-0.6122199892997742,-1.4146209955215454
1759582829026314800,4.461314697265625,-0.9463629126548767,-0.3598657548427582,-1.474195122718811
1759582829036372700,4.471372802734375,-0.9572712182998657,-0.16202056407928467,-1.571393370628357
1759582829046431500,4.481431396484375,-0.8390165567398071,0.06219473108649254,-1.6680928468704224
1759582829056490800,4.49149072265625,-0.9259693026542664,0.25166478753089905,-1.7518327236175537
1759582829066548500,4.501548583984375,-0.8757564425468445,0.3901212215423584,-1.8167686462402344
1759582829076607700,4.511607666015625,-1.039651870727539,0.47759437561035156,-1.8737362623214722
1759582829086666500,4.52166650390625,-1.0592029094696045,0.5474624037742615,-1.9116413593292236
1759582829096724700,4.531724853515625,-1.2227931022644043,0.590685248374939,-1.9169037342071533
1759582829106783700,4.54178369140625,-1.2022312879562378,0.6270504593849182,-1.8535939455032349
1759582829116842800,4.5518427734375,-1.3414641618728638,0.6031767725944519,-1.7374086380004883
1759582829126901500,4.561901611328125,-1.3467869758605957,0.5172075629234314,-1.5595906972885132
1759582829136959500,4.57195947265625,-1.4583892822265625,0.3421023488044739,-1.3436931371688843
1759582829147018800,4.582018798828125,-1.3839459419250488,0.13112327456474304,-1.107442021369934
1759582829157077500,4.592077392578125,-1.3974101543426514,-0.13494333624839783,-0.9007160663604736
1759582829167135700,4.6021357421875,-1.294090986251831,-0.40769049525260925,-0.744107186794281
1759582829177194500,4.612194580078125,-1.298439383506775,-0.6705465912818909,-0.6348168849945068
1759582829187253800,4.622253662109375,-1.169597864151001,-0.8646010160446167,-0.5821244120597839
1759582829197311700,4.632311767578125,-1.1281583309173584,-1.0235934257507324,-0.540502667427063
1759582829207370800,4.642370849609375,-1.003490924835205,-1.1717668771743774,-0.48862552642822266
1759582829217429800,4.6524296875,-0.999296247959137,-1.3305903673171997,-0.4225887358188629
1759582829227487500,4.662487548828125,-0.9337996244430542,-1.4142826795578003,-0.3458399772644043
1759582829237546800,4.672546630859375,-0.9232463240623474,-1.4154621362686157,-0.29794302582740784
1759582829247605500,4.68260546875,-0.7964997887611389,-1.3377408981323242,-0.29766184091567993
1759582829257663700,4.692663818359375,-0.6881453990936279,-1.180269479751587,-0.36731600761413574
1759582829267722500,4.702722412109375,-0.5328643918037415,-0.9688754081726074,-0.5387677550315857
1759582829277781800,4.71278173828125,-0.37727296352386475,-0.6663834452629089,-0.796373724937439
1759582829287840500,4.722840576171875,-0.21184219419956207,-0.3580682575702667,-1.0585273504257202
1759582829297898500,4.7328984375,-0.05159592255949974,-0.10542397946119308,-1.2969326972961426
1759582829307957800,4.742957763671875,0.08613903820514679,0.07315242290496826,-1.4952476024627686
1759582829318016800,4.753016845703125,0.17212718725204468,0.2696772515773773,-1.654231071472168
1759582829328074800,4.76307470703125,0.24542750418186188,0.5633107423782349,-1.7151471376419067
1759582829338133500,4.773133544921875,0.25142499804496765,0.8623389601707458,-1.6630830764770508
1759582829348192800,4.78319287109375,0.2585558593273163,1.0150045156478882,-1.6119558811187744
1759582829358250500,4.79325048828125,0.41340774297714233,0.9809348583221436,-1.5573277473449707
1759582829368309800,4.803309814453125,0.6958258152008057,0.9913419485092163,-1.4997326135635376
1759582829378368500,4.813368408203125,0.9063544273376465,0.911004364490509,-1.4067579507827759
1759582829388426500,4.823426513671875,0.9478996992111206,0.8811891674995422,-1.322912335395813
1759582829398485800,4.83348583984375,0.7717989683151245,0.7366011142730713,-1.1631457805633545
1759582829408544500,4.84354443359375,0.4934179484844208,0.6463833451271057,-0.9885768890380859
1759582829418603800,4.853603759765625,0.28758952021598816,0.7050511240959167,-0.9203816056251526
1759582829428661500,4.86366162109375,0.15365354716777802,0.8063412308692932,-0.9436365962028503
1759582829438720800,4.873720703125,0.02752791717648506,0.8288259506225586,-0.9068195819854736
1759582829448779500,4.883779541015625,-0.08598732203245163,0.6607485413551331,-0.8130453824996948
1759582829458837800,4.893837646484375,-0.2173067331314087,0.3150978982448578,-0.6293037533760071
1759582829468896500,4.903896484375,-0.27276411652565,0.09266697615385056,-0.4441128671169281
1759582829478955800,4.913955810546875,-0.1771891564130783,0.03325684368610382,-0.29939004778862
1759582829489013800,4.924013671875,-0.017139572650194168,0.021290726959705353,-0.195011168718338
1759582829499072500,4.934072509765625,0.07745950669050217,0.052186619490385056,-0.10149583220481873
1759582829509131800,4.9441318359375,0.09745478630065918,0.13739125430583954,-0.005141600035130978
1759582829519190500,4.9541904296875,0.09511978179216385,0.24607330560684204,0.0775650218129158
1759582829529248800,4.964248779296875,0.10279741138219833,0.3703662157058716,0.13263440132141113
1759582829539307500,4.9743076171875,0.12444935739040375,0.5017485618591309,0.18174594640731812
1759582829549366800,4.98436669921875,0.14779365062713623,0.5684407353401184,0.1958770900964737
1759582829559424500,4.994424560546875,0.12812674045562744,0.5912933349609375,0.1388755887746811
1759582829569483800,5.00448388671875,0.06859969347715378,0.5146084427833557,0.03904731199145317
1759582829579542500,5.01454248046875,-0.05661282315850258,0.3756204843521118,-0.05272947996854782
1759582829589600500,5.0246005859375,-0.2097121924161911,0.23622141778469086,-0.09422870725393295
1759582829599659800,5.03465966796875,-0.36414358019828796,0.19676083326339722,-0.09353601932525635
1759582829609718500,5.044718505859375,-0.49306172132492065,0.2358514815568924,-0.10507587343454361
1759582829619777500,5.054777587890625,-0.5716526508331299,0.28937146067619324,-0.16722580790519714
1759582829629835300,5.064835205078125,-0.6537045836448669,0.3058062791824341,-0.2615472972393036
1759582829639894500,5.07489453125,-0.7830023765563965,0.30982285737991333,-0.3780438303947449
1759582829649953300,5.084953369140625,-0.856900155544281,0.20974691212177277,-0.5257444381713867
1759582829660011500,5.095011474609375,-0.7463030815124512,0.03824812173843384,-0.7320816516876221
1759582829670070500,5.105070556640625,-0.6162481307983398,0.05259403586387634,-0.9107022285461426
1759582829680129500,5.115129638671875,-0.6203224062919617,0.13527050614356995,-0.9518102407455444
1759582829690187500,5.1251875,-0.6609172224998474,0.11532315611839294,-0.8662295341491699
1759582829700246500,5.13524658203125,-0.696873664855957,0.23078228533267975,-0.75022953748703
1759582829710305500,5.145305419921875,-0.6998697519302368,0.3541361689567566,-0.6026821732521057
1759582829720364500,5.155364501953125,-0.6868900656700134,0.35407179594039917,-0.4168063998222351
1759582829730422500,5.165422607421875,-0.6716811060905457,0.2129911482334137,-0.21092751622200012
1759582829740481300,5.175481201171875,-0.7155284881591797,0.1267356127500534,-0.04300933703780174
1759582829750540500,5.18554052734375,-0.7637375593185425,0.11807288974523544,0.09151944518089294
1759582829760598500,5.1955986328125,-0.7708464860916138,0.1792260706424713,0.19433219730854034
1759582829770657500,5.205657470703125,-0.7279176115989685,0.2549956738948822,0.289643257856369
1759582829780716500,5.215716552734375,-0.6338055729866028,0.34379592537879944,0.41832295060157776
1759582829790775600,5.225775634765625,-0.44622504711151123,0.4485532343387604,0.5635533928871155
1759582829800833500,5.23583349609375,-0.1993023306131363,0.5777391791343689,0.6999548673629761
1759582829810892500,5.245892578125,0.053468137979507446,0.5380581021308899,0.8900648951530457
1759582829820951600,5.25595166015625,0.18082310259342194,0.47373145818710327,1.1375540494918823
1759582829831009300,5.26600927734375,0.24327422678470612,0.39706966280937195,1.4128262996673584
1759582829841068500,5.276068603515625,0.322843074798584,0.38606733083724976,1.6794723272323608
1759582829851127300,5.286127197265625,0.43124571442604065,0.4365198612213135,1.9235957860946655
1759582829861186600,5.2961865234375,0.5587374567985535,0.5167003273963928,2.1319832801818848
1759582829871244500,5.30624462890625,0.6795997023582458,0.6286079287528992,2.27959942817688
1759582829881303600,5.316303466796875,0.7714483737945557,0.7804595232009888,2.3436286449432373
1759582829891362300,5.3263623046875,0.8444137573242188,0.9165979623794556,2.3118739128112793
1759582829901420500,5.336420654296875,0.9223493337631226,1.0144633054733276,2.206289768218994
1759582829911479600,5.3464794921875,1.0381559133529663,1.0875601768493652,2.103214740753174
1759582829921538600,5.35653857421875,1.1379350423812866,1.0670229196548462,2.048593759536743
1759582829931597600,5.36659765625,1.193372368812561,1.0526282787322998,2.035257339477539
1759582829941655300,5.3766552734375,1.1668411493301392,1.1056076288223267,2.0139377117156982
1759582829951714600,5.386714599609375,1.0612452030181885,1.338286280632019,1.960895299911499
1759582829961773300,5.396773193359375,0.9346711039543152,1.5449659824371338,1.901877522468567
1759582829971831600,5.40683154296875,0.8022973537445068,1.8046483993530273,1.7887824773788452
1759582829981890600,5.416890625,0.6685516238212585,2.0735926628112793,1.6192866563796997
1759582829991949600,5.426949462890625,0.5749293565750122,2.2350265979766846,1.402991533279419
1759582830002008300,5.43700830078125,0.6395642757415771,2.047407388687134,1.2360320091247559
1759582830012066300,5.44706640625,0.7435442805290222,1.4961940050125122,1.0794732570648193
1759582830022125600,5.45712548828125,0.9166121482849121,0.9113366603851318,0.7800649404525757
1759582830032184600,5.4671845703125,1.3396267890930176,0.8434854745864868,0.4746645390987396
1759582830042242600,5.47724267578125,1.9049700498580933,1.0571465492248535,0.24827370047569275
1759582830052301300,5.48730126953125,2.3996331691741943,1.5075818300247192,0.10178279876708984
1759582830062360600,5.497360595703125,2.6379034519195557,1.8485825061798096,0.08418958634138107
1759582830072419300,5.50741943359375,2.7508509159088135,1.6491669416427612,0.224093958735466
1759582830082477600,5.5174775390625,2.765108108520508,1.0460546016693115,0.4527667760848999
1759582830092536600,5.52753662109375,2.6691243648529053,0.3386468291282654,0.6810587644577026
1759582830102595600,5.537595703125,2.5446410179138184,-0.2038007527589798,0.8792791962623596
1759582830112653600,5.547653564453125,2.4747793674468994,-0.5169746279716492,1.0331063270568848
1759582830122712300,5.55771240234375,2.4482593536376953,-0.7027959227561951,1.1515109539031982
1759582830132771600,5.567771484375,2.3514952659606934,-0.7308581471443176,1.2099816799163818
1759582830142830300,5.577830322265625,2.224562644958496,-0.7328959107398987,1.223004937171936
1759582830152888600,5.587888671875,2.075392246246338,-0.9031435251235962,1.2591712474822998
1759582830162947300,5.597947265625,1.9428194761276245,-1.2412889003753662,1.3161581754684448
1759582830173006600,5.608006591796875,1.8575154542922974,-1.6021150350570679,1.4399265050888062
1759582830183065300,5.6180654296875,1.814644694328308,-1.7310136556625366,1.4923869371414185
1759582830193123600,5.62812353515625,1.7487155199050903,-1.7828294038772583,1.499533772468567
1759582830203182300,5.638182373046875,1.650212049484253,-1.9157227277755737,1.4849168062210083
1759582830213241600,5.64824169921875,1.5969758033752441,-1.9698398113250732,1.3894925117492676
1759582830223299600,5.658299560546875,1.4581319093704224,-2.2283878326416016,1.392821192741394
1759582830233358300,5.6683583984375,1.2562342882156372,-2.342979907989502,1.3934414386749268
1759582830243417600,5.67841748046875,1.0844589471817017,-2.203219413757324,1.3106220960617065
1759582830253476400,5.688476318359375,0.9423732161521912,-1.9877159595489502,1.1641734838485718
1759582830263534600,5.69853466796875,0.8246568441390991,-1.6864477396011353,0.9241127371788025
1759582830273593300,5.70859326171875,0.582647979259491,-1.5847216844558716,0.7375867962837219
1759582830283652600,5.718652587890625,0.41748204827308655,-1.2760220766067505,0.45414504408836365
1759582830293710600,5.728710693359375,0.28765934705734253,-0.9406583905220032,0.16437207162380219
1759582830303769600,5.73876953125,0.1908484697341919,-0.6077255606651306,-0.11579586565494537
1759582830313828400,5.748828369140625,0.14442899823188782,-0.29110637307167053,-0.3633253872394562
1759582830323887600,5.7588876953125,0.1441996991634369,-0.013984237797558308,-0.5781700611114502
1759582830333945600,5.768945556640625,0.15200142562389374,0.18376240134239197,-0.7551555037498474
1759582830344004400,5.77900439453125,0.13645681738853455,0.2797459363937378,-0.8917101621627808
1759582830354063600,5.789063720703125,0.07981789112091064,0.28981316089630127,-0.9989427924156189
1759582830364121300,5.799121337890625,-0.016741670668125153,0.2719404101371765,-1.080228328704834
1759582830374180600,5.8091806640625,-0.12141828238964081,0.2688380479812622,-1.1484116315841675
1759582830384239400,5.8192392578125,-0.2269127517938614,0.2648337185382843,-1.248336911201477
1759582830394298600,5.829298583984375,-0.2439202070236206,0.3407557010650635,-1.3127883672714233
1759582830404356400,5.8393564453125,-0.1131020039319992,0.6387112736701965,-1.3069970607757568
1759582830414415600,5.84941552734375,0.19229993224143982,1.2740845680236816,-1.3615678548812866
1759582830424474400,5.859474365234375,0.3462740480899811,1.2857087850570679,-1.449237585067749
1759582830434533600,5.86953369140625,0.03321653977036476,0.9066067337989807,-1.464067816734314
1759582830444591600,5.879591552734375,-0.4829430878162384,0.6055777072906494,-1.093772292137146
1759582830454650400,5.889650390625,-0.7144050598144531,0.20381778478622437,-0.7271304130554199
1759582830464709600,5.899709716796875,-0.8390970230102539,-0.4192505478858948,-0.531270444393158
1759582830474767400,5.909767333984375,-0.9101845026016235,-0.7157021760940552,-0.39824339747428894
1759582830484826600,5.91982666015625,-1.040004014968872,-0.9515615701675415,-0.3427181839942932
1759582830494885400,5.929885498046875,-1.2045423984527588,-1.1629917621612549,-0.3249490261077881
1759582830504944600,5.939944580078125,-1.3264988660812378,-1.277414321899414,-0.4246269166469574
1759582830515002400,5.95000244140625,-1.3892637491226196,-1.2277514934539795,-0.6209171414375305
1759582830525061400,5.960061279296875,-1.4099605083465576,-1.0454354286193848,-0.8352856040000916
1759582830535120400,5.970120361328125,-1.3907380104064941,-0.7438105940818787,-1.079127311706543
1759582830545178400,5.980178466796875,-1.3805292844772339,-0.3802410066127777,-1.33793306350708
1759582830555237600,5.990237548828125,-1.401078462600708,-0.052516669034957886,-1.5663970708847046
1759582830565296400,6.00029638671875,-1.4265284538269043,0.19511106610298157,-1.765989065170288
1759582830575355600,6.010355712890625,-1.4913361072540283,0.4516885578632355,-1.913708209991455
1759582830585413400,6.020413330078125,-1.5481767654418945,0.6288480162620544,-2.0172550678253174
1759582830595472600,6.03047265625,-1.5672303438186646,0.7354088425636292,-2.0722105503082275
1759582830605532000,6.040531982421875,-1.5336651802062988,0.8160538673400879,-2.066288709640503
1759582830615591000,6.0505908203125,-1.4777429103851318,0.8560088276863098,-2.009793758392334
1759582830625649000,6.06064892578125,-1.4122360944747925,0.8177506327629089,-1.9197319746017456
1759582830635708000,6.0707080078125,-1.3354319334030151,0.6988692879676819,-1.8111541271209717
1759582830645767000,6.080766845703125,-1.3121163845062256,0.5610684156417847,-1.685350775718689
1759582830655825000,6.090824951171875,-1.3079230785369873,0.39583200216293335,-1.541068434715271
1759582830665884000,6.1008837890625,-1.310857892036438,0.20583784580230713,-1.4064879417419434
1759582830675943000,6.11094287109375,-1.3170288801193237,-0.0041844770312309265,-1.2704285383224487
1759582830686001700,6.121001708984375,-1.324770212173462,-0.24723148345947266,-1.1272751092910767
1759582830696060000,6.131059814453125,-1.3298149108886719,-0.5215219855308533,-0.9833372831344604
1759582830706119000,6.141118896484375,-1.3101953268051147,-0.7786640524864197,-0.8296304941177368
1759582830716178000,6.151177978515625,-1.2810242176055908,-1.009502649307251,-0.655151903629303
1759582830726237000,6.16123681640625,-1.2724800109863281,-1.2334896326065063,-0.4846433103084564
1759582830736294700,6.171294677734375,-1.268967866897583,-1.4224469661712646,-0.34562948346138
1759582830746354000,6.18135400390625,-1.2530437707901,-1.5339114665985107,-0.2758149802684784
1759582830756412700,6.19141259765625,-1.181723713874817,-1.5504977703094482,-0.2623477578163147
1759582830766471000,6.201470947265625,-1.056646466255188,-1.548641324043274,-0.27508673071861267
1759582830776529700,6.21152978515625,-0.8687368631362915,-1.5716545581817627,-0.2885743975639343
1759582830786589000,6.2215888671875,-0.6389337182044983,-1.5254881381988525,-0.33171868324279785
1759582830796647700,6.231647705078125,-0.386391818523407,-1.4150919914245605,-0.43494483828544617
1759582830806706000,6.241705810546875,-0.1423618346452713,-1.2385296821594238,-0.6125526428222656
1759582830816765000,6.251764892578125,0.05279326066374779,-1.0380003452301025,-0.8024083375930786
1759582830826824000,6.261823974609375,0.22430917620658875,-0.7492265105247498,-0.9912628531455994
1759582830836882000,6.2718818359375,0.4177630841732025,-0.32744866609573364,-1.175301432609558
1759582830846940700,6.281940673828125,0.5589460730552673,0.02318490296602249,-1.2888439893722534
1759582830857000000,6.292,0.5938782095909119,0.2832319140434265,-1.3212032318115234
1759582830867058700,6.30205859375,0.6333792805671692,0.3706599771976471,-1.3420917987823486
1759582830877117000,6.312116943359375,0.7939873337745667,0.5419065356254578,-1.566605567932129
1759582830887175700,6.32217578125,1.0639326572418213,0.9747360944747925,-1.8677572011947632
1759582830897235000,6.33223486328125,1.2493157386779785,1.5204136371612549,-2.0164945125579834
1759582830907293700,6.342293701171875,1.1989474296569824,1.929487943649292,-1.8295598030090332
1759582830917352000,6.35235205078125,0.9572155475616455,1.8402233123779297,-1.4052962064743042
1759582830927411000,6.362410888671875,0.5708972215652466,1.412260890007019,-0.9282410740852356
1759582830937470000,6.372469970703125,0.1806335747241974,0.8691115975379944,-0.4963471591472626
1759582830947528000,6.38252783203125,-0.08511965721845627,0.36770129203796387,-0.31088611483573914
1759582830957586700,6.392586669921875,-0.183716282248497,0.061842311173677444,-0.4118545651435852
1759582830967646000,6.40264599609375,-0.2882658839225769,-0.04848586767911911,-0.5424420833587646
1759582830977704700,6.41270458984375,-0.26959601044654846,-0.09110482037067413,-0.5030601024627686
1759582830987763000,6.422762939453125,-0.16432523727416992,-0.025666160508990288,-0.4135581851005554
1759582830997821700,6.43282177734375,-0.05032144859433174,0.116432324051857,-0.3873372972011566
1759582831007881000,6.442880859375,0.017655204981565475,0.2557950019836426,-0.4005622863769531
1759582831017939700,6.452939697265625,0.016569701954722404,0.3506093919277191,-0.3800410330295563
1759582831027998000,6.462998046875,-0.049768976867198944,0.4108061194419861,-0.3048264682292938
1759582831038057000,6.473056884765625,-0.08899600803852081,0.4945566952228546,-0.21675945818424225
1759582831048116000,6.483115966796875,-0.06974472105503082,0.5924645662307739,-0.1350407749414444
1759582831058174000,6.493174072265625,-0.021306637674570084,0.6498703360557556,-0.07046329230070114
1759582831068232700,6.503232666015625,2.4866312742233276e-7,0.6261370182037354,-0.047551851719617844
1759582831078292000,6.5132919921875,-0.04072720557451248,0.5388956069946289,-0.07629375159740448
1759582831088350700,6.523350830078125,-0.13274821639060974,0.4323851466178894,-0.14741827547550201
1759582831098409000,6.533408935546875,-0.23542025685310364,0.3255220949649811,-0.20566426217556
1759582831108467700,6.5434677734375,-0.31969910860061646,0.2706352770328522,-0.23941843211650848
1759582831118527000,6.55352685546875,-0.37808549404144287,0.27956125140190125,-0.24426640570163727
1759582831128585700,6.563585693359375,-0.4059664011001587,0.319060742855072,-0.2500782012939453
1759582831138643700,6.573643798828125,-0.4167729914188385,0.36244282126426697,-0.24972102046012878
1759582831148703000,6.583702880859375,-0.45602720975875854,0.4004274904727936,-0.2600354254245758
1759582831158761700,6.59376171875,-0.5276430249214172,0.36294323205947876,-0.3068011403083801
1759582831168820700,6.60382080078125,-0.5469527840614319,0.20983463525772095,-0.40978237986564636
1759582831178878700,6.613878662109375,-0.4912876784801483,0.08569404482841492,-0.5019387006759644
1759582831188938000,6.62393798828125,-0.47106996178627014,0.10892734676599503,-0.5547229051589966
1759582831198996700,6.633996826171875,-0.5113905072212219,0.20108577609062195,-0.5582262873649597
1759582831209055000,6.644054931640625,-0.5895411968231201,0.30945464968681335,-0.5414170026779175
1759582831219113700,6.65411376953125,-0.7133073210716248,0.45954135060310364,-0.514259934425354
1759582831229173000,6.664173095703125,-0.8681974411010742,0.5942161083221436,-0.46252214908599854
1759582831239231700,6.674231689453125,-1.0010311603546143,0.623094379901886,-0.37076640129089355
1759582831249289700,6.684289794921875,-1.0518591403961182,0.5425441265106201,-0.24726857244968414
1759582831259349000,6.694348876953125,-1.0202323198318481,0.4894236624240875,-0.12014977633953094
1759582831269407700,6.70440771484375,-0.9360966086387634,0.5638728141784668,0.015293286181986332
1759582831279466800,6.714466796875,-0.8651773929595947,0.7612900137901306,0.15200559794902802
1759582831289524700,6.724524658203125,-0.8025526404380798,0.9584388136863708,0.29468363523483276
1759582831299584000,6.734583984375,-0.7254224419593811,1.058024525642395,0.4604678153991699
1759582831309642800,6.744642822265625,-0.618357241153717,1.0891830921173096,0.6558039784431458
1759582831319701000,6.754700927734375,-0.47761663794517517,1.0693111419677734,0.8828152418136597
1759582831329759700,6.764759765625,-0.3194563090801239,0.9631161093711853,1.1269737482070923
1759582831339819000,6.774819091796875,-0.16033829748630524,0.8650383353233337,1.3507424592971802
1759582831349877800,6.784877685546875,0.00870567373931408,0.789770781993866,1.5661860704421997
1759582831359935700,6.794935791015625,0.2118806391954422,0.7475708723068237,1.7641119956970215
1759582831369994800,6.804994873046875,0.4361274540424347,0.7202927470207214,1.9273247718811035
1759582831380053800,6.8150537109375,0.6756082773208618,0.6986836194992065,2.0455985069274902
1759582831390112800,6.82511279296875,0.9422226548194885,0.6710770130157471,2.0927493572235107
1759582831400170800,6.835170654296875,1.207883596420288,0.6802495121955872,2.0507309436798096
1759582831410230000,6.84522998046875,1.4106718301773071,0.7452437281608582,1.9215712547302246
1759582831420288800,6.855288818359375,1.4892677068710327,0.8035064935684204,1.7611463069915771
1759582831430348000,6.86534814453125,1.4857728481292725,0.834632158279419,1.668566346168518
1759582831440405800,6.87540576171875,1.433120608329773,0.7826365232467651,1.6389830112457275
1759582831450465000,6.885465087890625,1.3507112264633179,0.7425546050071716,1.6170990467071533
1759582831460523800,6.895523681640625,1.2580041885375977,0.7147200107574463,1.617020606994629
1759582831470583000,6.9055830078125,1.1279511451721191,0.6814486384391785,1.6558609008789062
1759582831480640800,6.915640869140625,0.9932849407196045,0.7436362504959106,1.685314416885376
1759582831490699800,6.92569970703125,0.8714134097099304,0.8806273341178894,1.6729234457015991
1759582831500758800,6.9357587890625,0.7339138984680176,1.1105774641036987,1.6299949884414673
1759582831510816800,6.945816650390625,0.591323733329773,1.3424599170684814,1.5926183462142944
1759582831520876000,6.9558759765625,0.5812585949897766,1.316713809967041,1.5375913381576538
1759582831530934800,6.965934814453125,0.6928490400314331,0.9111974835395813,1.4656943082809448
1759582831540994000,6.975994140625,0.7774407267570496,0.2745914161205292,1.2727199792861938
1759582831551051800,6.9860517578125,1.1138986349105835,-0.0697755515575409,0.9929720163345337
1759582831561111000,6.996111083984375,1.679090142250061,-0.03140578791499138,0.6654670834541321
1759582831571169800,7.006169677734375,2.3210673332214355,0.2935207784175873,0.32623645663261414
1759582831581229000,7.01622900390625,2.775254726409912,0.9129358530044556,0.1321178823709488
1759582831591286800,7.026286865234375,2.9788684844970703,1.557275652885437,0.11544235050678253
1759582831601345800,7.036345703125,3.101125717163086,1.8758456707000732,0.251004159450531
1759582831611405000,7.046405029296875,3.159552812576294,1.7893152236938477,0.4691840708255768
1759582831621464300,7.05646435546875,3.0204460620880127,1.3026469945907593,0.7027795314788818
1759582831631522300,7.066522216796875,2.739932060241699,0.5011940002441406,0.9156506657600403
1759582831641581000,7.0765810546875,2.484867572784424,-0.3332388401031494,1.0603342056274414
1759582831651640000,7.08664013671875,2.2986745834350586,-0.9824079275131226,1.1587530374526978
1759582831661699000,7.096698974609375,2.1975185871124268,-1.2109310626983643,1.134840965270996
1759582831671757300,7.10675732421875,2.2380623817443848,-1.2100242376327515,1.0729933977127075
1759582831681816000,7.116816162109375,2.2925472259521484,-1.2607858180999756,1.0844933986663818
1759582831691875300,7.126875244140625,2.263606548309326,-1.4218738079071045,1.1864511966705322
1759582831701933000,7.13693310546875,2.1350626945495605,-1.6287643909454346,1.3566794395446777
1759582831711992300,7.146992431640625,2.0359482765197754,-1.733856439590454,1.4890828132629395
1759582831722051000,7.157051025390625,1.9086538553237915,-1.7835233211517334,1.5316613912582397
1759582831732110300,7.1671103515625,1.7822110652923584,-1.883823037147522,1.5324852466583252
1759582831742168000,7.17716796875,1.675110101699829,-1.9384846687316895,1.5067369937896729
1759582831752227000,7.18722705078125,1.6082227230072021,-1.7602994441986084,1.3510297536849976
1759582831762286000,7.1972861328125,1.420694351196289,-1.797930359840393,1.209220051765442
1759582831772345000,7.207344970703125,1.220760703086853,-1.7619519233703613,1.0327738523483276
1759582831782403300,7.2174033203125,1.0420130491256714,-1.5243955850601196,0.7761860489845276
1759582831792462000,7.227462158203125,0.8719079494476318,-1.2837238311767578,0.5422045588493347
1759582831802521300,7.237521240234375,0.7596638202667236,-1.0015184879302979,0.3209971785545349
1759582831812580000,7.247580078125,0.6798304915428162,-0.7542642951011658,0.12732651829719543
1759582831822638000,7.25763818359375,0.5673107504844666,-0.625508189201355,0.0169727373868227
1759582831832697000,7.267697021484375,0.5225627422332764,-0.3704354166984558,-0.15823610126972198
1759582831842756000,7.277756103515625,0.4960601031780243,-0.18471261858940125,-0.3226054906845093
1759582831852815000,7.287815185546875,0.47429007291793823,-0.08813229203224182,-0.46983596682548523
1759582831862873000,7.297873046875,0.4532938003540039,-0.01224841270595789,-0.6108943819999695
1759582831872932000,7.30793212890625,0.49353736639022827,0.1725669801235199,-0.8005516529083252
1759582831882991000,7.3179912109375,0.36897754669189453,0.03436055779457092,-0.8782527446746826
1759582831893050000,7.328050048828125,0.21920643746852875,0.005353140644729137,-0.9481233954429626
1759582831903108000,7.338108154296875,0.08057568222284317,-0.019805124029517174,-1.034820318222046
1759582831913167400,7.34816748046875,-0.07893940806388855,-0.12049258500337601,-1.0992059707641602
1759582831923226000,7.35822607421875,-0.2477104663848877,-0.23077066242694855,-1.1398563385009766
1759582831933285000,7.36828515625,-0.43645402789115906,-0.3217676877975464,-1.170430302619934
1759582831943343000,7.378343017578125,-0.6283867359161377,-0.326093465089798,-1.1825377941131592
1759582831953402000,7.388402099609375,-0.7320702075958252,-0.2068750411272049,-1.1728218793869019
1759582831963461000,7.398461181640625,-0.5904483199119568,0.11038707941770554,-1.0726535320281982
1759582831973520100,7.40852001953125,-0.30293771624565125,0.6076554656028748,-0.8940749764442444
1759582831983578000,7.418578125,-0.07287121564149857,0.8407787084579468,-1.0959231853485107
1759582831993637000,7.42863720703125,-0.41889387369155884,0.5489729642868042,-1.2315794229507446
1759582832003696000,7.438696044921875,-1.0003397464752197,-0.2828129231929779,-1.047505497932434
1759582832013755100,7.448755126953125,-1.2165907621383667,-0.8627426624298096,-0.8003632426261902
1759582832023813000,7.458813232421875,-1.2366158962249756,-1.1780643463134766,-0.7128291130065918
1759582832033872100,7.4688720703125,-1.3659083843231201,-1.0105342864990234,-0.7936209440231323
1759582832043931100,7.47893115234375,-1.471226453781128,-0.8193555474281311,-0.9110724925994873
1759582832053990100,7.488990234375,-1.5386345386505127,-0.7827369570732117,-1.0552111864089966
1759582832064048000,7.499048095703125,-1.5989619493484497,-0.8060504198074341,-1.1261056661605835
1759582832074107100,7.509107177734375,-1.6178392171859741,-0.7112136483192444,-1.1758114099502563
1759582832084166100,7.519166259765625,-1.5720206499099731,-0.6344799995422363,-1.2007715702056885
1759582832094225200,7.52922509765625,-1.497909426689148,-0.47897225618362427,-1.243082880973816
1759582832104283100,7.539283203125,-1.4343653917312622,-0.24555177986621857,-1.3297216892242432
1759582832114342100,7.549342041015625,-1.3956401348114014,-0.014726972207427025,-1.4343031644821167
1759582832124401200,7.559401123046875,-1.3540104627609253,0.17099735140800476,-1.5089033842086792
1759582832134460200,7.569460205078125,-1.2447923421859741,0.26252061128616333,-1.5893526077270508
1759582832144518100,7.57951806640625,-1.1023635864257812,0.32581037282943726,-1.6891697645187378
1759582832154577200,7.5895771484375,-1.073362112045288,0.5946792960166931,-1.8009226322174072
1759582832164636200,7.59963623046875,-1.2268892526626587,0.8534253835678101,-1.9384360313415527
1759582832174695200,7.609695068359375,-1.3870654106140137,0.8287120461463928,-1.9408611059188843
1759582832184753200,7.619753173828125,-1.5450445413589478,0.8208427429199219,-1.8301150798797607
1759582832194812200,7.629812255859375,-1.7269078493118286,0.7564738392829895,-1.6733521223068237
1759582832204871200,7.63987109375,-1.8255876302719116,0.6095105409622192,-1.499384880065918
1759582832214930200,7.64993017578125,-1.757707118988037,0.357014924287796,-1.2969080209732056
1759582832224988200,7.65998828125,-1.5592035055160522,0.07400377094745636,-1.0849840641021729
1759582832235047200,7.670047119140625,-1.3313794136047363,-0.21079812943935394,-0.8608723878860474
1759582832245106200,7.680106201171875,-1.1766446828842163,-0.4221605062484741,-0.6550255417823792
1759582832255165200,7.690165283203125,-1.066254734992981,-0.564200758934021,-0.4381537437438965
1759582832265223200,7.70022314453125,-1.0079201459884644,-0.6432634592056274,-0.25569331645965576
1759582832275282200,7.7102822265625,-1.0916606187820435,-0.7440140843391418,-0.12047959119081497
1759582832285341200,7.720341064453125,-1.1270338296890259,-0.8408461213111877,-0.0375845804810524
1759582832295400200,7.730400146484375,-1.1431204080581665,-0.933191180229187,0.016547365114092827
1759582832305458200,7.740458251953125,-1.0817947387695312,-1.007902979850769,0.12527009844779968
1759582832315517200,7.75051708984375,-1.035935640335083,-0.9924798011779785,0.19856375455856323
1759582832325576200,7.760576171875,-0.9931754469871521,-0.9005743861198425,0.10812892764806747
1759582832335635200,7.77063525390625,-0.8445594310760498,-0.8049498200416565,-0.06588553637266159
1759582832345693200,7.780693115234375,-0.8540794253349304,-0.5806652903556824,-0.3268926441669464
1759582832355752200,7.790752197265625,-0.880139172077179,-0.46431848406791687,-0.5340138077735901
1759582832365811200,7.800811279296875,-0.7911501526832581,-0.4814772307872772,-0.6161105632781982
1759582832375870200,7.8108701171875,-0.6746245622634888,-0.497578501701355,-0.6641348600387573
1759582832385929200,7.82092919921875,-0.5511465668678284,-0.5087850689888,-0.7275828123092651
1759582832395987000,7.830987060546875,-0.4679579734802246,-0.3658022880554199,-0.7946781516075134
1759582832406046200,7.841046142578125,-0.451418936252594,-0.2389894723892212,-0.8687507510185242
1759582832416105000,7.85110498046875,-0.4456925690174103,-0.049368422478437424,-0.9496572017669678
1759582832426164200,7.861164306640625,-0.40637367963790894,0.15666276216506958,-0.9991639852523804
1759582832436222000,7.871221923828125,-0.3114669620990753,0.3256748914718628,-0.9922363758087158
1759582832446281200,7.88128125,-0.1767006367444992,0.45635300874710083,-0.9229044318199158
1759582832456340000,7.891340087890625,-0.036035940051078796,0.5718134045600891,-0.8133636116981506
1759582832466399200,7.901399169921875,0.09169459342956543,0.6571922302246094,-0.678022027015686
1759582832476457200,7.911457275390625,0.16215142607688904,0.6570616364479065,-0.5147579908370972
1759582832486516200,7.92151611328125,0.19258762896060944,0.6099825501441956,-0.34277984499931335
1759582832496575200,7.9315751953125,0.2071223258972168,0.48953601717948914,-0.18955019116401672
1759582832506634200,7.94163427734375,0.15797367691993713,0.3398442566394806,-0.08864035457372665
1759582832516692200,7.951692138671875,0.1109616756439209,0.19134961068630219,-0.03852517902851105
1759582832526751000,7.9617509765625,0.1031879112124443,0.06034339219331741,-0.016814827919006348
1759582832536810200,7.971810302734375,0.1078481674194336,0.006011281628161669,-0.01594141311943531
1759582832546869000,7.981868896484375,0.1587102860212326,0.03331507369875908,-0.0389346145093441
1759582832556928300,7.99192822265625,0.24177294969558716,0.10450217127799988,-0.08567681908607483
1759582832566986000,8.001986083984375,0.30378323793411255,0.21653251349925995,-0.1470469832420349
1759582832577045200,8.012045166015625,0.34884676337242126,0.3385878801345825,-0.18933498859405518
1759582832587104000,8.02210400390625,0.36690589785575867,0.45319080352783203,-0.1889655739068985
1759582832597163300,8.032163330078125,0.3388441801071167,0.5415619015693665,-0.14764957129955292
1759582832607220500,8.042220458984374,0.3002461791038513,0.6328332424163818,-0.054843731224536896
1759582832617279500,8.052279541015626,0.27792084217071533,0.6966639757156372,0.08261597901582718
1759582832627338500,8.06233837890625,0.2564830780029297,0.7411109209060669,0.21956613659858704
1759582832637397500,8.0723974609375,0.2014262080192566,0.8054621815681458,0.30943265557289124
1759582832647455500,8.08245556640625,0.1745045781135559,0.7963705658912659,0.373131662607193
1759582832657514500,8.092514404296875,0.16095148026943207,0.7196385264396667,0.41350412368774414
1759582832667573500,8.102573486328126,0.05033309757709503,0.7069369554519653,0.3880494236946106
1759582832677632500,8.112632568359375,-0.1394679993391037,0.7145770192146301,0.3216054141521454
1759582832687691500,8.12269140625,-0.2544648349285126,0.6255870461463928,0.29822808504104614
1759582832697749500,8.13274951171875,-0.20664219558238983,0.3431563973426819,0.39798635244369507
1759582832707808500,8.14280859375,-0.10182150453329086,-0.08512836694717407,0.5702636241912842
1759582832717867500,8.152867431640624,-0.023881033062934875,-0.5329181551933289,0.7204578518867493
1759582832727926500,8.162926513671875,-0.03198210522532463,-0.9213098287582397,0.7837260365486145
1759582832737984500,8.172984619140625,-0.1174750104546547,-1.2349584102630615,0.6886855959892273
1759582832748043500,8.18304345703125,-0.1387621909379959,-1.504492163658142,0.5164639949798584
1759582832758102500,8.1931025390625,-0.07355625182390213,-1.6700676679611206,0.35868188738822937
1759582832768161500,8.20316162109375,0.0019222595728933811,-1.58380925655365,0.15600521862506866
1759582832778220300,8.21322021484375,0.06383770704269409,-1.2878987789154053,-0.04823567718267441
1759582832788278500,8.223278564453125,0.07600462436676025,-0.8037089705467224,-0.20280101895332336
1759582832798337500,8.233337646484374,0.053459763526916504,-0.21879492700099945,-0.3278021216392517
1759582832808396500,8.243396484375,0.08512687683105469,0.18505267798900604,-0.4002382159233093
1759582832818455600,8.25345556640625,0.1250690072774887,0.4518691599369049,-0.41923680901527405
1759582832828513500,8.263513427734376,0.1476515531539917,0.6287265419960022,-0.42507845163345337
1759582832838572500,8.273572509765625,0.1207040399312973,0.7113067507743835,-0.45715880393981934
1759582832848631600,8.283631591796874,0.050140928477048874,0.7205777764320374,-0.5440577864646912
1759582832858690600,8.293690673828126,-0.022146522998809814,0.628535807132721,-0.6047471165657043
1759582832868749600,8.30374951171875,-0.06201058253645897,0.49028128385543823,-0.6214158535003662
1759582832878807600,8.3138076171875,-0.053206875920295715,0.39838725328445435,-0.5952189564704895
1759582832888866300,8.3238662109375,0.0027128467336297035,0.3935544192790985,-0.49461784958839417
1759582832898925600,8.333925537109375,0.0589514821767807,0.496301531791687,-0.28269919753074646
1759582832908984300,8.343984375,-0.009747155010700226,0.6457397937774658,-0.08358209580183029
1759582832919042600,8.35404248046875,-0.178619846701622,0.7695145606994629,0.11165694892406464
1759582832929101600,8.3641015625,-0.25666937232017517,0.7578288316726685,0.27821236848831177
1759582832939160600,8.37416064453125,-0.2620006799697876,0.5803115963935852,0.39284780621528625
1759582832949219600,8.384219482421875,-0.30555135011672974,0.3063121438026428,0.40461432933807373
1759582832959278600,8.394278564453124,-0.4454067051410675,-0.043528154492378235,0.33159977197647095
1759582832969336600,8.404336669921875,-0.609416127204895,-0.4243820309638977,0.24161262810230255
1759582832979395600,8.4143955078125,-0.7235723733901978,-0.7384060025215149,0.1586785465478897
1759582832989454600,8.42445458984375,-0.7458152174949646,-0.9435379505157471,0.10380571335554123
1759582832999513600,8.434513671875,-0.7368276119232178,-1.0024023056030273,0.06457734853029251
1759582833009572600,8.444572509765624,-0.7324782013893127,-0.8729147911071777,0.04620199650526047
1759582833019630300,8.45463037109375,-0.7245592474937439,-0.6338337659835815,0.06359190493822098
1759582833029689600,8.464689697265625,-0.7147771120071411,-0.36873576045036316,0.12232007831335068
1759582833039748400,8.474748291015626,-0.6380607485771179,-0.1802300214767456,0.2400192767381668
1759582833049807600,8.4848076171875,-0.6103859543800354,-0.00775013817474246,0.3400571942329407
1759582833059865600,8.494865478515624,-0.6271321177482605,0.018607772886753082,0.39603567123413086
1759582833069924600,8.504924560546876,-0.6128650307655334,-0.11800812929868698,0.4262591004371643
1759582833079983400,8.5149833984375,-0.6227232813835144,-0.3806774914264679,0.43096816539764404
1759582833090042600,8.525042724609374,-0.6014824509620667,-0.6620596051216125,0.42535555362701416
1759582833100101400,8.535101318359375,-0.5672225952148438,-0.8314439058303833,0.3889857828617096
1759582833110159600,8.54515966796875,-0.604122519493103,-0.8521366715431213,0.3354746401309967
1759582833120218600,8.555218505859376,-0.7645040154457092,-0.7553941607475281,0.26469162106513977
1759582833130277600,8.565277587890625,-1.0472828149795532,-0.6246023178100586,0.1959117352962494
1759582833140336600,8.575336669921874,-1.428548812866211,-0.5209752321243286,0.1451447606086731
1759582833150395600,8.585395751953126,-1.8267419338226318,-0.5294222831726074,0.16797710955142975
1759582833160453600,8.59545361328125,-2.0787224769592285,-0.6670925617218018,0.2735317051410675
1759582833170512400,8.605512451171874,-1.9908710718154907,-0.7725761532783508,0.3999788761138916
1759582833180571600,8.615571533203125,-1.303418755531311,-0.3871839642524719,0.41852691769599915
1759582833190630400,8.62563037109375,-0.3850994110107422,0.2384309023618698,0.3892979323863983
1759582833200688600,8.635688720703126,0.36915895342826843,0.8881527781486511,0.3172226548194885
1759582833210747400,8.645747314453125,0.7726659774780273,1.242459774017334,0.2829536199569702
1759582833220806700,8.655806640625,0.798000693321228,1.2737854719161987,0.3711588382720947
1759582833230865400,8.665865478515625,0.6624319553375244,1.1660590171813965,0.5362878441810608
1759582833240924700,8.675924560546875,0.5267756581306458,1.1363941431045532,0.6746968626976013
1759582833250982400,8.685982421875,0.43608808517456055,1.2309069633483887,0.7418074607849121
1759582833261041700,8.696041748046875,0.32828453183174133,1.416240930557251,0.7420490384101868
1759582833271100400,8.706100341796875,0.2200840264558792,1.6143563985824585,0.6784061789512634
1759582833281159700,8.71615966796875,0.09839072078466415,1.7436319589614868,0.5668827891349792
1759582833291218400,8.726218505859375,-0.0201772078871727,1.7746220827102661,0.4303499758243561
1759582833301276400,8.7362763671875,-0.08713527768850327,1.7102022171020508,0.2686719000339508
1759582833311335700,8.746335693359375,-0.08359646797180176,1.5646109580993652,0.11886189132928848
1759582833321394400,8.75639453125,-0.05925462022423744,1.3703947067260742,0.001539287157356739
1759582833331453400,8.766453369140624,-0.029900958761572838,1.120477557182312,-0.07990335673093796
1759582833341512400,8.776512451171875,-0.0424463115632534,0.8282908201217651,-0.10042513906955719
1759582833351570700,8.78657080078125,-0.104950912296772,0.5347011685371399,-0.07494848966598511
1759582833361629400,8.79662939453125,-0.18184223771095276,0.2221084088087082,-0.00486074760556221
1759582833371688700,8.806688720703125,-0.25192755460739136,-0.0903656929731369,0.09317103028297424
1759582833381747500,8.81674755859375,-0.26385316252708435,-0.3419225513935089,0.16857551038265228
1759582833391806700,8.826806640625,-0.24203413724899292,-0.5349112749099731,0.206290140748024
1759582833401864400,8.836864501953125,-0.21677671372890472,-0.654464840888977,0.22450830042362213
1759582833411923500,8.84692333984375,-0.19814583659172058,-0.728093683719635,0.25158050656318665
1759582833421982500,8.856982421875,-0.17429856956005096,-0.728390634059906,0.2825043499469757
1759582833432041500,8.86704150390625,-0.1445021629333496,-0.6738292574882507,0.3213479518890381
1759582833442100500,8.8771005859375,-0.12005114555358887,-0.6124173402786255,0.3482660949230194
1759582833452158500,8.887158447265625,-0.13842004537582397,-0.5685268044471741,0.3089964687824249
1759582833462217500,8.897217529296874,-0.15600119531154633,-0.5947274565696716,0.21095925569534302
1759582833472276500,8.9072763671875,-0.19208356738090515,-0.6389692425727844,0.10214436054229736
1759582833482335500,8.91733544921875,-0.2269594818353653,-0.6536516547203064,0.0035066823475062847
1759582833492393500,8.9273935546875,-0.2508142292499542,-0.5920926928520203,-0.07984786480665207
1759582833502452700,8.93745263671875,-0.2708962857723236,-0.44989416003227234,-0.13372176885604858
1759582833512511500,8.947511474609374,-0.2970331013202667,-0.2721915543079376,-0.1364525705575943
1759582833522570500,8.957570556640626,-0.33429792523384094,-0.0826229676604271,-0.1083989068865776
1759582833532629500,8.96762939453125,-0.3654574155807495,0.11914592981338501,-0.0882614403963089
1759582833542687500,8.9776875,-0.33777227997779846,0.3565872311592102,-0.1081581860780716
1759582833552746500,8.98774658203125,-0.26076218485832214,0.5128884315490723,-0.12505434453487396
1759582833562805500,8.997805419921875,-0.23011887073516846,0.6036678552627563,-0.11025618016719818
1759582833572864500,9.007864501953126,-0.21650855243206024,0.6842758059501648,-0.05475500226020813
1759582833582923500,9.017923583984375,-0.17551478743553162,0.7563793063163757,0.0141388438642025
1759582833592981500,9.0279814453125,-0.13787712156772614,0.7622550129890442,0.10378723591566086
1759582833603040500,9.03804052734375,-0.11922169476747513,0.7097875475883484,0.19133305549621582
1759582833613099800,9.048099853515625,-0.10463183373212814,0.5972588658332825,0.23749203979969025
1759582833623158800,9.05815869140625,-0.06319877505302429,0.44224461913108826,0.24101532995700836
1759582833633217800,9.0682177734375,-0.007383716758340597,0.28896212577819824,0.2130015343427658
1759582833643275800,9.07827587890625,0.047235481441020966,0.1434711217880249,0.17062264680862427
1759582833653334500,9.08833447265625,0.05995846912264824,0.04637705907225609,0.14075715839862823
1759582833663393800,9.098393798828125,0.029327427968382835,-0.05323754623532295,0.16181904077529907
1759582833673452500,9.10845263671875,-0.020459305495023727,-0.11790229380130768,0.20818601548671722
1759582833683511800,9.11851171875,-0.05095578357577324,-0.09933541715145111,0.23934225738048553
1759582833693569500,9.128569580078125,-0.02026737853884697,-0.07713557034730911,0.2487860918045044
1759582833703628800,9.13862890625,0.029864370822906494,-0.0959763154387474,0.2568072974681854
1759582833713687600,9.1486875,0.07181847095489502,-0.1400681585073471,0.2689017951488495
1759582833723746800,9.158746826171875,0.07663817703723907,-0.1545698344707489,0.28918084502220154
1759582833733805600,9.1688056640625,0.0556788332760334,-0.12590692937374115,0.31933289766311646
1759582833743863800,9.17886376953125,0.038968294858932495,-0.04829256981611252,0.3453027307987213
1759582833753922800,9.1889228515625,0.05067253112792969,0.09716638177633286,0.36155933141708374
1759582833763981800,9.19898193359375,0.06893782317638397,0.23852910101413727,0.39564248919487
1759582833774040600,9.20904052734375,0.10612017661333084,0.35112252831459045,0.438509464263916
1759582833784099800,9.219099853515624,0.13284526765346527,0.3845449388027191,0.5139999389648438
1759582833794157800,9.22915771484375,0.1452140361070633,0.3679879903793335,0.6160303950309753
1759582833804216600,9.239216552734375,0.14970386028289795,0.3661099374294281,0.7231874465942383
1759582833814275800,9.24927587890625,0.16767722368240356,0.43488433957099915,0.8026817440986633
1759582833824334600,9.25933447265625,0.2191537320613861,0.585204541683197,0.8332745432853699
1759582833834393900,9.269393798828125,0.27409929037094116,0.7452108263969421,0.8052316904067993
1759582833844451600,9.27945166015625,0.2853093445301056,0.7555521726608276,0.7054081559181213
1759582833854510800,9.2895107421875,0.2689119875431061,0.597648561000824,0.5462384819984436
1759582833864569600,9.299569580078124,0.21160084009170532,0.3397179841995239,0.3669181168079376
1759582833874628900,9.30962890625,0.11225719749927521,0.09100085496902466,0.21971164643764496
1759582833884687600,9.3196875,0.004966921638697386,-0.04512207582592964,0.12019770592451096
1759582833894745900,9.329745849609376,-0.07580622285604477,0.022052699699997902,0.047821782529354095
1759582833904804600,9.3398046875,-0.10880196839570999,0.21756689250469208,-0.005449722055345774
1759582833914863900,9.34986376953125,-0.1172710731625557,0.40325185656547546,-0.017181910574436188
1759582833924922600,9.359922607421876,-0.11859706044197083,0.49564439058303833,0.02745320275425911
1759582833934980600,9.369980712890625,-0.11089679598808289,0.4638773798942566,0.10893048346042633
1759582833945040000,9.380039794921874,-0.08359029144048691,0.3725344240665436,0.20767037570476532
1759582833955098600,9.3900986328125,-0.0752764344215393,0.3208658993244171,0.2721039652824402
1759582833965157600,9.40015771484375,-0.04091523587703705,0.30032262206077576,0.2905662953853607
1759582833975216600,9.410216552734376,0.02037927880883217,0.2529743015766144,0.27624088525772095
1759582833985275000,9.42027490234375,0.04393409192562103,0.18651628494262695,0.23142260313034058
1759582833995333600,9.430333740234374,0.03146357461810112,0.09164275974035263,0.16113512217998505
1759582834005393000,9.440392822265625,-0.00224533979780972,-0.004629813134670258,0.1009335145354271
1759582834015451600,9.45045166015625,-0.0338798351585865,-0.061771176755428314,0.06070537865161896
1759582834025511000,9.460510986328124,-0.07043012231588364,-0.07557966560125351,0.04376767575740814
1759582834035568600,9.470568603515625,-0.09312025457620621,-0.04008692130446434,0.027597758919000626
1759582834045628000,9.4806279296875,-0.0814448744058609,0.020784568041563034,0.008057685568928719
1759582834055686700,9.490686767578126,-0.06198861077427864,0.06796565651893616,-0.0024892305955290794
1759582834065746000,9.500745849609375,-0.05772620067000389,0.068653903901577,0.006899719126522541
1759582834075804700,9.5108046875,-0.06632554531097412,0.05266402289271355,0.02509629912674427
1759582834085862700,9.520862548828125,-0.0732743963599205,0.058529675006866455,0.0329209566116333
1759582834095921700,9.530921630859375,-0.07899565994739532,0.08474450558423996,0.029980827122926712
1759582834105980700,9.540980712890626,-0.08732498437166214,0.1010868027806282,0.027192138135433197
1759582834116039700,9.551039794921875,-0.0975307822227478,0.08453873544931412,0.029624544084072113
1759582834126098700,9.5610986328125,-0.09836141765117645,0.043435513973236084,0.03951925411820412
1759582834136156700,9.57115673828125,-0.09597205370664597,-0.009250590577721596,0.049969837069511414
1759582834146215700,9.581215576171875,-0.0895538330078125,-0.05212881416082382,0.06388245522975922
1759582834156274700,9.591274658203124,-0.07991836965084076,-0.07174624502658844,0.08537513017654419
1759582834166333700,9.601333740234375,-0.06351223587989807,-0.07003995776176453,0.11777515709400177
1759582834176392700,9.611392822265625,-0.04286114126443863,-0.06574920564889908,0.15703687071800232
1759582834186450700,9.62145068359375,-0.02817487344145775,-0.05285976827144623,0.19548732042312622
1759582834196510000,9.631510009765625,-0.012698760256171227,-0.03664528205990791,0.2153545618057251
1759582834206568700,9.641568603515625,0.0037260190583765507,-0.03175758197903633,0.22250914573669434
1759582834216627700,9.651627685546876,0.00897165946662426,-0.06172490864992142,0.2282169759273529
1759582834226686700,9.661686767578125,0.007079216185957193,-0.08770963549613953,0.2265666127204895
1759582834236744700,9.67174462890625,0.0004641907289624214,-0.09189745038747787,0.2172199785709381
1759582834246803700,9.6818037109375,-0.0035233532544225454,-0.0716424211859703,0.20178088545799255
1759582834256862700,9.69186279296875,-0.00197232817299664,-0.04797331243753433,0.17712214589118958
1759582834266921700,9.701921630859376,-0.00726871844381094,-0.036591894924640656,0.15062075853347778
1759582834276980700,9.711980712890625,-0.013064822182059288,-0.03059258870780468,0.11781994998455048
1759582834287038700,9.722038818359374,-0.012713514268398285,-0.026001296937465668,0.0857321172952652
1759582834297097700,9.73209765625,-0.000697331503033638,-0.023990344256162643,0.06427343189716339
1759582834307156700,9.74215673828125,0.020794950425624847,-0.034928496927022934,0.06185700371861458
1759582834317215700,9.7522158203125,0.053026922047138214,-0.0482991598546505,0.07635871320962906
1759582834327273700,9.762273681640625,0.0715394914150238,-0.050060972571372986,0.09539639204740524
1759582834337332700,9.772332763671875,0.07642468810081482,-0.025237541645765305,0.10714390873908997
1759582834347391700,9.782391845703126,0.06802215427160263,0.010368921793997288,0.10649862885475159
1759582834357450800,9.79245068359375,0.0539497435092926,0.03967408090829849,0.09608806669712067
1759582834367509800,9.802509765625,0.040792178362607956,0.08392027020454407,0.09630746394395828
1759582834377567700,9.812567626953125,0.03746695816516876,0.1403406858444214,0.10669512301683426
1759582834387626800,9.822626708984375,0.04420823976397514,0.1784314066171646,0.12749704718589783
1759582834397685800,9.832685791015624,0.05594315752387047,0.200623020529747,0.14797131717205048
1759582834407744800,9.842744873046875,0.0774037092924118,0.22385483980178833,0.19541552662849426
1759582834417803800,9.8528037109375,0.1004570871591568,0.2383941113948822,0.2566751539707184
1759582834427861800,9.86286181640625,0.1190313771367073,0.24605076014995575,0.3058558404445648
1759582834437920800,9.872920654296875,0.12392786890268326,0.20354297757148743,0.29941630363464355
1759582834447979800,9.882979736328124,0.10319235920906067,0.05202469229698181,0.1985105574131012
1759582834458038800,9.893038818359376,0.05386369675397873,-0.11233468353748322,0.024479102343320847
1759582834468097800,9.903097900390625,-0.022119445726275444,-0.21387144923210144,-0.1305346041917801
1759582834478155800,9.91315576171875,-0.09907441586256027,-0.260336697101593,-0.19652533531188965
1759582834488214800,9.92321484375,-0.1339832991361618,-0.22149871289730072,-0.15129344165325165
1759582834498273800,9.933273681640625,-0.11159103363752365,-0.11219417303800583,-0.04759414866566658
