time,seconds_elapsed,z,y,x
1759485800423832600,0.04083251953125,1.9986900380663573,-8.765517730268835,-3.9167973038986323
1759485800433887700,0.0508876953125,1.9990651549890637,-8.769600615668296,-3.90745781314522
1759485800443942700,0.060942626953125,1.9984185276485977,-8.772891473907231,-3.900397080978751
1759485800453997600,0.07099755859375,1.996763015526533,-8.775507793885469,-3.895355871941149
1759485800464052700,0.081052734375,1.994609052363038,-8.777579339462518,-3.8917891193702814
1759485800474108700,0.091108642578125,1.9924805159017442,-8.779393695408105,-3.8887852613791822
1759485800484163800,0.101163818359375,1.990711168141663,-8.781222664400934,-3.885562499940395
1759485800494218500,0.111218505859375,1.98974188471809,-8.783480087938905,-3.880952375796437
1759485800504273700,0.121273681640625,1.9895425627537071,-8.786394514080882,-3.874454245948791
1759485800514328800,0.131328857421875,1.9903264066077768,-8.78952813593149,-3.8669364176645873
1759485800524384800,0.141384765625,1.99171449996531,-8.792530824878812,-3.85938702519834
1759485800534439700,0.151439697265625,1.993988728507608,-8.79510564380288,-3.8523403215572234
1759485800544494600,0.16149462890625,1.9973066208839416,-8.797428533792495,-3.8453088154852386
1759485800554549800,0.1715498046875,2.001140499958396,-8.800054206120967,-3.837298235248029
1759485800564604700,0.181604736328125,2.0046254194647073,-8.803363769060374,-3.8278754501253363
1759485800574660600,0.19166064453125,2.006754540447891,-8.807425027149915,-3.81740607855916
1759485800584715500,0.201715576171875,2.0067482568375765,-8.811652289456129,-3.8076413481310007
1759485800594770700,0.211770751953125,2.0045732508860525,-8.8148391027987,-3.801408298960328
1759485800604825900,0.221825927734375,2.0015569718047974,-8.816507328271864,-3.799125448720157
1759485800614880500,0.231880615234375,1.999611829086393,-8.818001950743794,-3.7966809781774877
1759485800624936700,0.241936767578125,2.0006798967093227,-8.819831504258513,-3.791864810067415
1759485800634991600,0.25199169921875,2.005747263101488,-8.82216783825159,-3.783744339714944
1759485800645046800,0.262046875,2.0136293946534396,-8.82561593287885,-3.771498898386955
1759485800655101400,0.272101318359375,2.0214507359288634,-8.83024242363572,-3.756452720424533
1759485800665156600,0.282156494140625,2.0268048103079197,-8.835658603465557,-3.74080068552345
1759485800675212500,0.292212646484375,2.0289403610318897,-8.840549298116564,-3.7280642458081243
1759485800685267700,0.302267822265625,2.028632317996025,-8.844016097444296,-3.720003688949346
1759485800695322600,0.312322509765625,2.0281028872944415,-8.845749789369107,-3.7161668872654436
1759485800705377500,0.32237744140625,2.029292827731371,-8.845963139858842,-3.71500807261914
1759485800715432700,0.3324326171875,2.0332396656610072,-8.845355821615456,-3.714298755306005
1759485800725488600,0.342488525390625,2.040743173158914,-8.844702910664678,-3.7117335809931156
1759485800735543800,0.352543701171875,2.0511789347164333,-8.844543920710683,-3.706356271868944
1759485800745598500,0.362598388671875,2.0632775149196387,-8.844300759604574,-3.7002176229834554
1759485800755653600,0.372653564453125,2.0749854883700607,-8.844003237962722,-3.6943764957398173
1759485800765708800,0.382708740234375,2.083969735945016,-8.843438589817286,-3.690669457915425
1759485800775764700,0.3927646484375,2.0883346531562506,-8.842887385675311,-3.6895232104897495
1759485800785819600,0.402819580078125,2.087603124011308,-8.84281081330776,-3.6901205918610094
1759485800795874600,0.41287451171875,2.0842541058443484,-8.841318528923392,-3.695585287007689
1759485800805929700,0.4229296875,2.0810151239231227,-8.839291991531848,-3.702252928203344
1759485800815984600,0.432984619140625,2.0790974537335334,-8.838086707395314,-3.7062063420042395
1759485800826039600,0.44303955078125,2.078594034256041,-8.837595124486088,-3.7076623860314486
1759485800836095500,0.453095458984375,2.078011119801551,-8.8366195574522,-3.7103143618449566
1759485800846150700,0.463150634765625,2.075373026382923,-8.835830452901124,-3.71366484131664
1759485800856205800,0.473205810546875,2.0700706821911035,-8.836106931754946,-3.715968442083895
1759485800866260700,0.4832607421875,2.063065625734627,-8.837520890206099,-3.71649918795973
1759485800876315600,0.493315673828125,2.0563238963894546,-8.839620492833852,-3.7152453885063528
1759485800886371600,0.50337158203125,2.0517204942472276,-8.841082382079959,-3.714310445743799
1759485800896426800,0.5134267578125,2.0495172851145265,-8.841289302828907,-3.71503642193079
1759485800906481700,0.523481689453125,2.048209417386353,-8.840169358888268,-3.7184181733235713
1759485800916536600,0.53353662109375,2.0460279816940425,-8.83807793956697,-3.724586925086379
1759485800926591700,0.543591796875,2.0425629359319806,-8.835748035314678,-3.732009768563509
1759485800936647700,0.553647705078125,2.0380733694277704,-8.83410552880466,-3.738346278108656
1759485800946702600,0.56370263671875,2.032538531654328,-8.833413454887271,-3.7429920580878853
1759485800956757500,0.573757568359375,2.026583861033618,-8.833296550509333,-3.746491298380494
1759485800966812700,0.583812744140625,2.020761292359978,-8.833500548648834,-3.749159640806913
1759485800976867600,0.59386767578125,2.015274823772907,-8.833746632364392,-3.751526954460144
1759485800986923800,0.603923828125,2.0104846668869256,-8.833457878550886,-3.7547768961668013
1759485800996978700,0.613978759765625,2.006178347995132,-8.832218107622861,-3.759995215336978
1759485801007033600,0.62403369140625,2.002151138305664,-8.830136040651798,-3.7670258446261284
1759485801017088800,0.6340888671875,1.9982171598576008,-8.827824256578086,-3.77452058429569
1759485801027143700,0.644143798828125,1.9937286162666976,-8.825834544065595,-3.781543907061219
1759485801037199600,0.65419970703125,1.9897313633240759,-8.823720328390598,-3.7885759976550935
1759485801047254500,0.664254638671875,1.986499980187416,-8.82183349173069,-3.7946597014829515
1759485801057309700,0.674309814453125,1.983789113793522,-8.820186893567442,-3.79990286283344
1759485801067364600,0.684364501953125,1.9809290481872854,-8.818554908451437,-3.805179341931641
1759485801077419800,0.694419677734375,1.9769804566919802,-8.816333140748739,-3.8123733450889583
1759485801087475500,0.704475341796875,1.9723216711007057,-8.813381305205821,-3.821600315378606
1759485801097530600,0.714530517578125,1.9672357461385428,-8.809908660659193,-3.832217278721928
1759485801107585800,0.724585693359375,1.9614679763920604,-8.806156614649295,-3.843778829438984
1759485801117640700,0.734640625,1.9547586880117653,-8.802280649998783,-3.8560552504271266
1759485801127695600,0.744695556640625,1.9475968335583804,-8.798280766707657,-3.8687840913578864
1759485801137751600,0.75475146484375,1.9405499837867914,-8.794105526849627,-3.8817981789708136
1759485801147806700,0.764806640625,1.9344426068224012,-8.789576066726445,-3.895081731174886
1759485801157861400,0.774861328125,1.929025988601148,-8.78484728463888,-3.908411168347299
1759485801167916500,0.78491650390625,1.923538350970298,-8.780078170540929,-3.9218136707559226
1759485801177971700,0.7949716796875,1.9169993045903742,-8.775116748741269,-3.9360903256505724
1759485801188026600,0.805026611328125,1.9087528697706757,-8.769936131232976,-3.951615811562538
1759485801198082600,0.81508251953125,1.898354079222679,-8.764435780251025,-3.9687890646815296
1759485801208137500,0.825137451171875,1.8856578253872691,-8.758389485824107,-3.988144045753777
1759485801218192600,0.835192626953125,1.8712492146760225,-8.751151935786009,-4.010756859578192
1759485801228247600,0.84524755859375,1.8554630320012568,-8.742267203062772,-4.0373777400001885
1759485801238302500,0.855302490234375,1.8386511595405637,-8.731485112285613,-4.068283458134531
1759485801248358400,0.8653583984375,1.8204571850717066,-8.718640828281641,-4.103854537731409
1759485801258413600,0.87541357421875,1.8005208969801663,-8.703538536217808,-4.144505697071552
1759485801268468700,0.88546875,1.7784513962522148,-8.68553818462491,-4.191527852748334
1759485801278523600,0.895523681640625,1.7540547677509486,-8.663641994637251,-4.246761956453323
1759485801288578600,0.90557861328125,1.7271765515670179,-8.63853911756277,-4.308467301999032
1759485801298634500,0.915634521484375,1.6981985866248606,-8.611529530084132,-4.373564628070593
1759485801308689700,0.925689697265625,1.6667952942319213,-8.584243463751672,-4.43879931678623
1759485801318744600,0.93574462890625,1.6329774880431591,-8.557643041595815,-4.502276640440523
1759485801328799500,0.945799560546875,1.5968720093086362,-8.532500417032837,-4.562543769876658
1759485801338854700,0.955854736328125,1.5596790275983512,-8.509435767787695,-4.618150214025378
1759485801348910600,0.96591064453125,1.5240414586365223,-8.487951081210374,-4.66930347815752
1759485801358965800,0.9759658203125,1.4928909719608723,-8.46759335283637,-4.716093578644097
1759485801369020400,0.9860205078125,1.467244197268039,-8.44885065844357,-4.757573005501926
1759485801379075600,0.99607568359375,1.4461559626623988,-8.431958560353516,-4.793858370848
1759485801389130500,1.006130615234375,1.4274996313787995,-8.417637189534306,-4.824522973702848
1759485801399186700,1.016186767578125,1.4102188262321054,-8.406381051504612,-4.849167293354869
1759485801409241600,1.02624169921875,1.39499203100577,-8.397908406713604,-4.868215108174085
1759485801419296500,1.036296630859375,1.3824780018694698,-8.391968495270609,-4.882008655726909
1759485801429351700,1.0463515625,1.371677498652786,-8.388421031922102,-4.891143563818932
1759485801439406600,1.056406494140625,1.3605292049117386,-8.386471066898107,-4.897597270002961
1759485801449462500,1.066462646484375,1.3477825360633433,-8.385077566713095,-4.903503863698244
1759485801459517400,1.076517333984375,1.332964467768371,-8.383639642864464,-4.910009007808566
1759485801469572600,1.086572509765625,1.3160865443341434,-8.381838146400451,-4.917631757771969
1759485801479627500,1.09662744140625,1.2978849710807203,-8.37939718298912,-4.9266199508696795
1759485801489682700,1.1066826171875,1.279097560763359,-8.376224398171901,-4.936916888478398
1759485801499738400,1.11673828125,1.26034288367182,-8.372326221689582,-4.948340784290433
1759485801509793500,1.12679345703125,1.2412531294070184,-8.368011281099916,-4.9604485707134005
1759485801519848700,1.1368486328125,1.2205844353877007,-8.363826104369759,-4.972624161675572
1759485801529903600,1.146903564453125,1.1957643207773565,-8.35988993396461,-4.9852562642335885
1759485801539958500,1.15695849609375,1.1661924085300415,-8.355980651566385,-4.9987990518957375
1759485801550014500,1.167014404296875,1.1336968639209866,-8.351831130671501,-5.013185889166594
1759485801560069600,1.177069580078125,1.1012299608845264,-8.3480621335268,-5.0266807460337875
1759485801570124500,1.18712451171875,1.0703911705065519,-8.345145369297265,-5.038174784472584
1759485801580179700,1.1971796875,1.0416367121219634,-8.341963232129812,-5.049456641465425
1759485801590234600,1.207234619140625,1.0144189617853612,-8.338540856465697,-5.060639714258909
1759485801600289500,1.21728955078125,0.9878061185393482,-8.335164658030868,-5.07145453826189
1759485801610345700,1.227345703125,0.9598003596302122,-8.331302721905708,-5.083164265277982
1759485801620400600,1.237400634765625,0.927140125978738,-8.32794055199623,-5.094721432080864
1759485801630455600,1.24745556640625,0.890415711628273,-8.325265195307136,-5.105636209326982
1759485801640510500,1.257510498046875,0.85118413676247,-8.32340875378549,-5.115344533392786
1759485801650565600,1.267565673828125,0.812199376264587,-8.320123740765451,-5.127011590310931
1759485801660621600,1.27762158203125,0.7758220217861235,-8.315199728366732,-5.140618675380945
1759485801670676500,1.287676513671875,0.7396904587622731,-8.307692713737488,-5.158050287175178
1759485801680731600,1.297731689453125,0.7034441833175719,-8.298747190737723,-5.177482717397809
1759485801690786600,1.30778662109375,0.6682214787669479,-8.290812306085229,-5.194834249693155
1759485801700841700,1.317841796875,0.6359778630923479,-8.283786937493085,-5.210065136572719
1759485801710897700,1.327897705078125,0.6086824078770354,-8.275687802189587,-5.226172221764922
1759485801720952600,1.33795263671875,0.5867142851643264,-8.26639682675302,-5.243358918887377
1759485801731007500,1.348007568359375,0.5696633067181334,-8.25733206128776,-5.259499321827292
1759485801741062700,1.358062744140625,0.5572328642120584,-8.248483568921685,-5.274692214784026
1759485801751117600,1.36811767578125,0.549408161935769,-8.24008398936689,-5.288623709502816
1759485801761173500,1.378173583984375,0.5464061305755749,-8.232163717761635,-5.301255227538943
1759485801771228700,1.388228759765625,0.5484853114698082,-8.224013144531845,-5.313675733172893
1759485801781283600,1.39828369140625,0.5558455380395054,-8.214908631578087,-5.32697886686027
1759485801791338800,1.4083388671875,0.5660402208501473,-8.204802248105405,-5.341461565721034
1759485801801393400,1.418393310546875,0.5751840429009869,-8.193277814528345,-5.358146743062139
1759485801811449600,1.42844970703125,0.578068256567791,-8.180394952079654,-5.377485649782419
1759485801821504500,1.43850439453125,0.5691416574642062,-8.16555627938807,-5.400940759649872
1759485801831559700,1.4485595703125,0.5500480307418852,-8.148336849039792,-5.428854602491855
1759485801841614600,1.458614501953125,0.5277722668521105,-8.128625017353892,-5.460521660387515
1759485801851669500,1.46866943359375,0.5067500101547688,-8.106030323708056,-5.495988110566139
1759485801861725700,1.4787255859375,0.490225905126892,-8.08023245010674,-5.535334032526612
1759485801871780600,1.488780517578125,0.48009796740952876,-8.051710704499483,-5.577621853157877
1759485801881835500,1.49883544921875,0.47407286190111186,-8.020789496535063,-5.622505535501241
1759485801891890400,1.508890380859375,0.4675328656731173,-7.987979113823175,-5.669565392839909
1759485801901945600,1.518945556640625,0.45689643044434486,-7.954072168046236,-5.717900092419981
1759485801912001500,1.52900146484375,0.441767615699768,-7.919554981416463,-5.766788918751478
1759485801922056700,1.539056640625,0.4238181175112724,-7.88416335003972,-5.816420087882876
1759485801932111600,1.549111572265625,0.4070665604030713,-7.8463354314267635,-5.868534890523552
1759485801942166500,1.55916650390625,0.3926468437759206,-7.808030542951822,-5.920379059529304
1759485801952221700,1.5692216796875,0.37942324159815904,-7.770611789661645,-5.970260404029489
1759485801962276400,1.5792763671875,0.3690461148926988,-7.732478166100383,-6.020213060200214
1759485801972332500,1.58933251953125,0.35917269992567596,-7.695476761439442,-6.068033380517363
1759485801982387500,1.599387451171875,0.34751715078223494,-7.661879027742147,-6.111075234386324
1759485801992442600,1.609442626953125,0.3369266005218029,-7.635823379987478,-6.144188983958959
1759485802002497800,1.619497802734375,0.3319994097853079,-7.616933970600366,-6.167858613359928
1759485802012552400,1.629552490234375,0.32947405602615326,-7.605244117328525,-6.182402102497219
1759485802022608600,1.639608642578125,0.3246395485417917,-7.601140773662924,-6.187701377949118
1759485802032663600,1.64966357421875,0.31288156193718314,-7.602706707805394,-6.186383281087875
1759485802042718700,1.65971875,0.29238080836329605,-7.606814727646112,-6.182336636045575
1759485802052773400,1.6697734375,0.2741187370942905,-7.612453610315918,-6.17622896682024
1759485802062828500,1.67982861328125,0.2627890589043498,-7.615472665876149,-6.173000067901611
1759485802072884500,1.689884521484375,0.2612008215985261,-7.611506684854626,-6.1779562290042636
1759485802082939600,1.699939697265625,0.26511567522101104,-7.60892660523355,-6.180967685779929
1759485802092994800,1.709994873046875,0.2682810073841363,-7.608904977923631,-6.180854873055219
1759485802103049500,1.720049560546875,0.2696497201877646,-7.612762237873673,-6.176043673381209
1759485802113104600,1.730104736328125,0.2647062359035946,-7.621516622215509,-6.165450967696309
1759485802123160600,1.74016064453125,0.25140016134046017,-7.629807480698823,-6.155747319805622
1759485802133215700,1.7502158203125,0.23573944994257762,-7.635640424636006,-6.149131701058149
1759485802143270400,1.7602705078125,0.22104535508714615,-7.643020013493299,-6.1405035734444855
1759485802153325600,1.77032568359375,0.20907171643786132,-7.65424458734095,-6.126926883512735
1759485802163380700,1.780380615234375,0.2023257310426794,-7.667488684317469,-6.110572545561194
1759485802173436700,1.790436767578125,0.20044181699221952,-7.679806314098834,-6.095145843848586
1759485802183491600,1.80049169921875,0.20027283536717294,-7.690605940532684,-6.081517715990543
1759485802193546500,1.81054638671875,0.19999758035605772,-7.700732197749614,-6.068699150949716
1759485802203601700,1.8206015625,0.20282582605192437,-7.709899254545569,-6.056956106185913
1759485802213656300,1.83065625,0.20916856440845877,-7.717049710822105,-6.047625967782736
1759485802223712500,1.84071240234375,0.21921355481641366,-7.721016860887408,-6.042205111777782
1759485802233767400,1.850767333984375,0.23194263320919126,-7.722031006366014,-6.040433425930142
1759485802243822600,1.860822509765625,0.24412624308103695,-7.721744590640068,-6.040320028683543
1759485802253877800,1.870877685546875,0.25488288888968524,-7.72161073512733,-6.04004647243917
1759485802263932400,1.880932373046875,0.2619111983575858,-7.722386980196833,-6.038752925497293
1759485802273988600,1.890988525390625,0.2641967337451875,-7.7272613082349295,-6.032415539169311
1759485802284043500,1.90104345703125,0.26343775033773853,-7.737111671119928,-6.019807986530661
1759485802294098700,1.9110986328125,0.2619648465072736,-7.749206598061322,-6.004294775578379
1759485802304153300,1.9211533203125,0.25942403945066034,-7.762907206633686,-5.986681961998343
1759485802314208500,1.93120849609375,0.25280546156112105,-7.7790464405298225,-5.965981119275093
1759485802324263700,1.941263671875,0.24141625346997753,-7.7982216811209915,-5.94136865606606
1759485802334319600,1.951319580078125,0.22456375673795118,-7.820233606442809,-5.9130304503321645
1759485802344374500,1.96137451171875,0.20161919020852073,-7.845696549001335,-5.880033020615578
1759485802354429400,1.971429443359375,0.17464578828811644,-7.8745164007723325,-5.8422483566224575
1759485802364484600,1.981484619140625,0.1453221334471367,-7.905634592613578,-5.8008811579674475
1759485802374539500,1.99153955078125,0.11485106213670224,-7.9383964600086205,-5.756653893706202
1759485802384595700,2.001595703125,0.08446328519554808,-7.972893188372254,-5.709309958729148
1759485802394650400,2.011650390625,0.05286261163356248,-8.009915635821223,-5.657633547505736
1759485802404705500,2.02170556640625,0.017588093555666272,-8.04984958680272,-5.600890500542521
1759485802414760700,2.0317607421875,-0.021904663271771277,-8.090083982035518,-5.542601393181085
1759485802424815400,2.0418154296875,-0.057730683460808355,-8.12359228388369,-5.4931146009564396
1759485802434871600,2.05187158203125,-0.08951859582373872,-8.151737012872099,-5.450830871978402
1759485802444926500,2.061926513671875,-0.12375857294732703,-8.186527171224355,-5.397765052223205
1759485802454981600,2.071981689453125,-0.16159776187296956,-8.226848075696825,-5.335094953298569
1759485802465036500,2.08203662109375,-0.2005159051417373,-8.2693790574342,-5.2675961190432306
1759485802475091500,2.092091552734375,-0.23437837245613335,-8.312478194448351,-5.197902989614009
1759485802485147400,2.1021474609375,-0.2579491080598906,-8.354964752522111,-5.128195831659436
1759485802495202600,2.11220263671875,-0.26992238138299435,-8.393995617184043,-5.063432559847832
1759485802505257700,2.1222578125,-0.26894683261541646,-8.427697980299591,-5.007192786231637
1759485802515312400,2.1323125,-0.24957026076586916,-8.456344229069352,-4.959674663731455
1759485802525367600,2.142367431640625,-0.20726817414723336,-8.47809487310648,-4.9243596047222615
1759485802535423500,2.152423583984375,-0.14396860907948575,-8.49234317868948,-4.902017716793716
1759485802545478700,2.162478759765625,-0.06475606118610594,-8.500256436032057,-4.88997101290822
1759485802555533600,2.172533447265625,0.028660489640955345,-8.501800158342718,-4.887630587261915
1759485802565588500,2.18258837890625,0.13711955603547393,-8.496101069918275,-4.89569523577392
1759485802575643600,2.1926435546875,0.26247140778992323,-8.481594405660033,-4.9156940677076575
1759485802585698600,2.202698486328125,0.405877715944685,-8.458404668730497,-4.94581038902998
1759485802595754500,2.21275439453125,0.5654402821956203,-8.42686211399734,-4.983838798651099
1759485802605809400,2.222809326171875,0.7366030141409486,-8.386811843159794,-5.028833540153503
1759485802615864600,2.232864501953125,0.9128189743552356,-8.338959958660602,-5.079259659054875
1759485802625919500,2.24291943359375,1.095363114677742,-8.285574405431747,-5.130284912893176
1759485802635974700,2.252974609375,1.2893139804817735,-8.228232808053493,-5.1772822263896465
1759485802646030300,2.2630302734375,1.4965646920375526,-8.167952234613894,-5.216821040573715
1759485802656085500,2.27308544921875,1.71404292922765,-8.105441710165142,-5.2473079487740995
1759485802666140700,2.283140625,1.937608085115999,-8.039542127799987,-5.270847814315557
1759485802676195600,2.293195556640625,2.1622617668934163,-7.967671069809794,-5.292562802517414
1759485802686250500,2.30325048828125,2.380950841178,-7.893392950677871,-5.309971033436059
1759485802696306400,2.313306396484375,2.592897017073631,-7.818508097824454,-5.321484945619106
1759485802706361600,2.323361572265625,2.8026223020493983,-7.745144755449891,-5.322442976996302
1759485802716416500,2.33341650390625,3.0079437991082667,-7.661433622062206,-5.3315182638555765
1759485802726471400,2.343471435546875,3.2107635424792766,-7.560285031661391,-5.357563390216231
1759485802736526600,2.353526611328125,3.4039012652695178,-7.445638077262044,-5.398734189516306
1759485802746582500,2.36358251953125,3.587242108927667,-7.313723761719465,-5.459994421643018
1759485802756637700,2.3736376953125,3.7647038314193484,-7.163288285580277,-5.539377754959464
1759485802766692600,2.383692626953125,3.934344358766079,-6.995669619449973,-5.6348851246029135
1759485802776747500,2.39374755859375,4.098424913898111,-6.815838537478447,-5.737390390309691
1759485802786802400,2.403802490234375,4.271257515284419,-6.6299126457631585,-5.828464161419868
1759485802796858600,2.413858642578125,4.4695960215881465,-6.440768961045146,-5.891484973478317
1759485802806913500,2.42391357421875,4.6859866096720095,-6.250558523878455,-5.928105854389071
1759485802816968400,2.433968505859375,4.914702134060859,-6.06266863861382,-5.9380251908570525
1759485802827023600,2.444023681640625,5.151003291273117,-5.878558271887898,-5.922846326425671
1759485802837078500,2.45407861328125,5.388591565686464,-5.696887115007638,-5.888883266547322
1759485802847134500,2.464134521484375,5.621256412222981,-5.513548317176103,-5.845737367781997
1759485802857189400,2.474189453125,5.848842932581901,-5.332585600826144,-5.790074517270923
1759485802867244500,2.48424462890625,6.072859193238616,-5.15524867375791,-5.7196314462572335
1759485802877299500,2.494299560546875,6.293874518513679,-4.982257082417607,-5.6333519236862655
1759485802887354600,2.504354736328125,6.514292462417483,-4.815644378459453,-5.526657974117994
1759485802897409500,2.514409423828125,6.732351275974512,-4.654717026661336,-5.401799422305822
1759485802907465500,2.524465576171875,6.939760100701451,-4.503795228309929,-5.265543862688541
1759485802917520600,2.534520751953125,7.133730767184495,-4.3672012305185195,-5.119359029731154
1759485802927575600,2.544575439453125,7.3089564011871815,-4.245257689370215,-4.972658063945174
1759485802937630500,2.55463037109375,7.466889539605378,-4.137833671961724,-4.826414778798818
1759485802947685400,2.564685302734375,7.606431281286477,-4.042260543605685,-4.6875057820633055
1759485802957741600,2.574741455078125,7.723071455329656,-3.9580595808744428,-4.567090473395586
1759485802967796500,2.58479638671875,7.81553229688406,-3.888815364256501,-4.468215965406596
1759485802977851600,2.5948515625,7.881889559888839,-3.834860778968036,-4.39773139333874
1759485802987906600,2.604906494140625,7.9212676305532455,-3.793600840079784,-4.362624424122274
1759485802997961500,2.61496142578125,7.937897862836718,-3.7630715540423987,-4.35883584549427
1759485803008017700,2.625017578125,7.933203567540645,-3.7411300636082885,-4.386183578886092
1759485803018072600,2.635072509765625,7.909141139429807,-3.7252091486379504,-4.442824626779556
1759485803028127500,2.64512744140625,7.870450466507672,-3.7158947923257943,-4.51868563118875
1759485803038182400,2.655182373046875,7.820228345745801,-3.711039753510058,-4.608970005486905
1759485803048237600,2.665237548828125,7.761741669985652,-3.7109301556557415,-4.70688297496736
1759485803058293500,2.67529345703125,7.694964135742187,-3.7184941611692306,-4.809440847644209
1759485803068348700,2.6853486328125,7.619506451436877,-3.7385283566772936,-4.9129333708226675
1759485803078403600,2.695403564453125,7.533352016550302,-3.7711288960307834,-5.01971909032762
1759485803088458500,2.70545849609375,7.4382345230072735,-3.8162303127780555,-5.126347573444247
1759485803098513700,2.715513671875,7.335828041499853,-3.8760470680981873,-5.228028078764677
1759485803108569600,2.725569580078125,7.223852936658263,-3.953363532012701,-5.32515165143311
1759485803118624500,2.73562451171875,7.103291789779067,-4.048627448289096,-5.4150014337062835
1759485803128679400,2.745679443359375,6.991715328866243,-4.147242720820009,-5.48513178550899
1759485803138734600,2.755734619140625,6.948947615763545,-4.2045504159286615,-5.495841980093717
1759485803148789800,2.765789794921875,6.959038801667094,-4.258891370186209,-5.440956543695926
1759485803158843600,2.77584375,6.925283831581473,-4.362326610219478,-5.401937953993678
1759485803168899800,2.78589990234375,6.834789321663975,-4.512975144587457,-5.393431406933069
1759485803178954500,2.79595458984375,6.751450528720021,-4.665439788466692,-5.368609684887528
1759485803189009700,2.806009765625,6.6697887290775775,-4.830428398354352,-5.32459167946279
1759485803199064800,2.81606494140625,6.570718698516488,-5.017670925626159,-5.274374234876037
1759485803209119500,2.826119384765625,6.457450631254911,-5.205861255142092,-5.231705305972695
1759485803219175700,2.83617578125,6.33898674891591,-5.375113075432181,-5.2053620734483
1759485803229230600,2.846230712890625,6.218275964432954,-5.523243781760335,-5.195883466485142
1759485803239285800,2.85628564453125,6.084958211833238,-5.656065859797597,-5.210813909113407
1759485803249340700,2.866340576171875,5.928246724164485,-5.778998996505141,-5.256372129717469
1759485803259395600,2.8763955078125,5.7491047935009,-5.894815579205751,-5.326286208420991
1759485803269451500,2.886451416015625,5.55452856234014,-6.004501111805439,-5.4095805777013295
1759485803279506700,2.896506591796875,5.352019784614443,-6.106963707414269,-5.498296387508511
1759485803289561900,2.906561767578125,5.147916431173682,-6.202183492287993,-5.58589868311584
1759485803299616500,2.916616455078125,4.9472261010468,-6.293080153265595,-5.665020735147595
1759485803309671700,2.926671630859375,4.752196280899644,-6.3824874524682755,-5.731567383244633
1759485803319727600,2.9367275390625,4.563578958143293,-6.471381541451811,-5.7849237103790045
1759485803329782800,2.94678271484375,4.3806250679761165,-6.559194849461317,-5.82730446999073
1759485803339837400,2.95683740234375,4.199514467588067,-6.644498220476508,-5.863882096281647
1759485803349892600,2.966892578125,4.018429586163163,-6.7292538944810625,-5.894042841267585
1759485803359947800,2.97694775390625,3.8357378540635105,-6.815633954817057,-5.916471530696749
1759485803370003700,2.987003662109375,3.6570085958540437,-6.9015890677392475,-5.929986845830083
1759485803380059000,2.997058837890625,3.494092408326268,-6.988112920460105,-5.9268865417271845
1759485803390113500,3.007113525390625,3.3526717210307715,-7.079677105435729,-5.899844221022724
1759485803400168700,3.017168701171875,3.230354962655902,-7.177330839458108,-5.849882797023653
1759485803410223600,3.0272236328125,3.121180594448745,-7.276457568642496,-5.786344098570942
1759485803420278500,3.037278564453125,3.0109038179576397,-7.369045835968851,-5.7273038805812595
1759485803430334500,3.04733447265625,2.8954057996869085,-7.449815655207633,-5.682186974003911
1759485803440389600,3.0573896484375,2.7803616626635193,-7.519428120616078,-5.647847482028603
1759485803450444800,3.06744482421875,2.6676316478013993,-7.579816246083379,-5.621433522355556
1759485803460499700,3.077499755859375,2.563309395800531,-7.6342656291514635,-5.59623069203794
1759485803470554600,3.0875546875,2.4654735832095143,-7.684417022764682,-5.5714966482758514
1759485803480610600,3.097610595703125,2.3684030559025704,-7.731136103841662,-5.548926504549383
1759485803490665700,3.107665771484375,2.268338022954762,-7.773148030140995,-5.532017455324531
1759485803500720600,3.117720703125,2.1571771571055054,-7.80904176582098,-5.525926152712106
1759485803510775600,3.127775634765625,2.027460789998621,-7.836518386289477,-5.536130735862255
1759485803520830700,3.137830810546875,1.8813345553606748,-7.854802815520763,-5.561747992199659
1759485803530886700,3.14788671875,1.7302048133470116,-7.863322222062945,-5.59865470431447
1759485803540941800,3.15794189453125,1.5847971022419631,-7.862023414424061,-5.643349586087465
1759485803550996500,3.16799658203125,1.449667185653746,-7.849684157332778,-5.6966042064130304
1759485803561051600,3.1780517578125,1.3275694768570363,-7.823917847913503,-5.761446388679743
1759485803571106600,3.1881064453125,1.2251163797289133,-7.789860095489025,-5.829884549611807
1759485803581162800,3.198162841796875,1.137181783427298,-7.759624531701207,-5.8877364345997565
1759485803591217700,3.2082177734375,1.0450058962941169,-7.7390557909250255,-5.931725213930011
1759485803601272600,3.2182724609375,0.9329805956352502,-7.725798249945044,-5.9675762795120475
1759485803611327700,3.22832763671875,0.8013352332271635,-7.719714546117186,-5.994517477929592
1759485803621382700,3.238382568359375,0.6717400082819164,-7.724801640123128,-6.003879765036702
1759485803631437600,3.2484375,0.568978027867712,-7.741496754336357,-5.992984861534834
1759485803641493500,3.258493408203125,0.5003297678489238,-7.7623606786668295,-5.97208528136909
1759485803651548700,3.268548583984375,0.4579832393003627,-7.7815131229043,-5.950519346249103
1759485803661603600,3.278603515625,0.4348608319859951,-7.7943644211709495,-5.935415300619602
1759485803671658800,3.28865869140625,0.4299369657177478,-7.801343028011917,-5.9266012950450175
1759485803681713700,3.298713623046875,0.44736368214115496,-7.807136808982491,-5.917672723180055
1759485803691769600,3.30876953125,0.4857806892210617,-7.812691520500183,-5.907304473900795
1759485803701824800,3.31882470703125,0.5352466943860054,-7.816011604833602,-5.898630169057846
1759485803711879700,3.328879638671875,0.5870081900769845,-7.815725189107656,-5.894086095887422
1759485803721934600,3.3389345703125,0.6366582465719431,-7.812599750563502,-5.893077211105823
1759485803731989500,3.348989501953125,0.6787961373385042,-7.806575667968392,-5.8963522872537375
1759485803742045700,3.359045654296875,0.710319183653593,-7.800204963892698,-5.901069963425398
1759485803752100600,3.3691005859375,0.7276710812751204,-7.795664982375502,-5.904954111382365
1759485803762155800,3.37915576171875,0.7253800477284937,-7.798146277797222,-5.901958436697721
1759485803772210700,3.389210693359375,0.698477866147086,-7.8104972253263,-5.8888569630622865
1759485803782265600,3.399265625,0.6445143668998032,-7.832769262889027,-5.865383148494362
1759485803792321800,3.40932177734375,0.5646681653119623,-7.8635636296033855,-5.832316745194793
1759485803802376700,3.419376708984375,0.46210492234025147,-7.901950935664773,-5.789303532898426
1759485803812431600,3.429431640625,0.3424841250510886,-7.946378106412291,-5.736562707313895
1759485803822486500,3.439486572265625,0.21463842892060056,-7.991181709256768,-5.680259805333614
1759485803832541700,3.449541748046875,0.08423502026447094,-8.029845494171976,-5.628932353678345
1759485803842597600,3.45959765625,-0.038993939318181944,-8.062863966676593,-5.582030901771783
1759485803852652500,3.469652587890625,-0.14953745872038415,-8.095865488046407,-5.5321770298004145
1759485803862707700,3.479707763671875,-0.25713821180211377,-8.13248812252283,-5.474201226171851
1759485803872762600,3.4897626953125,-0.3664476593647152,-8.173300025382638,-5.406781302371621
1759485803882817800,3.49981787109375,-0.4659044972863048,-8.216250693836807,-5.333529603677988
1759485803892872400,3.50987255859375,-0.537376582554169,-8.257993740066885,-5.261858452174067
1759485803902928600,3.5199287109375,-0.570055484373495,-8.294801083460449,-5.2001645048052065
1759485803912983600,3.529983642578125,-0.5592305773679167,-8.324016656550764,-5.154455477553606
1759485803923038700,3.540038818359375,-0.5038409177750349,-8.346171789735555,-5.12425206246972
1759485803933093600,3.55009375,-0.40980577610861507,-8.361579786747694,-5.107487974673509
1759485803943148500,3.5601484375,-0.28377706627221777,-8.370047170841694,-5.102172332608699
1759485803953204700,3.570204833984375,-0.13124517497620544,-8.37253606504798,-5.104293562546372
1759485803963259600,3.580259765625,0.042757324139424596,-8.370237140455842,-5.109571210688352
1759485803973314800,3.590314697265625,0.23232458173148332,-8.362621404755116,-5.116929756757616
1759485803983369500,3.600369384765625,0.4341616342080757,-8.34770966682732,-5.1281204283356665
1759485803993424600,3.610424560546875,0.6457808066390455,-8.32264419915378,-5.146545142820477
1759485804003480600,3.62048046875,0.8646264597248285,-8.28588420203328,-5.173678648939728
1759485804013535700,3.63053564453125,1.08930571433492,-8.23661251386404,-5.209798594591021
1759485804023590700,3.640590576171875,1.3140068154506384,-8.1733134693861,-5.257442389297485
1759485804033645600,3.6506455078125,1.5287341464973985,-8.096896000137924,-5.317295092713833
1759485804043700700,3.66070068359375,1.7260555847130714,-8.01031135714054,-5.387581511861086
1759485804053756700,3.670756591796875,1.9014254494920373,-7.917990216317772,-5.4644671831429
1759485804063811600,3.6808115234375,2.057668442866206,-7.823424511438608,-5.543503310456872
1759485804073866500,3.690866455078125,2.2080407906413075,-7.728310525026917,-5.61855358300507
1759485804083921700,3.700921630859375,2.363451132583618,-7.634206592440605,-5.6836050241082905
1759485804093976800,3.710976806640625,2.5278911686778067,-7.539737918195128,-5.738682768207788
1759485804104031500,3.721031494140625,2.708211203210056,-7.444202491500973,-5.780989293539524
1759485804114087700,3.731087646484375,2.9150802219718694,-7.345540457218885,-5.806524132290482
1759485804124142600,3.741142578125,3.1482161931514736,-7.245016136196255,-5.811099769642949
1759485804134197800,3.75119775390625,3.3907390013575553,-7.137023963510989,-5.808284127700328
1759485804144252400,3.76125244140625,3.6292733244493602,-7.027004084390401,-5.798273605817556
1759485804154307600,3.7713076171875,3.8454207514271137,-6.9227329780548805,-5.7843660764962435
1759485804164365000,3.781364990234375,4.027332439064979,-6.819983382198214,-5.782628292918205
1759485804174420200,3.791420166015625,4.178441868942976,-6.711136638510227,-5.8027288316607475
1759485804184475100,3.80147509765625,4.317483259886503,-6.592339578694105,-5.837019223797321
1759485804194530300,3.8115302734375,4.455498522652685,-6.462281120151281,-5.87859275867939
1759485804204585000,3.8215849609375,4.610922016337514,-6.321144218233227,-5.912099306961894
1759485804214641200,3.83164111328125,4.790644377237558,-6.171859081172943,-5.926909338080883
1759485804224696000,3.841696044921875,4.985360309129953,-6.019621524047851,-5.922898348873853
1759485804234751200,3.851751220703125,5.1828778544396155,-5.867576859146356,-5.905902790409327
1759485804244806100,3.86180615234375,5.369753009703755,-5.71991786198318,-5.883762854793668
1759485804254861000,3.871861083984375,5.5486564554363484,-5.582577429738641,-5.849583521816134
1759485804264917200,3.881917236328125,5.727687326940893,-5.452800126224756,-5.799219946756959
1759485804274972200,3.89197216796875,5.91275864765346,-5.324917842677236,-5.731921018987894
1759485804285027300,3.90202734375,6.105197866785526,-5.196518841779231,-5.647400322782993
1759485804295082000,3.91208203125,6.300364465054869,-5.069226925340295,-5.547858583056926
1759485804305137200,3.92213720703125,6.491629379710555,-4.9400282984972,-5.442908846807479
1759485804315192300,3.9321923828125,6.676305563625693,-4.811666707000136,-5.333403931471705
1759485804325248300,3.942248291015625,6.854059839323162,-4.690180554230511,-5.214830743539333
1759485804335303200,3.95230322265625,7.0173395994663235,-4.577519805212319,-5.096434081217646
1759485804345358000,3.962358154296875,7.160903436270356,-4.475790200053155,-4.985895146659017
1759485804355413200,3.972413330078125,7.2822893435359,-4.386593036469817,-4.888398941285908
1759485804365468200,3.98246826171875,7.382043264707923,-4.306090343734621,-4.80971966458559
1759485804375524000,3.992524169921875,7.46106828610599,-4.231897564798594,-4.753302780836821
1759485804385579000,4.0025791015625,7.517796720021963,-4.166940816241502,-4.721198208306729
1759485804395634200,4.01263427734375,7.553873995575309,-4.106209284164011,-4.716823061962425
1759485804405689300,4.022689453125,7.572776264443993,-4.046205774100125,-4.73831885445565
1759485804415744000,4.032743896484375,7.575777784347534,-3.9898251307085153,-4.781137128701806
1759485804425800200,4.04280029296875,7.562967402613163,-3.939601256380975,-4.842670332551002
1759485804435855000,4.052855224609375,7.532481663456559,-3.8990605716779827,-4.922340666115284
1759485804445910300,4.06291015625,7.484923793467879,-3.8719340798214077,-5.015418178263307
1759485804455965000,4.07296484375,7.424766554147005,-3.85895798613131,-5.113870369186997
1759485804466020000,4.08302001953125,7.357705526787043,-3.8622251712337134,-5.207472781991958
1759485804476075300,4.0930751953125,7.286812373918295,-3.884473827920854,-5.289954081323742
1759485804486131200,4.103131103515625,7.214173254165053,-3.9271398342147465,-5.357579756829142
1759485804496186400,4.113186279296875,7.139477201882005,-3.989320688317716,-5.411430004960298
1759485804506241000,4.123240966796875,7.0546291734188795,-4.074997276559472,-5.458661711734533
1759485804516296200,4.133296142578125,6.94781831947267,-4.185246872782707,-5.511978291380405
1759485804526351000,4.14335107421875,6.822859814417362,-4.311817781470716,-5.5702066084653135
1759485804536407300,4.1534072265625,6.722436615681648,-4.4160377421408885,-5.6105117308467625
1759485804546462000,4.1634619140625,6.664511080935597,-4.5103430425181985,-5.604594615757465
1759485804556517000,4.17351708984375,6.5953989662647245,-4.624833929572999,-5.593032188257575
1759485804566572300,4.183572265625,6.47682986998558,-4.754088378256559,-5.623139741751551
1759485804576627200,4.193627197265625,6.351678472706675,-4.889615915860236,-5.649620921441913
1759485804586683400,4.203683349609375,6.2277878891438245,-5.03482605856657,-5.659998523071408
1759485804596738000,4.213738037109375,6.095106680881977,-5.189505163624882,-5.664724967071414
1759485804606793200,4.223793212890625,5.954657761228084,-5.345113658487796,-5.669408156451582
1759485804616848100,4.23384814453125,5.816773139104247,-5.490494773846865,-5.673623143798112
1759485804626903000,4.243903076171875,5.675164528021216,-5.626773129817843,-5.68351266964972
1759485804636958200,4.253958251953125,5.529508687373996,-5.758477017480135,-5.695161606389283
1759485804647014100,4.26401416015625,5.380820931684971,-5.88676086756587,-5.706418328940868
1759485804657069300,4.2740693359375,5.228529014024138,-6.010146424216032,-5.719354967403412
1759485804667124200,4.284124267578125,5.070642052835225,-6.1239019827336065,-5.740801075536012
1759485804677179100,4.29417919921875,4.906207277438044,-6.2259466451913115,-5.773829484912753
1759485804687234000,4.304234130859375,4.735089371015131,-6.316964302200079,-5.817669795683026
1759485804697290200,4.314290283203125,4.560706617577374,-6.401188645806908,-5.864736082762479
1759485804707345200,4.32434521484375,4.387514827489853,-6.481426550126075,-5.908571717357635
1759485804717400000,4.334400146484375,4.21825131676197,-6.560192043805122,-5.9447986305147404
1759485804727455200,4.344455322265625,4.055068002730608,-6.640114306303858,-5.969562484893203
1759485804737510100,4.35451025390625,3.895128492926061,-6.722219173538685,-5.984155073869228
1759485804747565300,4.3645654296875,3.730569506627321,-6.806362853124737,-5.99388560976684
1759485804757621000,4.37462109375,3.5620275881722567,-6.891864961582422,-5.998712591531873
1759485804767676200,4.38467626953125,3.3930995930090546,-6.977884371912479,-5.9971986798375845
1759485804777731000,4.39473095703125,3.2333579438641666,-7.0641481123924255,-5.984447334814071
1759485804787786200,4.4047861328125,3.0926831064999103,-7.150455107492208,-5.95623187867701
1759485804797841200,4.414841064453125,2.9703493969902395,-7.236832829740643,-5.914022968500852
1759485804807897000,4.42489697265625,2.855178418716788,-7.3179977857768534,-5.870712819084525
1759485804817952300,4.4349521484375,2.741374052621424,-7.384502348297834,-5.84160830515325
1759485804828007200,4.445007080078125,2.633155377703905,-7.44157974178195,-5.818915996351838
1759485804838062000,4.45506201171875,2.5310075471326705,-7.494462021663785,-5.796328901490568
1759485804848117000,4.465116943359375,2.436424452727288,-7.543541986653208,-5.77314500977993
1759485804858173200,4.475173095703125,2.353111232616007,-7.59036861975789,-5.746266939726471
1759485804868228000,4.48522802734375,2.281072416843474,-7.636675612902641,-5.713866891381144
1759485804878283300,4.495283203125,2.2146832973957062,-7.681049592158198,-5.680407689371704
1759485804888338200,4.505338134765625,2.1481841417022047,-7.724355065399408,-5.647125012972951
1759485804898393000,4.51539306640625,2.071556244573742,-7.768718523260951,-5.61480679769218
1759485804908448300,4.5254482421875,1.97483584587872,-7.811361733201146,-5.590441587242484
1759485804918504200,4.535504150390625,1.8611276336342095,-7.847488108593225,-5.578846426516771
1759485804928559000,4.54555908203125,1.7438170129835604,-7.875783059707284,-5.576876587748528
1759485804938614000,4.555614013671875,1.635772525589168,-7.895679015788436,-5.581476190498471
1759485804948669200,4.565669189453125,1.5424674882955849,-7.906390963938832,-5.592868522128462
1759485804958724400,4.575724365234375,1.4636455882541834,-7.907266577729582,-5.612776753169298
1759485804968780000,4.585780029296875,1.3945385881498455,-7.897451286157965,-5.64410420384705
1759485804978835200,4.595835205078125,1.3305635441064834,-7.880784813517332,-5.682711874660849
1759485804988890000,4.60589013671875,1.2683764063932002,-7.860352850863337,-5.7250715914845465
1759485804998945300,4.6159453125,1.203815013829246,-7.83942170651555,-5.767555811470746
1759485805009000000,4.626,1.1358567453686148,-7.820230099311471,-5.807256538218259
1759485805019055000,4.63605517578125,1.0721752043791115,-7.80467772539258,-5.84019083957076
1759485805029111000,4.646111083984375,1.027501292328909,-7.793252076014876,-5.863435521557927
1759485805039166200,4.656166259765625,1.0189630349557846,-7.787061989203095,-5.873138584926724
1759485805049221000,4.66622119140625,1.0531071504894642,-7.7846432376235715,-5.870322358462214
1759485805059276000,4.676276123046875,1.1206310461208224,-7.778794511595368,-5.865571949064731
1759485805069331200,4.686331298828125,1.2033576254505662,-7.7649775831669565,-5.867488596341014
1759485805079387100,4.69638720703125,1.28551151945889,-7.743322800719738,-5.878671669134497
1759485805089442300,4.7064423828125,1.3618446714244783,-7.715663809421658,-5.897821190762519
1759485805099497000,4.7164970703125,1.4323286589704454,-7.6834414557307955,-5.923136249282956
1759485805109552000,4.72655224609375,1.4982001842848955,-7.651520130813122,-5.948111116063594
1759485805119607300,4.736607177734375,1.5585105683408678,-7.6271905761986964,-5.96384176915884
1759485805129663200,4.746663330078125,1.605933706033975,-7.6179925397425885,-5.963015839728713
1759485805139718100,4.75671826171875,1.6215986004166305,-7.628534392023086,-5.945272677767276
1759485805149773000,4.76677294921875,1.5948467870913445,-7.659290180292725,-5.912876721075177
1759485805159827000,4.776826904296875,1.5306287280723452,-7.70752726471722,-5.866990583691001
1759485805169881900,4.7868818359375,1.4391330782882867,-7.767447772672772,-5.810854270449281
1759485805179936800,4.796936767578125,1.3223038114137946,-7.834436319318414,-5.748347837653756
1759485805189993000,4.806992919921875,1.182767695755884,-7.906241910856962,-5.680033595362305
1759485805200047900,4.8170478515625,1.0385334854096173,-7.976587366715073,-5.609445562919974
1759485805210102800,4.827102783203125,0.9034726154696195,-8.042785055243968,-5.537845723086595
1759485805220158000,4.837157958984375,0.7772963321223855,-8.104025413626433,-5.46726470490694
1759485805230212900,4.847212890625,0.6589523498360067,-8.160715269097686,-5.398045622730255
1759485805240269000,4.85726904296875,0.5405335852803662,-8.214905708968638,-5.328557075962424
1759485805250324000,4.867323974609375,0.41061234325114637,-8.269104916667938,-5.2558232636630535
1759485805260379000,4.87737890625,0.2715263094482943,-8.319974103161693,-5.184079046922922
1759485805270433800,4.887433837890625,0.1429513400620315,-8.362990238067507,-5.119602190837264
1759485805280489000,4.897489013671875,0.04706264751737471,-8.395299100998043,-5.068243759521842
1759485805290543900,4.9075439453125,-0.002492539761996886,-8.417178339850903,-5.032044903415441
1759485805300599800,4.917599853515625,-0.006046994825705769,-8.428684068727494,-5.0127469132274385
1759485805310655000,4.927655029296875,0.03586539550148882,-8.429124798232316,-5.011882405352592
1759485805320710000,4.9377099609375,0.12375093763014301,-8.41840992747247,-5.028465291363
1759485805330765000,4.94776513671875,0.25263817870281635,-8.398729659968614,-5.0564738267511125
1759485805340819700,4.95781982421875,0.41404841864705083,-8.372446048676967,-5.089312266513705
1759485805350876000,4.9678759765625,0.5963460368625819,-8.340020865890382,-5.124335064578056
1759485805360930800,4.977930908203125,0.7847003978338092,-8.300130754050612,-5.163570511901378
1759485805370986000,4.987986083984375,0.9690622551027684,-8.251706622621416,-5.2096705842971796
1759485805381041000,4.998041015625,1.1490021312110126,-8.197490463787316,-5.258452443122864
1759485805391095800,5.008095703125,1.3319374628081917,-8.141089362129568,-5.30273289887607
1759485805401151000,5.01815087890625,1.526704832626879,-8.084788798236847,-5.33626691968739
1759485805411207000,5.02820703125,1.7322668604433535,-8.027695622661708,-5.359639611968398
1759485805421261800,5.03826171875,1.9383692787468432,-7.967217480823397,-5.379270195111632
1759485805431316700,5.048316650390625,2.1343194286093117,-7.900878337997198,-5.402888386586308
1759485805441372000,5.058371826171875,2.3089991191670296,-7.830617053291201,-5.433263066583872
1759485805451427000,5.068427001953125,2.452567339885235,-7.759854833325743,-5.4717427271038295
1759485805461483000,5.07848291015625,2.5736162702813745,-7.68169724241197,-5.526157038858533
1759485805471538000,5.088537841796875,2.6914056143596765,-7.584278486189246,-5.604056855618953
1759485805481592800,5.0985927734375,2.821665148432553,-7.4708216183573,-5.691695976105332
1759485805491648000,5.10864794921875,2.9747578610822556,-7.34618284677565,-5.775360932263732
1759485805501703000,5.118702880859375,3.159590404602885,-7.217412674477696,-5.839206504708528
1759485805511757800,5.1287578125,3.365683762817085,-7.09028617773354,-5.879660095649958
1759485805521813800,5.138813720703125,3.576486613896489,-6.962166578298807,-5.908246723186969
1759485805531869000,5.148868896484375,3.7775305797666308,-6.827168325266242,-5.940574290817976
1759485805541924000,5.158924072265625,3.9630677644252774,-6.680914518725872,-5.985805179163814
1759485805551978800,5.168978759765625,4.143226470915973,-6.52285863071084,-6.037912383019924
1759485805562034000,5.179033935546875,4.330692285549641,-6.353369494533538,-6.086886549547314
1759485805572089900,5.18908984375,4.534564752843976,-6.1688996468454596,-6.1280316298842425
1759485805582145000,5.19914501953125,4.755008707971871,-5.973697977262735,-6.154283092471957
1759485805592199700,5.20919970703125,4.975061033433676,-5.788897290185093,-6.156932730197906
1759485805602254800,5.2192548828125,5.192612481990456,-5.625968243175745,-6.128265438640117
1759485805612310000,5.22931005859375,5.417066549542546,-5.477314974278212,-6.068343177118897
1759485805622365000,5.239364990234375,5.647673294505477,-5.333668719887733,-5.985495382562279
1759485805632421000,5.249421142578125,5.878102344813943,-5.196133641853928,-5.883748241746425
1759485805642475800,5.259475830078125,6.101224286979437,-5.069559518295526,-5.765848423030972
1759485805652531000,5.269531005859375,6.311041341891884,-4.954875739017129,-5.638292302697897
1759485805662585900,5.2795859375,6.505615819486975,-4.851997256083786,-5.505041185593605
1759485805672640800,5.289640869140625,6.68371554762125,-4.76130488550663,-5.369200636518001
1759485805682696700,5.29969677734375,6.845931477925181,-4.682243916012347,-5.2326101458579295
1759485805692752000,5.309751953125,6.991565691262483,-4.612373384189605,-5.1004310418993235
1759485805702807000,5.31980712890625,7.118274839377403,-4.5529041271328925,-4.977108613613248
1759485805712862000,5.329862060546875,7.223374797752499,-4.505911197550595,-4.867236910791695
1759485805722916900,5.339916748046875,7.306019763213396,-4.471514130169153,-4.774726969398558
1759485805732972000,5.349971923828125,7.366912331071496,-4.4497260767310856,-4.700948324221373
1759485805743028000,5.360028076171875,7.407117500209808,-4.439087486077844,-4.647526238374412
1759485805753083000,5.370082763671875,7.427784440663457,-4.436435802525281,-4.616972694678604
1759485805763137800,5.3801376953125,7.430613526609539,-4.436959534138441,-4.611915119028091
1759485805773193000,5.39019287109375,7.417020470064878,-4.43791172029674,-4.632831650328636
1759485805783248000,5.400247802734375,7.38630033763051,-4.438867121325433,-4.6807484167575835
1759485805793304000,5.410303955078125,7.340309570828079,-4.439258750991523,-4.752179622025787
1759485805803358700,5.420358642578125,7.282042090776562,-4.4409006729796525,-4.839488779905438
1759485805813414000,5.430413818359375,7.212989597338438,-4.448927912090719,-4.934593413966894
1759485805823468800,5.44046875,7.136133152151108,-4.46899279499799,-5.027334241506457
1759485805833524000,5.45052392578125,7.050956037864089,-4.503353622022271,-5.116074016711115
1759485805843579000,5.460578857421875,6.964732044872641,-4.542093102522194,-5.199257911354303
1759485805853634800,5.470634765625,6.886646934673189,-4.574838603304326,-5.274025275307894
1759485805863690000,5.48068994140625,6.793693925687671,-4.631609122796356,-5.344558362692594
1759485805873745000,5.490744873046875,6.674795159062743,-4.727972524747252,-5.409599866923689
1759485805883799800,5.5007998046875,6.5590031262815,-4.847310267311334,-5.445498278778791
1759485805893855000,5.51085498046875,6.456286848172545,-4.978203423112631,-5.450158087283373
1759485805903911000,5.520910888671875,6.3425681145340205,-5.120010771638155,-5.452311465924978
1759485805913965800,5.5309658203125,6.205371474674344,-5.288750550752878,-5.449117638319731
1759485805924021000,5.54102099609375,6.057226155298948,-5.4779965268015856,-5.428806087175011
1759485805934076000,5.551075927734375,5.9067269662737845,-5.667617765903473,-5.399915508255362
1759485805944130800,5.561130859375,5.7591866270542145,-5.847113332310319,-5.3678147351175545
1759485805954186000,5.57118603515625,5.61331392878592,-6.013205227264762,-5.338769257897138
1759485805964242000,5.581241943359375,5.457008099308609,-6.163759361347556,-5.329119970542192
1759485805974296800,5.591296875,5.284640192824602,-6.3007794755965465,-5.342578002530336
1759485805984352000,5.60135205078125,5.098230901506543,-6.426730498820543,-5.373599748259783
1759485805994407000,5.611406982421875,4.901427641946077,-6.542610794407129,-5.416700638839602
1759485806004462000,5.621462158203125,4.695835803513229,-6.646518912649154,-5.472047263008355
1759485806014516700,5.631516845703125,4.480971986605227,-6.738940591236949,-5.5387692676723
1759485806024573000,5.641572998046875,4.258893416012823,-6.822533651202916,-5.611172240582108
1759485806034627800,5.6516279296875,4.035268492761254,-6.899305340716243,-5.6821291063368315
1759485806044683000,5.66168310546875,3.8149469949692487,-6.970130104523896,-5.747508464220166
1759485806054738000,5.671738037109375,3.6054788996249436,-7.038156177523732,-5.799592287200689
1759485806064792800,5.681792724609375,3.415134022423625,-7.110597728878259,-5.826375664708018
1759485806074848800,5.691848876953125,3.2401544721364974,-7.193620880001783,-5.824397058111429
1759485806084904000,5.701904052734375,3.073637922029197,-7.289719785797596,-5.795092637693882
1759485806094959000,5.711958984375,2.9132243649721143,-7.395110836073756,-5.74420007032454
1759485806105013800,5.722013671875,2.7593393329009412,-7.501997677865624,-5.68123712593317
1759485806115069000,5.73206884765625,2.608698105056584,-7.603560694286227,-5.617023304697871
1759485806125124000,5.7421240234375,2.461353288409114,-7.695707063063979,-5.557715960204601
1759485806135180000,5.752179931640625,2.320881426271051,-7.7753803192377084,-5.50702797549665
1759485806145235000,5.76223486328125,2.1902401994042098,-7.839424044603109,-5.469611560294032
1759485806155289900,5.772289794921875,2.067156256049126,-7.886710111913085,-5.449499331113696
1759485806165345000,5.782344970703125,1.949692052271962,-7.920862556883693,-5.443256052809954
1759485806175400000,5.79239990234375,1.8392697298303244,-7.9474021887630215,-5.44300237030983
1759485806185455900,5.802455810546875,1.739338844656199,-7.969205439770222,-5.443973845690489
1759485806195510800,5.8125107421875,1.6539968951962887,-7.987953979381919,-5.443092386680841
1759485806205566000,5.82256591796875,1.5880942440912127,-8.006131441107392,-5.436010903987288
1759485806215621000,5.83262109375,1.5345909097015857,-8.027376473709941,-5.420023645782471
1759485806225675800,5.84267578125,1.4818153050646186,-8.054297213861346,-5.394710925349593
1759485806235731000,5.85273095703125,1.4183819666825235,-8.085626418104768,-5.364812046170234
1759485806245787000,5.862786865234375,1.3335592187911272,-8.115884778246283,-5.340826190426945
1759485806255842000,5.872842041015625,1.2242081788428127,-8.139564929041265,-5.330965306147933
1759485806265896700,5.882896728515625,1.1010071119140834,-8.154275591439008,-5.335349220320582
1759485806275951900,5.892951904296875,0.9793076086547226,-8.158661259177327,-5.35234302521944
1759485806286007000,5.903007080078125,0.874859830578044,-8.155176339671016,-5.37569409019053
1759485806296062000,5.91306201171875,0.7910138918295502,-8.144971756520867,-5.404084318372607
1759485806306118000,5.923117919921875,0.7230852878548204,-8.129944283258915,-5.436133069062232
1759485806316172800,5.9331728515625,0.6645929860714823,-8.115565044772625,-5.46500786589086
1759485806326228000,5.94322802734375,0.60878104594592,-8.103230463856459,-5.4897559381783
1759485806336283000,5.953282958984375,0.5487845866773278,-8.09019153406322,-5.515253952050209
1759485806346337800,5.963337890625,0.4728370730284601,-8.079596490290761,-5.537773826894163
1759485806356393700,5.973393798828125,0.3919800504302606,-8.076386880594491,-5.548758162245154
1759485806366449000,5.983448974609375,0.32889914221502836,-8.08353266069591,-5.542446494880318
1759485806376504000,5.993504150390625,0.29472673216862605,-8.096974910593032,-5.524720284053683
1759485806386559000,6.00355908203125,0.2885516602628864,-8.110384427264332,-5.505342214366793
1759485806396614000,6.01361376953125,0.30610329997390506,-8.117832989704608,-5.493400432160496
1759485806406668800,6.023668701171875,0.34129349049441515,-8.117186508494616,-5.492285164394975
1759485806416725000,6.03372509765625,0.38266898205373434,-8.111182884165645,-5.498423813280463
1759485806426780000,6.04377978515625,0.42239272435065356,-8.104180896449089,-5.505835550841689
1759485806436834800,6.053834716796875,0.45482462913896887,-8.09714968263805,-5.51359215631783
1759485806446890000,6.063889892578125,0.47479894768595693,-8.09289436328113,-5.518152596101165
1759485806456945000,6.07394482421875,0.4789520853100344,-8.094975261208415,-5.514738988265395
1759485806467000000,6.084,0.46472814698331055,-8.107111104682087,-5.4981064178943635
1759485806477055700,6.0940556640625,0.42655572578161954,-8.130448725649714,-5.46664978787899
1759485806487111000,6.10411083984375,0.36512430180646477,-8.163082582750915,-5.422286330017447
1759485806497165800,6.114165771484375,0.28418760156817735,-8.203201827171444,-5.3662967317700385
1759485806507221000,6.124220947265625,0.1869105188384652,-8.248103045171499,-5.301345243909955
1759485806517276000,6.13427587890625,0.07784693579571321,-8.29513542998135,-5.230208345413208
1759485806527331800,6.144331787109375,-0.030959318334970155,-8.341039103022217,-5.157178180515766
1759485806537387000,6.154386962890625,-0.13559838348333722,-8.38490045658052,-5.083844648757577
1759485806547442000,6.16444189453125,-0.2382627213425003,-8.430136021101474,-5.0046401791393755
1759485806557497000,6.1744970703125,-0.3301312412932515,-8.47275994181931,-4.926837393012643
1759485806567551700,6.1845517578125,-0.40828722477182744,-8.51358587320447,-4.850004036439955
1759485806577607000,6.19460693359375,-0.46914183523971587,-8.555475634428857,-4.770126782126725
1759485806587662800,6.204662841796875,-0.5046970596803352,-8.59536691531241,-4.69418189882636
1759485806597718000,6.214718017578125,-0.515458034604229,-8.628426888871193,-4.631948145492375
1759485806607773000,6.22477294921875,-0.5048832299022004,-8.650884219872951,-4.591044472695887
1759485806617827800,6.234827880859375,-0.47406880678050217,-8.662104702067374,-4.573137352344394
1759485806627883000,6.244883056640625,-0.42289702061098067,-8.663701615869998,-4.575128818422556
1759485806637938000,6.25493798828125,-0.3498729931933805,-8.656863294282555,-4.594199721856415
1759485806647993900,6.264993896484375,-0.2527470276384614,-8.643561329638958,-4.625511390443146
1759485806658048800,6.275048828125,-0.13129673163350672,-8.62490748257339,-4.6652024725794785
1759485806668104000,6.28510400390625,0.009902731251408113,-8.600405494001507,-4.712041380643845
1759485806678159000,6.2951591796875,0.1660692081985995,-8.569307175904513,-4.765480417625605
1759485806688213800,6.3052138671875,0.33495182985011485,-8.530918700799345,-4.825103696200252
1759485806698269000,6.31526904296875,0.5199935591420158,-8.485071141859889,-4.889127547821403
1759485806708324900,6.325324951171875,0.7242242287568748,-8.433211190763116,-4.952459325525164
1759485806718380000,6.335380126953125,0.9462563298590481,-8.376296294364332,-5.01125229075551
1759485806728434700,6.3454345703125,1.1778964364577085,-8.313322244057058,-5.066715819302201
1759485806738489900,6.35548974609375,1.40775769681558,-8.243993271765113,-5.121052389645576
1759485806748545000,6.365544921875,1.6251533702887593,-8.169711060979962,-5.17542870747745
1759485806758601000,6.37560107421875,1.8252283449962734,-8.092770444640516,-5.229339745885134
1759485806768656100,6.38565625,2.007478324677795,-8.013719704279303,-5.284003648486733
1759485806778710800,6.395710693359375,2.1774097977951166,-7.934042940974235,-5.336686606404185
1759485806788766000,6.405765869140625,2.3487188428759573,-7.848512190943956,-5.390246931678057
1759485806798820900,6.41582080078125,2.532862235088646,-7.7495386064946645,-5.449739569610357
1759485806808875800,6.425875732421875,2.7265917862921953,-7.627579867777228,-5.527758628836274
1759485806818931700,6.435931640625,2.932365703293681,-7.49275580226779,-5.6062686864495275
1759485806828987000,6.44598681640625,3.1495629315853115,-7.356389768013358,-5.6687008849650615
1759485806839042000,6.4560419921875,3.3703500010624525,-7.218981531229614,-5.718167218923568
1759485806849097000,6.466096923828125,3.589470014110207,-7.073510399499535,-5.766413655698299
1759485806859152000,6.47615185546875,3.8106501745581625,-6.913722573125362,-5.818055580130219
1759485806869207800,6.486207763671875,4.0321904004901645,-6.735864252531528,-5.877070663678646
1759485806879263000,6.496262939453125,4.257910542455315,-6.535795269173383,-5.9433951934576035
1759485806889318000,6.50631787109375,4.488589475871622,-6.318524391123652,-6.008260172078013
1759485806899372800,6.516372802734375,4.724230415609479,-6.098036889114976,-6.0552440415710205
1759485806909428000,6.526427978515625,4.963678638675809,-5.889284248563647,-6.070304832580685
1759485806919483000,6.53648291015625,5.207409653627872,-5.688858122330903,-6.057240183824301
1759485806929539000,6.5465390625,5.467573916986584,-5.491494890800118,-6.009950609382987
1759485806939593700,6.55659375,5.740591816699505,-5.292554619210958,-5.93336713591814
1759485806949649000,6.56664892578125,6.009299451997876,-5.095834946280718,-5.838764021638036
1759485806959703800,6.576703857421875,6.2709507390439505,-4.909601011529564,-5.722008696782589
1759485806969759000,6.586759033203125,6.528370087608694,-4.732866142007708,-5.581285636362433
1759485806979814000,6.59681396484375,6.780047093129157,-4.568354209721088,-5.415854251143336
1759485806989869800,6.606869873046875,7.020630457705259,-4.416866301919519,-5.231866049492359
1759485806999925000,6.616925048828125,7.243263739570975,-4.279610040827095,-5.038894330918788
1759485807009980000,6.62697998046875,7.438027602258324,-4.155782293367386,-4.855471361935138
1759485807020034800,6.637034912109375,7.599094362527132,-4.0484558911144735,-4.694055349837243
1759485807030089700,6.64708984375,7.728941224145889,-3.957236574053764,-4.557864964410663
1759485807040145000,6.657144775390625,7.8292562863320105,-3.879779532624781,-4.452015941233933
1759485807050200800,6.667200927734375,7.9046940968930715,-3.8185409278079865,-4.370919958780705
1759485807060256000,6.677256103515625,7.957208712506294,-3.7768858521223065,-4.311420014324784
1759485807070311000,6.687310791015625,7.986295690780878,-3.757252054108679,-4.274637220850587
1759485807080365800,6.69736572265625,7.991949771019816,-3.7564173568502066,-4.264791826401651
1759485807090421000,6.7074208984375,7.975538149923086,-3.768210962757468,-4.285062461014092
1759485807100477000,6.717476806640625,7.9411495581090445,-3.7884532480582593,-4.330836954717338
1759485807110531800,6.72753173828125,7.89102680606842,-3.816937584264576,-4.396938197134435
1759485807120586800,6.737586669921875,7.8270456245452165,-3.854595991529524,-4.477703632459044
1759485807130642000,6.747641845703125,7.7501260509938,-3.9019647686868906,-4.569529098719358
1759485807140697000,6.757697021484375,7.659537433052063,-3.962774334436655,-4.6688642099574205
1759485807150751700,6.767751708984375,7.55342274467647,-4.036892002309859,-4.776995791113376
1759485807160808000,6.777807861328125,7.433844763615727,-4.121757274168729,-4.890752226413786
1759485807170862300,6.7878623046875,7.306955582758784,-4.216764585335553,-4.9997681891888375
1759485807180917500,6.79791748046875,7.172829436385631,-4.320977239482104,-5.103926482799649
1759485807190972700,6.80797265625,7.033128120228648,-4.441057617107034,-5.194468923512101
1759485807201027600,6.818027587890625,6.891198606628179,-4.574844740784168,-5.268070166295766
1759485807211082500,6.82808251953125,6.784100167912245,-4.685105735184252,-5.310004935705662
1759485807221138400,6.838138427734375,6.750163996040821,-4.7582013665333385,-5.2882116215705866
1759485807231193600,6.848193603515625,6.715930302527546,-4.84274924300611,-5.254944727262854
1759485807241248500,6.85824853515625,6.621678485903144,-4.964238026124239,-5.261188005566597
1759485807251303400,6.868303466796875,6.509270834863186,-5.111559754157066,-5.260394224840402
1759485807261358600,6.878358642578125,6.41440760834217,-5.257207411497831,-5.2333104030817745
1759485807271413500,6.88841357421875,6.305861893427371,-5.403252543723583,-5.216449869173765
1759485807281469700,6.8984697265625,6.1857064047396175,-5.551704152569174,-5.204420993205905
1759485807291524600,6.908524658203125,6.072217972725629,-5.689028802722692,-5.189749493774771
1759485807301579500,6.91857958984375,5.964168516895175,-5.8099237116008995,-5.181106168591976
1759485807311634400,6.928634521484375,5.852962642860413,-5.918759349372983,-5.184738387614488
1759485807321689600,6.938689697265625,5.729370749983191,-6.019539690983295,-5.206710565447807
1759485807331744500,6.94874462890625,5.585258047124743,-6.114395903241634,-5.25256513864994
1759485807341800400,6.958800537109375,5.419405806145072,-6.206165255400538,-5.318264814528822
1759485807351855600,6.968855712890625,5.232148958086968,-6.2978708946734665,-5.397390373691916
1759485807361910500,6.97891064453125,5.023175368261337,-6.3905877568155525,-5.486207305786014
1759485807371965700,6.988965576171875,4.795669804184138,-6.485256337547302,-5.577938079500198
1759485807382020400,6.999020263671875,4.556846142756939,-6.580387275093793,-5.666043063932657
1759485807392076500,7.00907666015625,4.312906745751202,-6.673932989275455,-5.746985317128896
1759485807402131500,7.01913134765625,4.073870610617101,-6.765805801808834,-5.813591001936793
1759485807412186600,7.0291865234375,3.850036720789969,-6.857093507930636,-5.8589990004152055
1759485807422241500,7.039241455078125,3.6393554502636194,-6.950699427866935,-5.883303420588374
1759485807432296400,7.04929638671875,3.440845094524324,-7.043666465377807,-5.892176462873816
1759485807442351600,7.0593515625,3.259547447131574,-7.13084907426834,-5.890393086588382
1759485807452407600,7.069407470703125,3.1043712062060833,-7.210444589030742,-5.877307395043969
1759485807462462500,7.07946240234375,2.9786113216400145,-7.283510409763455,-5.852243096414208
1759485807472517400,7.089517333984375,2.8797721772253513,-7.353809103870391,-5.813671665957569
1759485807482572500,7.099572509765625,2.7997198586061596,-7.426653975328803,-5.759928385332226
1759485807492627700,7.109627685546875,2.7184558261096474,-7.501704832398891,-5.701297917187214
1759485807502682400,7.119682373046875,2.6231080309420824,-7.579509372091293,-5.642758049935102
1759485807512738600,7.129738525390625,2.508518944209814,-7.657785620948672,-5.58891949224174
1759485807522793500,7.13979345703125,2.3764153897054494,-7.733480621141195,-5.542229637259244
1759485807532848600,7.1498486328125,2.238435490513593,-7.8063231545120475,-5.497373427444696
1759485807542903300,7.1599033203125,2.1103265586033464,-7.877827717277407,-5.445799892073869
1759485807552958500,7.16995849609375,2.0054032719694077,-7.943083741042018,-5.3903772800594565
1759485807563013600,7.180013671875,1.931672119195759,-7.998401139116287,-5.3352235481143
1759485807573069600,7.190069580078125,1.8890835620522497,-8.045041894260049,-5.280062801906467
1759485807583124700,7.200124755859375,1.8621826956450938,-8.083056859877706,-5.231333550050854
1759485807593179400,7.210179443359375,1.8335783863209187,-8.109951296544075,-5.199719683647156
1759485807603234600,7.220234619140625,1.7907851003855466,-8.125744493481516,-5.1899681049615145
1759485807613289500,7.23028955078125,1.7309445257984102,-8.13334853874445,-5.198352486947178
1759485807623344400,7.240344482421875,1.6542178444705902,-8.13978061761856,-5.213244351130724
1759485807633400300,7.250400390625,1.563751829995215,-8.146435983854532,-5.2307420138984915
1759485807643455500,7.26045556640625,1.4639435482874512,-8.153476550015807,-5.2486272146791215
1759485807653510700,7.2705107421875,1.3594247508011759,-8.16216079173088,-5.263218634611368
1759485807663565600,7.280565673828125,1.2530740617126226,-8.17132024974227,-5.275388380354642
1759485807673620500,7.290620361328125,1.1492468997523189,-8.17825384839773,-5.288268320193886
1759485807683676400,7.300676513671875,1.057154964575544,-8.180210827684402,-5.304429181399941
1759485807693731600,7.310731689453125,0.9867927037131041,-8.173432711851596,-5.328379381307959
1759485807703786500,7.320786376953125,0.9442057540047913,-8.159131799298525,-5.357933977094293
1759485807713841400,7.33084130859375,0.9239685102052986,-8.142896703812479,-5.386085135823488
1759485807723896600,7.340896484375,0.9149149967864155,-8.129903951248526,-5.407216771179438
1759485807733951500,7.350951416015625,0.9054238956678659,-8.121640565294026,-5.421214316871762
1759485807744007700,7.361007568359375,0.8837593224789947,-8.1176804294914,-5.430709874969721
1759485807754062300,7.371062255859375,0.8537616591002791,-8.116814168050885,-5.436802931147813
1759485807764117500,7.381117431640625,0.8281466677851974,-8.117109351605176,-5.440322921967506
1759485807774172700,7.391172607421875,0.8168141765836626,-8.116808907353878,-5.4424844839155675
1759485807784227600,7.4012275390625,0.8243951332319528,-8.11574273942709,-5.442928720551729
1759485807794282500,7.411282470703125,0.8491834644645452,-8.115344095498322,-5.4397097585052245
1759485807804338400,7.42133837890625,0.8826319989494978,-8.115141850924491,-5.434686377385258
1759485807814393600,7.4313935546875,0.9133430712945759,-8.115619405308365,-5.428896103546023
1759485807824448500,7.441448486328125,0.9356379782762377,-8.117640682002902,-5.4220753176152705
1759485807834503700,7.451503662109375,0.9493734389662742,-8.12006878593266,-5.416044805279374
1759485807844558600,7.46155859375,0.9522414686832577,-8.122166634994745,-5.412395635122061
1759485807854613500,7.471613525390625,0.9478987633038312,-8.127571708908677,-5.405039427140355
1759485807864669400,7.48166943359375,0.9380499347887933,-8.139041781949997,-5.389477116349339
1759485807874724600,7.491724609375,0.9238786399647593,-8.157849942794442,-5.363423222160339
1759485807884779500,7.501779541015625,0.9135179164048284,-8.180384430685638,-5.330775921055674
1759485807894834400,7.51183447265625,0.914946707098931,-8.202025184607505,-5.297172342139482
1759485807904889600,7.5218896484375,0.9303346842363476,-8.22308959994614,-5.261716413354874
1759485807914945500,7.531945556640625,0.9524036735076457,-8.247561777901648,-5.219297075298428
1759485807925000400,7.54200048828125,0.966835738159716,-8.27971048183441,-5.165462609258293
1759485807935055600,7.5520556640625,0.9585535744395106,-8.322302838370204,-5.098123349478841
1759485807945110500,7.562110595703125,0.925497692533955,-8.374616962975264,-5.017932791432738
1759485807955165700,7.572165771484375,0.8773352077156304,-8.429880000513792,-4.933336107382178
1759485807965220400,7.582220458984375,0.8272669623412191,-8.477691553002595,-4.859503686191141
1759485807975276500,7.592276611328125,0.7840838003054261,-8.513121762824058,-4.8044113290444015
1759485807985331500,7.60233154296875,0.7524022024277597,-8.54305279070735,-4.756104101993143
1759485807995386600,7.61238671875,0.7345714352481066,-8.577356042325496,-4.696784190279245
1759485808005441500,7.622441650390625,0.7326030577845871,-8.618184896320104,-4.621748238517344
1759485808015496400,7.632496337890625,0.7475110693853348,-8.670181041017175,-4.521015243180096
1759485808025551600,7.642551513671875,0.7787059066593647,-8.723466056481003,-4.411928845517337
1759485808035607600,7.652607666015625,0.8211196917578577,-8.764840853920578,-4.3213089556545015
1759485808045662700,7.662662841796875,0.8687024039268493,-8.795913453054428,-4.248251902750134
1759485808055717400,7.67271728515625,0.9157673027668147,-8.821398607444763,-4.185057779951394
1759485808065772500,7.6827724609375,0.9576284224186092,-8.845227811321616,-4.124957239253819
1759485808075827700,7.69282763671875,0.9920487976104021,-8.87222687740624,-4.058303039129078
1759485808085882400,7.70288232421875,1.018728203286603,-8.903882829385996,-3.9816400706872344
1759485808095938600,7.7129384765625,1.0381398829821498,-8.936147268652915,-3.903579218146205
1759485808105993500,7.722993408203125,1.0522485608987509,-8.962727232542633,-3.8383188104674217
1759485808116048600,7.733048583984375,1.0645129261229187,-8.981583908703923,-3.7905622030362482
1759485808126103600,7.743103515625,1.0790198826421051,-8.99501680625081,-3.7544375812098383
1759485808136158500,7.753158447265625,1.097347858754173,-9.004604134285449,-3.7260312786757943
1759485808146213600,7.763213623046875,1.1197609122227876,-9.010165860065817,-3.7058664425253864
1759485808156269600,7.77326953125,1.1460416009049863,-9.013149844312668,-3.6905420321434734
1759485808166325200,7.7833251953125,1.1760671021386981,-9.016085313242673,-3.673886665418744
1759485808176380400,7.79338037109375,1.2095963737096638,-9.021137335935235,-3.650527124880254
1759485808186435300,7.803435302734375,1.2450114590272308,-9.028637336301802,-3.6199487390041347
1759485808196490200,7.813490234375,1.2803972451850771,-9.038180240672826,-3.583607551817596
1759485808206546400,7.82354638671875,1.3136040798686444,-9.048910893523692,-3.544292901778221
1759485808216601300,7.833601318359375,1.3428995863273738,-9.059086250579357,-3.5071319226413964
1759485808226656500,7.843656494140625,1.3663200632728636,-9.067848818227649,-3.475295061136782
1759485808236711200,7.853711181640625,1.382308928912878,-9.076150782626867,-3.447185403461754
1759485808246766300,7.863766357421875,1.38998413971588,-9.085067079532147,-3.4205116238087414
1759485808256821500,7.873821533203125,1.3890066729858517,-9.093996820440887,-3.3970985995173453
1759485808266877400,7.88387744140625,1.3810577598080038,-9.101725368866324,-3.379595968313515
1759485808276932400,7.893932373046875,1.3690695081114768,-9.10775821928978,-3.368197499203682
1759485808286987300,7.9039873046875,1.3559711032159625,-9.113098995795845,-3.3590389179751274
1759485808297042400,7.91404248046875,1.3464281988449394,-9.116946903395652,-3.3524317747950554
1759485808307097300,7.924097412109375,1.3427588626824318,-9.118828479358553,-3.3487864040300246
1759485808317152300,7.93415234375,1.3446290404684842,-9.119266286253929,-3.3468440377905964
1759485808327208200,7.944208251953125,1.3499990430690347,-9.118925509992241,-3.345606897211075
1759485808337263400,7.954263427734375,1.3560761710256337,-9.118129391178488,-3.3453201892241835
1759485808347318500,7.964318603515625,1.360807291200757,-9.117067314904927,-3.3462957562580704
1759485808357373200,7.974373291015625,1.3626681166365742,-9.116628338965773,-3.3467347321972247
1759485808367428400,7.984428466796875,1.3619320574469864,-9.1174373172611,-3.3448262682273984
1759485808377483300,7.994483154296875,1.3599201331026851,-9.118473090049624,-3.342819896841049
1759485808387539500,8.00453955078125,1.3569164212420581,-9.119326492008566,-3.341712227860093
1759485808397594000,8.014593994140625,1.3526304144859314,-9.120690181577205,-3.3397286528274415
1759485808407649300,8.024649169921876,1.3450408361397683,-9.12355316979289,-3.334969767862558
1759485808417704400,8.034704345703124,1.3317461780197917,-9.129820413494109,-3.323138460293412
1759485808427759400,8.04475927734375,1.3195312779605388,-9.13893895497322,-3.3028792238578197
1759485808437814300,8.054814208984375,1.3177540391549467,-9.145888335719704,-3.284301656898856
1759485808447870200,8.0648701171875,1.3245255791164934,-9.152043351218104,-3.264370337243378
1759485808457925400,8.07492529296875,1.3375513571672142,-9.157040428853035,-3.2449899294689297
1759485808467980300,8.084980224609374,1.3549575422592461,-9.160618287339807,-3.2276211537778376
1759485808478035200,8.09503515625,1.3723185730352998,-9.163159788516163,-3.2130408397614953
1759485808488090400,8.10509033203125,1.3846701050862669,-9.164926798188686,-3.2026857422247526
1759485808498146300,8.115146240234376,1.3886295102365314,-9.166315622198582,-3.1969922067582606
1759485808508201500,8.125201416015624,1.3837193802326917,-9.168223501646517,-3.193648741549253
1759485808518256400,8.13525634765625,1.3711501137778161,-9.171039728111028,-3.1909833217322823
1759485808528311300,8.145311279296875,1.3547443378999828,-9.174231802150606,-3.18881503778249
1759485808538366200,8.1553662109375,1.3395115513242781,-9.17629341085553,-3.1893174343466755
1759485808548421400,8.16542138671875,1.3289438339501618,-9.176766873586176,-3.1923712689593433
1759485808558477300,8.175477294921874,1.3241826108977197,-9.176011671304702,-3.1965242969855665
1759485808568532200,8.1855322265625,1.3250985566988587,-9.174179195180535,-3.201398625023663
1759485808578587400,8.19558740234375,1.3300230074889958,-9.17189313006997,-3.2059020739227533
1759485808588642300,8.205642333984375,1.3364382813587783,-9.16988062120378,-3.208988349500298
1759485808598697500,8.215697509765626,1.3425348446682095,-9.168063342648743,-3.2116303884416815
1759485808608752000,8.225752197265624,1.3468337109059094,-9.166230282002687,-3.215068838457763
1759485808618808300,8.235808349609375,1.3486625337682663,-9.164700588217377,-3.2186563415557146
1759485808628863200,8.24586328125,1.347760324231535,-9.163861214783788,-3.2214275598347184
1759485808638918400,8.25591845703125,1.3445716111928223,-9.16366890708208,-3.223305044144392
1759485808648973300,8.265973388671876,1.339749597863853,-9.164293760982154,-3.2235350535079834
1759485808659028200,8.2760283203125,1.3345875389255581,-9.165669140988587,-3.2217665825307367
1759485808669083400,8.28608349609375,1.3302242291495203,-9.167015294900535,-3.2197391683563588
1759485808679139300,8.296139404296875,1.3273608025424182,-9.167966312015055,-3.2182141507461663
1759485808689194500,8.306194580078126,1.325528764809668,-9.168486536496877,-3.2174837906450033
1759485808699249200,8.316249267578126,1.324136287537962,-9.168811530667544,-3.217133662033081
1759485808709304300,8.32630419921875,1.3232030983410774,-9.169252260172367,-3.2162612631127234
1759485808719359500,8.336359375,1.3225612933062016,-9.169925044867396,-3.2146073584258557
1759485808729414100,8.3464140625,1.322413409268111,-9.170777277782559,-3.2122374144241213
1759485808739470300,8.35647021484375,1.3231697805933653,-9.171584502512216,-3.2096202176630495
1759485808749525200,8.366525146484374,1.3247941669248045,-9.172095374643803,-3.2074881740704178
1759485808759580400,8.376580322265625,1.326852999150753,-9.17200769636035,-3.206888746872544
1759485808769635300,8.38663525390625,1.3289125620290636,-9.17125892381966,-3.208175279551744
1759485808779690200,8.396690185546875,1.330366560229659,-9.170427149170637,-3.2099498880088326
1759485808789745400,8.406745361328126,1.330948451770842,-9.169797034573554,-3.211512315019965
1759485808799801300,8.41680126953125,1.3309732939511536,-9.169528739026187,-3.2122660559967158
1759485808809856500,8.4268564453125,1.3310526427976785,-9.169605895915627,-3.212010327669978
1759485808819911200,8.4369111328125,1.331795131728053,-9.169760794216394,-3.211256294432282
1759485808829966300,8.44696630859375,1.333358873913437,-9.169778914394975,-3.2105607133835554
1759485808840021200,8.457021240234376,1.3350750301815568,-9.169486068928242,-3.2106831707194448
1759485808850077400,8.467077392578124,1.3360668176978825,-9.168703394117951,-3.2125048331886528
1759485808860132000,8.477132080078125,1.3356900933399796,-9.167626704797149,-3.2157351934120055
1759485808870187300,8.487187255859375,1.3340199681706726,-9.166613728362321,-3.2193130518987774
1759485808880242400,8.497242431640625,1.3317274733193218,-9.165616534018517,-3.2230966620907187
1759485808890297300,8.50729736328125,1.3294587977349757,-9.164785343891381,-3.2263927810266613
1759485808900352300,8.517352294921874,1.3278512164078653,-9.164051184397936,-3.2291450023442505
1759485808910408200,8.527408203125,1.3269720954857767,-9.16312997789979,-3.2321175884142517
1759485808920463400,8.53746337890625,1.3266153910025953,-9.162132783555984,-3.235088128657639
1759485808930518300,8.547518310546875,1.3265111999757586,-9.161198717576264,-3.2377745912626383
1759485808940573200,8.5575732421875,1.3264920568838714,-9.160431824856996,-3.2399513507798314
1759485808950628400,8.56762841796875,1.3269301560401916,-9.16010741520822,-3.240690770970285
1759485808960683300,8.577683349609375,1.3285467974565923,-9.160283940818905,-3.2395319563239813
1759485808970739500,8.587739501953125,1.3313963416688144,-9.16066855622232,-3.2372748250469563
1759485808980794400,8.59779443359375,1.3349993345968425,-9.161165984350442,-3.23437676551789
1759485808990849300,8.607849365234374,1.338711340857297,-9.161682117179035,-3.231380214050412
1759485809000904400,8.617904541015625,1.3443201206497848,-9.16183935356736,-3.2286043195962906
1759485809010959400,8.62795947265625,1.353969115743786,-9.162156164431572,-3.2236692012816666
1759485809021014300,8.63801416015625,1.3673119969196617,-9.163015411609411,-3.215583802242577
1759485809031070200,8.6480703125,1.3822449237659573,-9.164678376385568,-3.2044463221564885
1759485809041125400,8.65812548828125,1.3941240159995854,-9.167384128212928,-3.1915321877866982
1759485809051180300,8.66818017578125,1.397357737223804,-9.170817609792946,-3.180233964180946
1759485809061235500,8.6782353515625,1.3876852151237427,-9.174013775485754,-3.175243316286802
1759485809071290400,8.688290283203125,1.3694273816384375,-9.176455907940865,-3.1761139616414904
1759485809081345300,8.69834521484375,1.349937083748728,-9.178326377987862,-3.1790549835294484
