time,seconds_elapsed,z,y,x
1759485800423832600,0.04083251953125,-0.1139611229300499,-0.015316369943320751,0.0035646227188408375
1759485800433887700,0.0508876953125,-0.09117802232503891,-0.00766183203086257,-0.005127073265612125
1759485800443942700,0.060942626953125,-0.0683925449848175,0.003270710352808237,-0.011671525426208973
1759485800453997600,0.07099755859375,-0.050855930894613266,0.009029745124280453,-0.019472818821668625
1759485800464052700,0.081052734375,-0.03793027624487877,0.015101219527423382,-0.017481841146945953
1759485800474108700,0.091108642578125,-0.03740382939577103,0.016615355387330055,-0.01568729430437088
1759485800484163800,0.101163818359375,-0.045554108917713165,0.010022304952144623,-0.011013821698725224
1759485800494218500,0.111218505859375,-0.06323882937431335,0.001143325469456613,-0.006965017877519131
1759485800504273700,0.121273681640625,-0.08104711771011353,-0.00858413614332676,-0.0011571962386369705
1759485800514328800,0.131328857421875,-0.08502456545829773,-0.005817953031510115,0.009007526561617851
1759485800524384800,0.141384765625,-0.08270228654146194,-0.002405378734692931,0.018542176112532616
1759485800534439700,0.151439697265625,-0.07697685807943344,0.002849078271538019,0.03402257710695267
1759485800544494600,0.16149462890625,-0.08533066511154175,0.0025201779790222645,0.042987044900655746
1759485800554549800,0.1715498046875,-0.10241040587425232,0.02067345567047596,0.052733924239873886
1759485800564604700,0.181604736328125,-0.12530240416526794,0.041602972894907,0.051337096840143204
1759485800574660600,0.19166064453125,-0.13215939700603485,0.06291649490594864,0.041217438876628876
1759485800584715500,0.201715576171875,-0.12092964351177216,0.0985647663474083,0.028084591031074524
1759485800594770700,0.211770751953125,-0.0741073414683342,0.14145566523075104,0.028453443199396133
1759485800604825900,0.221825927734375,-0.05096874013543129,0.14581072330474854,0.03156481310725212
1759485800614880500,0.231880615234375,-0.06058149412274361,0.09604299068450928,0.0323108471930027
1759485800624936700,0.241936767578125,-0.07463397085666656,0.01995638571679592,0.04240303486585617
1759485800634991600,0.25199169921875,-0.10438494384288788,-0.0538744293153286,0.05539100617170334
1759485800645046800,0.262046875,-0.13502122461795807,-0.1039113998413086,0.05051456391811371
1759485800655101400,0.272101318359375,-0.15107609331607819,-0.12060941755771637,0.0271860733628273
1759485800665156600,0.282156494140625,-0.1476387232542038,-0.08947432786226273,0.0030834635253995657
1759485800675212500,0.292212646484375,-0.11444029211997986,-0.011442909017205238,0.0033274090383201838
1759485800685267700,0.302267822265625,-0.07692348212003708,0.05078568682074547,0.010583117604255676
1759485800695322600,0.312322509765625,-0.042171090841293335,0.082590751349926,0.035787273198366165
1759485800705377500,0.32237744140625,-0.02441917173564434,0.07241073250770569,0.056885626167058945
1759485800715432700,0.3324326171875,-0.021805545315146446,0.045510683208703995,0.08353188633918762
1759485800725488600,0.342488525390625,-0.04918297380208969,0.0008436256321147084,0.10310037434101105
1759485800735543800,0.352543701171875,-0.06466739624738693,-0.012035422027111053,0.12632952630519867
1759485800745598500,0.362598388671875,-0.06768013536930084,-0.009238647297024727,0.13465616106987
1759485800755653600,0.372653564453125,-0.06019718572497368,0.003203641390427947,0.1221906989812851
1759485800765708800,0.382708740234375,-0.030653763562440872,0.030443303287029266,0.09043281525373459
1759485800775764700,0.3927646484375,-0.030976271256804466,0.09038706123828888,0.05728498101234436
1759485800785819600,0.402819580078125,0.0014668889343738556,0.1271434873342514,0.02149023301899433
1759485800795874600,0.41287451171875,0.055122289806604385,0.117510125041008,0.008201236836612225
1759485800805929700,0.4229296875,0.045787911862134933,0.07366490364074707,0.0011036465875804424
1759485800815984600,0.432984619140625,0.010809388011693954,0.0502292700111866,0.00798705779016018
1759485800826039600,0.44303955078125,0.015247812494635582,0.016639351844787598,0.005898074246942997
1759485800836095500,0.453095458984375,0.038416601717472076,-0.0012483814498409629,-0.015614952892065048
1759485800846150700,0.463150634765625,0.029936831444501877,0.014397689141333103,-0.03923159837722778
1759485800856205800,0.473205810546875,0.007249097339808941,0.038573067635297775,-0.05720260739326477
1759485800866260700,0.4832607421875,-0.019322693347930908,0.053886547684669495,-0.05881943553686142
1759485800876315600,0.493315673828125,-0.02559630200266838,0.03454853594303131,-0.05220707505941391
1759485800886371600,0.50337158203125,-0.005506480578333139,0.005313154309988022,-0.03515804558992386
1759485800896426800,0.5134267578125,0.02350599318742752,-0.00586730008944869,-0.017217697575688362
1759485800906481700,0.523481689453125,0.051220979541540146,0.013382826931774616,-0.011541968211531639
1759485800916536600,0.53353662109375,0.07022198289632797,0.049149613827466965,-0.011408062651753426
1759485800926591700,0.543591796875,0.06300348788499832,0.07685554027557373,-0.01293938048183918
1759485800936647700,0.553647705078125,0.041447754949331284,0.08887288719415665,-0.020908977836370468
1759485800946702600,0.56370263671875,0.02355264499783516,0.09538724273443222,-0.026186563074588776
1759485800956757500,0.573757568359375,0.011833849363029003,0.09731888771057129,-0.026494648307561874
1759485800966812700,0.583812744140625,0.006080019753426313,0.08727016299962997,-0.028429728001356125
1759485800976867600,0.59386767578125,0.010963458567857742,0.07915177941322327,-0.02462061122059822
1759485800986923800,0.603923828125,0.027896884828805923,0.0796327069401741,-0.015729142352938652
1759485800996978700,0.613978759765625,0.052278921008110046,0.0859699621796608,-0.010559147223830223
1759485801007033600,0.62403369140625,0.06282249838113785,0.09494049847126007,-0.0027738078497350216
1759485801017088800,0.6340888671875,0.05859046056866646,0.09044428169727325,-0.00879281759262085
1759485801027143700,0.644143798828125,0.059319015592336655,0.10601162910461426,-0.004073720425367355
1759485801037199600,0.65419970703125,0.05279001221060753,0.09055810421705246,-0.0015607615932822227
1759485801047254500,0.664254638671875,0.04676509648561478,0.07470235228538513,-0.0008658035658299923
1759485801057309700,0.674309814453125,0.042602039873600006,0.0626656636595726,-0.002012027893215418
1759485801067364600,0.684364501953125,0.05222859978675842,0.06047925725579262,-0.012646200135350227
1759485801077419800,0.694419677734375,0.0763200893998146,0.08078107237815857,-0.015063019469380379
1759485801087475500,0.704475341796875,0.09275969117879868,0.08870648592710495,-0.01632644608616829
1759485801097530600,0.714530517578125,0.10157688707113266,0.10882719606161118,-0.013372467830777168
1759485801107585800,0.724585693359375,0.10647637397050858,0.12476553022861481,-0.01563296467065811
1759485801117640700,0.734640625,0.11092492192983627,0.14517466723918915,-0.016843903809785843
1759485801127695600,0.744695556640625,0.11137907952070236,0.15272891521453857,-0.015055869705975056
1759485801137751600,0.75475146484375,0.11606144905090332,0.15199175477027893,-0.00801527127623558
1759485801147806700,0.764806640625,0.11936510354280472,0.13848845660686493,-0.0024604499340057373
1759485801157861400,0.774861328125,0.12215786427259445,0.12751421332359314,-0.002841306384652853
1759485801167916500,0.78491650390625,0.12788687646389008,0.12582816183567047,-0.009571647271513939
1759485801177971700,0.7949716796875,0.13926370441913605,0.1285170465707779,-0.025119956582784653
1759485801188026600,0.805026611328125,0.153408020734787,0.1386924535036087,-0.04122036322951317
1759485801198082600,0.81508251953125,0.17217345535755157,0.15776309370994568,-0.05929869785904884
1759485801208137500,0.825137451171875,0.19608651101589203,0.18438351154327393,-0.07153299450874329
1759485801218192600,0.835192626953125,0.23365026712417603,0.21296456456184387,-0.0747225433588028
1759485801228247600,0.84524755859375,0.27461662888526917,0.24613156914710999,-0.07166337966918945
1759485801238302500,0.855302490234375,0.31815317273139954,0.2860741913318634,-0.06446777284145355
1759485801248358400,0.8653583984375,0.3651406764984131,0.32432156801223755,-0.06500560790300369
1759485801258413600,0.87541357421875,0.4198375642299652,0.36265257000923157,-0.06685548275709152
1759485801268468700,0.88546875,0.4946715831756592,0.44269174337387085,-0.052134595811367035
1759485801278523600,0.895523681640625,0.5692968964576721,0.5285162329673767,-0.03611040115356445
1759485801288578600,0.90557861328125,0.6223177909851074,0.5826892852783203,-0.031273603439331055
1759485801298634500,0.915634521484375,0.6330117583274841,0.6269398331642151,-0.02872442454099655
1759485801308689700,0.925689697265625,0.6212767958641052,0.6534484028816223,-0.040960852056741714
1759485801318744600,0.93574462890625,0.6010666489601135,0.6376775503158569,-0.07070393860340118
1759485801328799500,0.945799560546875,0.5583778023719788,0.6234725117683411,-0.09910415858030319
1759485801338854700,0.955854736328125,0.5083863139152527,0.6181716918945312,-0.0971084013581276
1759485801348910600,0.96591064453125,0.47307226061820984,0.5719023942947388,-0.0815332904458046
1759485801358965800,0.9759658203125,0.4305415749549866,0.49823346734046936,-0.05426758527755737
1759485801369020400,0.9860205078125,0.3801099956035614,0.44907185435295105,-0.01764950528740883
1759485801379075600,0.99607568359375,0.323991060256958,0.4164135158061981,0.005961281713098288
1759485801389130500,1.006130615234375,0.260574072599411,0.3870014250278473,0.009091585874557495
1759485801399186700,1.016186767578125,0.2004588097333908,0.33164602518081665,-0.003655634354799986
1759485801409241600,1.02624169921875,0.14947617053985596,0.2715512812137604,-0.008149366825819016
1759485801419296500,1.036296630859375,0.09652028232812881,0.21816898882389069,-0.007097951602190733
1759485801429351700,1.0463515625,0.056638989597558975,0.18850472569465637,-0.015147663652896881
1759485801439406600,1.056406494140625,0.040388111025094986,0.17512287199497223,-0.037864431738853455
1759485801449462500,1.066462646484375,0.04490917548537254,0.16731733083724976,-0.06494646519422531
1759485801459517400,1.076517333984375,0.05649685487151146,0.16114945709705353,-0.09476640820503235
1759485801469572600,1.086572509765625,0.07477980852127075,0.15087884664535522,-0.12112768739461899
1759485801479627500,1.09662744140625,0.09383286535739899,0.13932259380817413,-0.14115464687347412
1759485801489682700,1.1066826171875,0.11118262261152267,0.11367462575435638,-0.15429559350013733
1759485801499738400,1.11673828125,0.12533918023109436,0.10154899209737778,-0.16382917761802673
1759485801509793500,1.12679345703125,0.12929993867874146,0.100794717669487,-0.17028729617595673
1759485801519848700,1.1368486328125,0.12988637387752533,0.11974656581878662,-0.19580623507499695
1759485801529903600,1.146903564453125,0.13175244629383087,0.15645743906497955,-0.2304406464099884
1759485801539958500,1.15695849609375,0.14091277122497559,0.19557657837867737,-0.25905728340148926
1759485801550014500,1.167014404296875,0.1434001624584198,0.20410989224910736,-0.2690761089324951
1759485801560069600,1.177069580078125,0.11915424466133118,0.20848685503005981,-0.25454097986221313
1759485801570124500,1.18712451171875,0.11082493513822556,0.15978163480758667,-0.2567189335823059
1759485801580179700,1.1971796875,0.12089882791042328,0.11964529752731323,-0.2605726718902588
1759485801590234600,1.207234619140625,0.11741781234741211,0.08288302272558212,-0.2654726207256317
1759485801600289500,1.21728955078125,0.12323831766843796,0.0942598506808281,-0.25594282150268555
1759485801610345700,1.227345703125,0.12511372566223145,0.14028114080429077,-0.27838394045829773
1759485801620400600,1.237400634765625,0.11640044301748276,0.18198846280574799,-0.30445316433906555
1759485801630455600,1.24745556640625,0.0864819586277008,0.25859349966049194,-0.30087199807167053
1759485801640510500,1.257510498046875,0.09350162744522095,0.3012296259403229,-0.290447860956192
1759485801650565600,1.267565673828125,0.11457815021276474,0.29886817932128906,-0.2689793109893799
1759485801660621600,1.27762158203125,0.1598338782787323,0.2817453444004059,-0.25063326954841614
1759485801670676500,1.287676513671875,0.20335446298122406,0.2993488311767578,-0.2504865229129791
1759485801680731600,1.297731689453125,0.1975652426481247,0.3531307280063629,-0.21172401309013367
1759485801690786600,1.30778662109375,0.15994463860988617,0.38102975487709045,-0.1711566150188446
1759485801700841700,1.317841796875,0.15306177735328674,0.3725741505622864,-0.12702244520187378
1759485801710897700,1.327897705078125,0.17728883028030396,0.3603217303752899,-0.06915941834449768
1759485801720952600,1.33795263671875,0.17909599840641022,0.33536431193351746,-0.022288471460342407
1759485801731007500,1.348007568359375,0.16545802354812622,0.3126482367515564,0.02115057222545147
1759485801741062700,1.358062744140625,0.16133970022201538,0.24434320628643036,0.0334961861371994
1759485801751117600,1.36811767578125,0.14843347668647766,0.13304436206817627,0.019812267273664474
1759485801761173500,1.378173583984375,0.14715754985809326,0.022613197565078735,0.00721365213394165
1759485801771228700,1.388228759765625,0.16080422699451447,-0.10230457037687302,-0.0063239410519599915
1759485801781283600,1.39828369140625,0.18186824023723602,-0.19261875748634338,-0.011239870451390743
1759485801791338800,1.4083388671875,0.20178182423114777,-0.21793489158153534,-0.015638921409845352
1759485801801393400,1.418393310546875,0.23428384959697723,-0.20787079632282257,-0.04780964180827141
1759485801811449600,1.42844970703125,0.26076871156692505,-0.08134797215461731,-0.0810009241104126
1759485801821504500,1.43850439453125,0.3102262616157532,0.09237454831600189,-0.12505386769771576
1759485801831559700,1.4485595703125,0.3525221645832062,0.15565034747123718,-0.16321633756160736
1759485801841614600,1.458614501953125,0.3966776430606842,0.1962539702653885,-0.14109452068805695
1759485801851669500,1.46866943359375,0.44660207629203796,0.20235347747802734,-0.10129571706056595
1759485801861725700,1.4787255859375,0.4935634434223175,0.1602715402841568,-0.054891206324100494
1759485801871780600,1.488780517578125,0.5337738394737244,0.08271275460720062,-0.03034069761633873
1759485801881835500,1.49883544921875,0.5678572654724121,0.06325090676546097,-0.024492129683494568
1759485801891890400,1.508890380859375,0.5885893106460571,0.10938425362110138,-0.024223197251558304
1759485801901945600,1.518945556640625,0.5985218286514282,0.2012321501970291,-0.017841197550296783
1759485801912001500,1.52900146484375,0.5909661650657654,0.33634576201438904,0.02862430363893509
1759485801922056700,1.539056640625,0.6189957857131958,0.47632527351379395,0.12331750988960266
1759485801932111600,1.549111572265625,0.6418089866638184,0.5408398509025574,0.2130843997001648
1759485801942166500,1.55916650390625,0.6114581823348999,0.678746223449707,0.33448392152786255
1759485801952221700,1.5692216796875,0.6087361574172974,0.6947542428970337,0.38339659571647644
1759485801962276400,1.5792763671875,0.6091257333755493,0.6263969540596008,0.37016740441322327
1759485801972332500,1.58933251953125,0.5676275491714478,0.5786371231079102,0.31517499685287476
1759485801982387500,1.599387451171875,0.47778990864753723,0.5250334143638611,0.2620103359222412
1759485801992442600,1.609442626953125,0.3477906286716461,0.3826930522918701,0.20130518078804016
1759485802002497800,1.619497802734375,0.24790070950984955,0.19389227032661438,0.12924401462078094
1759485802012552400,1.629552490234375,0.12373239547014236,0.09532815963029861,0.03721076622605324
1759485802022608600,1.639608642578125,0.0140110794454813,0.0037923853378742933,-0.09104682505130768
1759485802032663600,1.64966357421875,-0.04026361182332039,0.04862510412931442,-0.18600395321846008
1759485802042718700,1.65971875,-0.07394328713417053,0.04254480078816414,-0.24466857314109802
1759485802052773400,1.6697734375,-0.08108455687761307,-0.026149841025471687,-0.2178417444229126
1759485802062828500,1.67982861328125,0.023750457912683487,-0.15897886455059052,-0.21648582816123962
1759485802072884500,1.689884521484375,0.07528555393218994,-0.2837218642234802,-0.20016518235206604
1759485802082939600,1.699939697265625,0.02793063409626484,-0.27662089467048645,-0.16478675603866577
1759485802092994800,1.709994873046875,-0.021968750283122063,-0.16025274991989136,-0.10721560567617416
1759485802103049500,1.720049560546875,-0.09948898106813431,-0.130593940615654,-0.10785461217164993
1759485802113104600,1.730104736328125,-0.1508408635854721,-0.0638652816414833,-0.18408310413360596
1759485802123160600,1.74016064453125,-0.09389768540859222,-0.06580512225627899,-0.25616610050201416
1759485802133215700,1.7502158203125,-0.08573111146688461,-0.08305789530277252,-0.26480117440223694
1759485802143270400,1.7602705078125,-0.14363010227680206,-0.07338369637727737,-0.23610323667526245
1759485802153325600,1.77032568359375,-0.1982002854347229,-0.12785661220550537,-0.22968332469463348
1759485802163380700,1.780380615234375,-0.2070326805114746,-0.1867058128118515,-0.1944800615310669
1759485802173436700,1.790436767578125,-0.1842629760503769,-0.15506327152252197,-0.1341349184513092
1759485802183491600,1.80049169921875,-0.16613323986530304,-0.08152993768453598,-0.06127376854419708
1759485802193546500,1.81054638671875,-0.16274429857730865,-0.022139746695756912,-0.01749386638402939
1759485802203601700,1.8206015625,-0.13556328415870667,-0.038048405200242996,0.037574976682662964
1759485802213656300,1.83065625,-0.09678752720355988,-0.012547854334115982,0.09086631238460541
1759485802223712500,1.84071240234375,-0.04543139412999153,-0.021604733541607857,0.13794754445552826
1759485802233767400,1.850767333984375,-0.001060006208717823,0.0017827684059739113,0.16727720201015472
1759485802243822600,1.860822509765625,-0.006823353003710508,0.048166513442993164,0.18543410301208496
1759485802253877800,1.870877685546875,-0.004607339855283499,0.0741884857416153,0.18329322338104248
1759485802263932400,1.880932373046875,-0.04108066111803055,0.09522213786840439,0.13141325116157532
1759485802273988600,1.890988525390625,-0.13524684309959412,0.09084150195121765,0.07489457726478577
1759485802284043500,1.90104345703125,-0.18739525973796844,0.04023505374789238,0.014267717488110065
1759485802294098700,1.9110986328125,-0.20949390530586243,-0.019802184775471687,-0.03211016580462456
1759485802304153300,1.9211533203125,-0.2437676042318344,-0.0287320576608181,-0.0772906094789505
1759485802314208500,1.93120849609375,-0.2896677255630493,-0.012943507172167301,-0.12427011132240295
1759485802324263700,1.941263671875,-0.33834147453308105,0.022444937378168106,-0.1598929464817047
1759485802334319600,1.951319580078125,-0.3901926875114441,0.11900023370981216,-0.16491086781024933
1759485802344374500,1.96137451171875,-0.45620596408843994,0.23347854614257812,-0.1490437239408493
1759485802354429400,1.971429443359375,-0.510980486869812,0.3191625773906708,-0.1205526813864708
1759485802364484600,1.981484619140625,-0.5456205010414124,0.39791762828826904,-0.08829963952302933
1759485802374539500,1.99153955078125,-0.5803989768028259,0.4336226284503937,-0.06713788956403732
1759485802384595700,2.001595703125,-0.6164833307266235,0.4387627840042114,-0.06799837946891785
1759485802394650400,2.011650390625,-0.6795454025268555,0.4792124927043915,-0.06974807381629944
1759485802404705500,2.02170556640625,-0.726843535900116,0.6097249984741211,-0.045388028025627136
1759485802414760700,2.0317607421875,-0.6923584938049316,0.6649925112724304,-0.029258325695991516
1759485802424815400,2.0418154296875,-0.5132993459701538,0.4587324857711792,-0.0858602523803711
1759485802434871600,2.05187158203125,-0.5546470880508423,0.43066462874412537,-0.10603316128253937
1759485802444926500,2.061926513671875,-0.717951238155365,0.45227667689323425,-0.1423352211713791
1759485802454981600,2.071981689453125,-0.7844301462173462,0.5095130801200867,-0.1462833434343338
1759485802465036500,2.08203662109375,-0.8152130842208862,0.5956631898880005,-0.07456372678279877
1759485802475091500,2.092091552734375,-0.8245964050292969,0.622717022895813,0.03959842771291733
1759485802485147400,2.1021474609375,-0.7963618040084839,0.5492436289787292,0.12494075298309326
1759485802495202600,2.11220263671875,-0.7009270787239075,0.42554861307144165,0.1819099336862564
1759485802505257700,2.1222578125,-0.6127756237983704,0.29329416155815125,0.28659215569496155
1759485802515312400,2.1323125,-0.48821550607681274,0.17446592450141907,0.45622482895851135
1759485802525367600,2.142367431640625,-0.3354896008968353,-0.03640848770737648,0.6123046875
1759485802535423500,2.152423583984375,-0.195211261510849,-0.11865315586328506,0.7755686044692993
1759485802545478700,2.162478759765625,-0.0860152617096901,-0.1445244401693344,0.9265381693840027
1759485802555533600,2.172533447265625,0.029394909739494324,-0.23597055673599243,1.042121410369873
1759485802565588500,2.18258837890625,0.16834135353565216,-0.3193940818309784,1.1783920526504517
1759485802575643600,2.1926435546875,0.314329594373703,-0.4624587893486023,1.3090120553970337
1759485802585698600,2.202698486328125,0.43573829531669617,-0.6004357933998108,1.4390244483947754
1759485802595754500,2.21275439453125,0.5294691920280457,-0.6422904133796692,1.585863709449768
1759485802605809400,2.222809326171875,0.6315697431564331,-0.622053861618042,1.692870855331421
1759485802615864600,2.232864501953125,0.6833981275558472,-0.6290699243545532,1.74656081199646
1759485802625919500,2.24291943359375,0.7023449540138245,-0.7597576379776001,1.7771085500717163
1759485802635974700,2.252974609375,0.6760202646255493,-0.9790266752243042,1.8106006383895874
1759485802646030300,2.2630302734375,0.6267184615135193,-1.0909239053726196,1.8966641426086426
1759485802656085500,2.27308544921875,0.5694200396537781,-1.1720139980316162,1.9593701362609863
1759485802666140700,2.283140625,0.5584091544151306,-1.1861828565597534,2.004612445831299
1759485802676195600,2.293195556640625,0.5468600392341614,-1.0928428173065186,2.054460287094116
1759485802686250500,2.30325048828125,0.50924152135849,-1.0355733633041382,2.0091521739959717
1759485802696306400,2.313306396484375,0.458236962556839,-1.1542103290557861,1.8894978761672974
1759485802706361600,2.323361572265625,0.4422757923603058,-1.2511245012283325,1.8092097043991089
1759485802716416500,2.33341650390625,0.6920357942581177,-1.1146835088729858,1.872565507888794
1759485802726471400,2.343471435546875,0.9792541265487671,-1.3024697303771973,1.7007502317428589
1759485802736526600,2.353526611328125,1.2180895805358887,-1.173600196838379,1.652111291885376
1759485802746582500,2.36358251953125,1.5209184885025024,-1.1391117572784424,1.6021147966384888
1759485802756637700,2.3736376953125,1.7608709335327148,-1.0267233848571777,1.620238184928894
1759485802766692600,2.383692626953125,1.9782828092575073,-0.9439108967781067,1.597712755203247
1759485802776747500,2.39374755859375,2.11283540725708,-1.0533963441848755,1.491707444190979
1759485802786802400,2.403802490234375,2.1738007068634033,-1.5700536966323853,1.4004294872283936
1759485802796858600,2.413858642578125,2.139558792114258,-1.9842023849487305,1.4215389490127563
1759485802806913500,2.42391357421875,2.0804288387298584,-2.2782845497131348,1.389404296875
1759485802816968400,2.433968505859375,2.0439095497131348,-2.5904862880706787,1.3002464771270752
1759485802827023600,2.444023681640625,2.028745412826538,-2.8196828365325928,1.1826990842819214
1759485802837078500,2.45407861328125,2.0485634803771973,-2.9037680625915527,1.1234556436538696
1759485802847134500,2.464134521484375,2.039121389389038,-2.8309402465820312,1.1297597885131836
1759485802857189400,2.474189453125,1.9466934204101562,-2.8707351684570312,1.1021740436553955
1759485802867244500,2.48424462890625,1.8793777227401733,-2.8482415676116943,1.1183178424835205
1759485802877299500,2.494299560546875,1.7935963869094849,-2.945836305618286,1.07582688331604
1759485802887354600,2.504354736328125,1.7353746891021729,-3.0739617347717285,1.0225287675857544
1759485802897409500,2.514409423828125,1.675903081893921,-3.088552474975586,0.9862063527107239
1759485802907465500,2.524465576171875,1.5335134267807007,-3.037827968597412,0.8966636657714844
1759485802917520600,2.534520751953125,1.3502914905548096,-2.886624336242676,0.8352480530738831
1759485802927575600,2.544575439453125,1.1731635332107544,-2.6747384071350098,0.7591761946678162
1759485802937630500,2.55463037109375,1.033798098564148,-2.497446060180664,0.6748160123825073
1759485802947685400,2.564685302734375,0.9326674938201904,-2.199504852294922,0.6105440855026245
1759485802957741600,2.574741455078125,0.8598516583442688,-1.8679734468460083,0.48078006505966187
1759485802967796500,2.58479638671875,0.7980780601501465,-1.490166187286377,0.32631218433380127
1759485802977851600,2.5948515625,0.7288454174995422,-1.0276912450790405,0.1826099157333374
1759485802987906600,2.604906494140625,0.681038498878479,-0.551477313041687,0.07264745235443115
1759485802997961500,2.61496142578125,0.6489292979240417,-0.17588013410568237,-0.03872178494930267
1759485803008017700,2.625017578125,0.5998491048812866,0.26364874839782715,-0.09630651772022247
1759485803018072600,2.635072509765625,0.554019033908844,0.5904231667518616,-0.14777876436710358
1759485803028127500,2.64512744140625,0.5039709806442261,0.837770402431488,-0.2053031027317047
1759485803038182400,2.655182373046875,0.46992090344429016,0.9820783138275146,-0.24136176705360413
1759485803048237600,2.665237548828125,0.42266029119491577,1.0937763452529907,-0.2933046817779541
1759485803058293500,2.67529345703125,0.34125998616218567,1.1775988340377808,-0.37772130966186523
1759485803068348700,2.6853486328125,0.2520092725753784,1.2531019449234009,-0.5126889944076538
1759485803078403600,2.695403564453125,0.1731187254190445,1.3060722351074219,-0.635368287563324
1759485803088458500,2.70545849609375,0.021327706053853035,1.4057538509368896,-0.6992647051811218
1759485803098513700,2.715513671875,-0.17284522950649261,1.409669280052185,-0.8191247582435608
1759485803108569600,2.725569580078125,-0.37732571363449097,1.512372612953186,-0.9077271819114685
1759485803118624500,2.73562451171875,-0.5169925093650818,1.458673357963562,-1.056674838066101
1759485803128679400,2.745679443359375,-0.421106219291687,1.0059587955474854,-0.8731873035430908
1759485803138734600,2.755734619140625,-0.3108103275299072,-0.311102032661438,-0.3003980815410614
1759485803148789800,2.765789794921875,-0.6266376376152039,-0.4651399850845337,-0.5917197465896606
1759485803158843600,2.77584375,-0.7945390343666077,0.21762393414974213,-1.311046838760376
1759485803168899800,2.78589990234375,-0.8582061529159546,0.45557576417922974,-1.5987310409545898
1759485803178954500,2.79595458984375,-0.9261392951011658,0.0656905248761177,-1.511522650718689
1759485803189009700,2.806009765625,-1.1941843032836914,0.1100153774023056,-1.7299063205718994
1759485803199064800,2.81606494140625,-1.4702484607696533,0.3860110342502594,-1.7232290506362915
1759485803209119500,2.826119384765625,-1.4424597024917603,0.6310449838638306,-1.6173652410507202
1759485803219175700,2.83617578125,-1.284504771232605,0.7985607385635376,-1.4223510026931763
1759485803229230600,2.846230712890625,-1.1288286447525024,1.010101079940796,-1.2894352674484253
1759485803239285800,2.85628564453125,-0.9872190952301025,1.4137507677078247,-1.2333641052246094
1759485803249340700,2.866340576171875,-0.8569119572639465,1.8350188732147217,-1.2383586168289185
1759485803259395600,2.8763955078125,-0.7932625412940979,2.173595428466797,-1.2182437181472778
1759485803269451500,2.886451416015625,-0.7756537199020386,2.3913586139678955,-1.1522058248519897
1759485803279506700,2.896506591796875,-0.7524839043617249,2.52744197845459,-1.0554447174072266
1759485803289561900,2.906561767578125,-0.7382410168647766,2.522648572921753,-0.9828792214393616
1759485803299616500,2.916616455078125,-0.7616702914237976,2.442095994949341,-0.9324558973312378
1759485803309671700,2.926671630859375,-0.8084356784820557,2.3375656604766846,-0.8917673230171204
1759485803319727600,2.9367275390625,-0.8472743034362793,2.23030948638916,-0.8570672273635864
1759485803329782800,2.94678271484375,-0.8729397058486938,2.1833813190460205,-0.8094160556793213
1759485803339837400,2.95683740234375,-0.8816290497779846,2.2062106132507324,-0.7577064633369446
1759485803349892600,2.966892578125,-0.9704933762550354,2.27058482170105,-0.7020298838615417
1759485803359947800,2.97694775390625,-1.0125422477722168,2.276073694229126,-0.6850249171257019
1759485803370003700,2.987003662109375,-1.0541296005249023,2.1879496574401855,-0.6147997379302979
1759485803380059000,2.997058837890625,-1.1540476083755493,1.8893909454345703,-0.5598779320716858
1759485803390113500,3.007113525390625,-1.237635612487793,1.4472944736480713,-0.6388342380523682
1759485803400168700,3.017168701171875,-1.2485085725784302,0.9254938960075378,-0.8172529935836792
1759485803410223600,3.0272236328125,-1.146470546722412,0.6298003196716309,-0.9681100249290466
1759485803420278500,3.037278564453125,-0.9700318574905396,0.6439467668533325,-1.0357012748718262
1759485803430334500,3.04733447265625,-0.7982849478721619,0.7152035236358643,-1.0036218166351318
1759485803440389600,3.0573896484375,-0.670063316822052,0.7647455334663391,-0.9396579265594482
1759485803450444800,3.06744482421875,-0.5746316909790039,0.6971044540405273,-0.9180582165718079
1759485803460499700,3.077499755859375,-0.47992756962776184,0.4490765631198883,-0.9705755114555359
1759485803470554600,3.0875546875,-0.37631961703300476,0.20491619408130646,-1.1039836406707764
1759485803480610600,3.097610595703125,-0.29610520601272583,0.08816028386354446,-1.1895904541015625
1759485803490665700,3.107665771484375,-0.20646673440933228,0.15434794127941132,-1.2185249328613281
1759485803500720600,3.117720703125,-0.08384521305561066,0.3673124313354492,-1.2645647525787354
1759485803510775600,3.127775634765625,0.06066145747900009,0.6868583559989929,-1.2862772941589355
1759485803520830700,3.137830810546875,0.1849762201309204,0.9081598520278931,-1.2663575410842896
1759485803530886700,3.14788671875,0.2954302132129669,1.0256117582321167,-1.1671382188796997
1759485803540941800,3.15794189453125,0.41668152809143066,0.9707759022712708,-1.0817649364471436
1759485803550996500,3.16799658203125,0.5689117312431335,0.9570322632789612,-0.9458091855049133
1759485803561051600,3.1780517578125,0.7473997473716736,0.8248595595359802,-0.8343750834465027
1759485803571106600,3.1881064453125,0.7448990941047668,0.5211028456687927,-0.7894703149795532
1759485803581162800,3.198162841796875,0.5752285718917847,0.48039934039115906,-0.7367503643035889
1759485803591217700,3.2082177734375,0.4049931466579437,0.6615229845046997,-0.7844257354736328
1759485803601272600,3.2182724609375,0.30612754821777344,0.9955922961235046,-0.8325594663619995
1759485803611327700,3.22832763671875,0.1286446750164032,1.160081386566162,-0.8542834520339966
1759485803621382700,3.238382568359375,-0.0967913419008255,0.9600064158439636,-0.7895941734313965
1759485803631437600,3.2484375,-0.2838192880153656,0.566143810749054,-0.6553164720535278
1759485803641493500,3.258493408203125,-0.30262237787246704,0.2527039349079132,-0.4945215582847595
1759485803651548700,3.268548583984375,-0.25920912623405457,0.10217594355344772,-0.3272087574005127
1759485803661603600,3.278603515625,-0.13388721644878387,-0.008903052657842636,-0.19194912910461426
1759485803671658800,3.28865869140625,-0.09295124560594559,-0.18598169088363647,-0.07266402989625931
1759485803681713700,3.298713623046875,-0.10683806985616684,-0.3578382730484009,0.09863891452550888
1759485803691769600,3.30876953125,-0.10397836565971375,-0.42690521478652954,0.27277451753616333
1759485803701824800,3.31882470703125,-0.058761149644851685,-0.3438471853733063,0.3768317401409149
1759485803711879700,3.328879638671875,-0.01107858121395111,-0.31054940819740295,0.42875272035598755
1759485803721934600,3.3389345703125,0.03216402605175972,-0.2194654643535614,0.4262644648551941
1759485803731989500,3.348989501953125,0.06915107369422913,-0.13835623860359192,0.3726973831653595
1759485803742045700,3.359045654296875,0.07352212816476822,-0.08607245236635208,0.2595710754394531
1759485803752100600,3.3691005859375,0.02405470982193947,-0.0518425814807415,0.06705968827009201
1759485803762155800,3.37915576171875,-0.0994969978928566,0.0007858468452468514,-0.17306829988956451
1759485803772210700,3.389210693359375,-0.24558016657829285,0.10472982376813889,-0.43788158893585205
1759485803782265600,3.399265625,-0.3798748552799225,0.263662189245224,-0.6567473411560059
1759485803792321800,3.40932177734375,-0.5132544636726379,0.43677806854248047,-0.8383323550224304
1759485803802376700,3.419376708984375,-0.648100733757019,0.596401035785675,-0.9775466918945312
1759485803812431600,3.429431640625,-0.7224583029747009,0.6976674199104309,-1.0689966678619385
1759485803822486500,3.439486572265625,-0.7096028923988342,0.7306311726570129,-1.0917779207229614
1759485803832541700,3.449541748046875,-0.603037416934967,0.802875816822052,-1.0451748371124268
1759485803842597600,3.45959765625,-0.5749972462654114,0.6046812534332275,-1.0110013484954834
1759485803852652500,3.469652587890625,-0.6455129981040955,0.5072521567344666,-0.9638766050338745
1759485803862707700,3.479707763671875,-0.7496963739395142,0.6343810558319092,-0.9063845276832581
1759485803872762600,3.4897626953125,-0.8343344330787659,0.7695478796958923,-0.8051339983940125
1759485803882817800,3.49981787109375,-0.8635612726211548,0.7239750623703003,-0.5986564755439758
1759485803892872400,3.50987255859375,-0.788782000541687,0.5183494687080383,-0.3116399645805359
1759485803902928600,3.5199287109375,-0.6297129988670349,0.2533034384250641,0.019088666886091232
1759485803912983600,3.529983642578125,-0.4564003646373749,-0.08992110937833786,0.3467729687690735
1759485803923038700,3.540038818359375,-0.3065570890903473,-0.47844675183296204,0.6135072112083435
1759485803933093600,3.55009375,-0.16585393249988556,-0.8099920153617859,0.8268554210662842
1759485803943148500,3.5601484375,-0.0466335266828537,-1.0738826990127563,1.0096627473831177
1759485803953204700,3.570204833984375,0.030930321663618088,-1.2611430883407593,1.1822129487991333
1759485803963259600,3.580259765625,0.07840090245008469,-1.3400003910064697,1.3553708791732788
1759485803973314800,3.590314697265625,0.13924168050289154,-1.232445240020752,1.5765788555145264
1759485803983369500,3.600369384765625,0.2256716638803482,-1.093021035194397,1.7968077659606934
1759485803993424600,3.610424560546875,0.3500588536262512,-0.991939127445221,1.96426522731781
1759485804003480600,3.62048046875,0.47564390301704407,-0.9774612188339233,2.0517756938934326
1759485804013535700,3.63053564453125,0.6325322985649109,-0.9942780137062073,2.105618715286255
1759485804023590700,3.640590576171875,0.7839775681495667,-0.7957504391670227,2.1829614639282227
1759485804033645600,3.6506455078125,0.8894331455230713,-0.4400327801704407,2.253417491912842
1759485804043700700,3.66070068359375,0.9451547265052795,-0.08261623233556747,2.2641167640686035
1759485804053756700,3.670756591796875,0.9355607032775879,0.23104368150234222,2.220489740371704
1759485804063811600,3.6808115234375,0.8922727108001709,0.4042518734931946,2.1979990005493164
1759485804073866500,3.690866455078125,0.8097208738327026,0.31942111253738403,2.186025381088257
1759485804083921700,3.700921630859375,0.7202681303024292,0.24479623138904572,2.2581801414489746
1759485804093976800,3.710976806640625,0.625242292881012,0.03030337765812874,2.272144317626953
1759485804104031500,3.721031494140625,0.638835608959198,-0.46642377972602844,2.20129656791687
1759485804114087700,3.731087646484375,0.6672957539558411,-1.1831272840499878,2.0574121475219727
1759485804124142600,3.741142578125,0.6488787531852722,-1.5844409465789795,2.0412721633911133
1759485804134197800,3.75119775390625,0.7289344668388367,-1.6640276908874512,2.0351250171661377
1759485804144252400,3.76125244140625,0.7071890830993652,-1.7762115001678467,1.8010525703430176
1759485804154307600,3.7713076171875,0.7220556735992432,-1.5890591144561768,1.5497093200683594
1759485804164365000,3.781364990234375,0.8401146531105042,-1.1941267251968384,1.3757274150848389
1759485804174420200,3.791420166015625,1.0313745737075806,-0.9715334177017212,1.2680482864379883
1759485804184475100,3.80147509765625,1.251161813735962,-0.9907997846603394,1.172816276550293
1759485804194530300,3.8115302734375,1.3945571184158325,-1.1072289943695068,1.1889197826385498
1759485804204585000,3.8215849609375,1.4812560081481934,-1.5104074478149414,1.243701457977295
1759485804214641200,3.83164111328125,1.527889609336853,-1.8548333644866943,1.2656266689300537
1759485804224696000,3.841696044921875,1.492698311805725,-2.0560312271118164,1.2549092769622803
1759485804234751200,3.851751220703125,1.5206782817840576,-2.1041300296783447,1.177222490310669
1759485804244806100,3.86180615234375,1.4677298069000244,-2.056837558746338,1.0360435247421265
1759485804254861000,3.871861083984375,1.3915636539459229,-2.151088237762451,0.9076181054115295
1759485804264917200,3.881917236328125,1.3284883499145508,-2.285048007965088,0.8739935755729675
1759485804274972200,3.89197216796875,1.315411925315857,-2.467970609664917,0.8829346895217896
1759485804285027300,3.90202734375,1.3041043281555176,-2.6322906017303467,0.8737390637397766
1759485804295082000,3.91208203125,1.2739886045455933,-2.6523730754852295,0.8937394022941589
1759485804305137200,3.92213720703125,1.2729403972625732,-2.598752021789551,0.9284220337867737
1759485804315192300,3.9321923828125,1.1960529088974,-2.5514776706695557,0.920283854007721
1759485804325248300,3.942248291015625,1.0827151536941528,-2.503370523452759,0.8787829875946045
1759485804335303200,3.95230322265625,0.9450727105140686,-2.255178451538086,0.8361843824386597
1759485804345358000,3.962358154296875,0.8217318654060364,-1.960503339767456,0.7580658793449402
1759485804355413200,3.972413330078125,0.7364965081214905,-1.6650140285491943,0.6454436182975769
1759485804365468200,3.98246826171875,0.7075532674789429,-1.3261191844940186,0.5850722193717957
1759485804375524000,3.992524169921875,0.6438448429107666,-0.9603688716888428,0.5199121236801147
1759485804385579000,4.0025791015625,0.6067155003547668,-0.5725368857383728,0.43118101358413696
1759485804395634200,4.01263427734375,0.6668326258659363,-0.2463238537311554,0.3802264928817749
1759485804405689300,4.022689453125,0.7022598385810852,0.06122136116027832,0.3325747549533844
1759485804415744000,4.032743896484375,0.7063333988189697,0.3088173270225525,0.2596997618675232
1759485804425800200,4.04280029296875,0.6937642097473145,0.574205756187439,0.1644614189863205
1759485804435855000,4.052855224609375,0.6473942995071411,0.8214150071144104,0.030211742967367172
1759485804445910300,4.06291015625,0.5851716995239258,0.9897512197494507,-0.1256253570318222
1759485804455965000,4.07296484375,0.5113512873649597,1.0477230548858643,-0.27758267521858215
1759485804466020000,4.08302001953125,0.3988320529460907,0.991094172000885,-0.44711145758628845
1759485804476075300,4.0930751953125,0.2577977180480957,0.8921151161193848,-0.6327620148658752
1759485804486131200,4.103131103515625,0.08357052505016327,0.7766764163970947,-0.7844601273536682
1759485804496186400,4.113186279296875,-0.1208031177520752,0.7574729323387146,-0.9154319763183594
1759485804506241000,4.123240966796875,-0.34583139419555664,0.8920366764068604,-1.1155164241790771
1759485804516296200,4.133296142578125,-0.5145202279090881,1.127112627029419,-1.347296953201294
1759485804526351000,4.14335107421875,-0.5140360593795776,1.1216124296188354,-1.3866323232650757
1759485804536407300,4.1534072265625,-0.41036662459373474,0.5598772764205933,-0.9413244724273682
1759485804546462000,4.1634619140625,-0.6187973022460938,-0.018092872574925423,-1.0579650402069092
1759485804556517000,4.17351708984375,-0.4739643335342407,0.538877010345459,-1.465956449508667
1759485804566572300,4.183572265625,-0.4373898208141327,0.8960409164428711,-1.6527304649353027
1759485804576627200,4.193627197265625,-0.5183219909667969,0.6727966666221619,-1.7155978679656982
1759485804586683400,4.203683349609375,-0.6328719854354858,0.6084344387054443,-1.8335715532302856
1759485804596738000,4.213738037109375,-0.7703889012336731,0.7226591110229492,-1.8596490621566772
1759485804606793200,4.223793212890625,-0.8390960693359375,0.8113282918930054,-1.7319391965866089
1759485804616848100,4.23384814453125,-0.8745530247688293,0.9577651023864746,-1.5306029319763184
1759485804626903000,4.243903076171875,-0.9360094666481018,1.1283643245697021,-1.4070684909820557
1759485804636958200,4.253958251953125,-1.0283974409103394,1.2726839780807495,-1.2792165279388428
1759485804647014100,4.26401416015625,-1.1060142517089844,1.4115923643112183,-1.168419361114502
1759485804657069300,4.2740693359375,-1.1291933059692383,1.6026487350463867,-1.0347143411636353
1759485804667124200,4.284124267578125,-1.069413185119629,1.8205265998840332,-0.9097368121147156
1759485804677179100,4.29417919921875,-0.97413170337677,2.032597064971924,-0.7979236841201782
1759485804687234000,4.304234130859375,-0.8891028165817261,2.1747539043426514,-0.7330999970436096
1759485804697290200,4.314290283203125,-0.8462718725204468,2.194026231765747,-0.6972042322158813
1759485804707345200,4.32434521484375,-0.8140230774879456,2.1380600929260254,-0.6922712326049805
1759485804717400000,4.334400146484375,-0.8235522508621216,2.008606195449829,-0.7055521011352539
1759485804727455200,4.344455322265625,-0.8758657574653625,1.8866894245147705,-0.6931537985801697
1759485804737510100,4.35451025390625,-0.9263619184494019,1.892680287361145,-0.7021816968917847
1759485804747565300,4.3645654296875,-0.9383284449577332,1.9180387258529663,-0.7551323175430298
1759485804757621000,4.37462109375,-0.9787653088569641,1.9510408639907837,-0.7502949237823486
1759485804767676200,4.38467626953125,-1.0100845098495483,1.907782793045044,-0.7373260855674744
1759485804777731000,4.39473095703125,-1.048752784729004,1.6651113033294678,-0.7175604104995728
1759485804787786200,4.4047861328125,-1.0660459995269775,1.3277323246002197,-0.7082949280738831
1759485804797841200,4.414841064453125,-1.1006276607513428,1.0632575750350952,-0.7283176183700562
1759485804807897000,4.42489697265625,-0.8659976124763489,0.9781314134597778,-0.7800606489181519
1759485804817952300,4.4349521484375,-0.652819812297821,0.885757327079773,-0.802015483379364
1759485804828007200,4.445007080078125,-0.5875166654586792,0.8260740637779236,-0.7590652704238892
1759485804838062000,4.45506201171875,-0.5781766772270203,0.824105978012085,-0.6755530834197998
1759485804848117000,4.465116943359375,-0.546929121017456,0.6946539282798767,-0.6479614973068237
1759485804858173200,4.475173095703125,-0.521523118019104,0.41758134961128235,-0.6896170973777771
1759485804868228000,4.48522802734375,-0.4720665216445923,0.09056879580020905,-0.8201475739479065
1759485804878283300,4.495283203125,-0.39476242661476135,-0.11036377400159836,-0.9215818047523499
1759485804888338200,4.505338134765625,-0.3804451525211334,-0.19978690147399902,-1.0358155965805054
1759485804898393000,4.51539306640625,-0.3647591471672058,-0.0733831599354744,-1.1490726470947266
1759485804908448300,4.5254482421875,-0.2896167039871216,0.25860461592674255,-1.1846578121185303
1759485804918504200,4.535504150390625,-0.18924079835414886,0.4833308160305023,-1.1556707620620728
1759485804928559000,4.54555908203125,-0.07932387292385101,0.420522004365921,-1.1476572751998901
1759485804938614000,4.555614013671875,0.04586445912718773,0.2761993110179901,-1.079871416091919
1759485804948669200,4.565669189453125,0.14799483120441437,0.1820126324892044,-0.9414251446723938
1759485804958724400,4.575724365234375,0.27611294388771057,0.2632991373538971,-0.7328464388847351
1759485804968780000,4.585780029296875,0.3813818395137787,0.39104512333869934,-0.546002209186554
1759485804978835200,4.595835205078125,0.4231847822666168,0.5592769980430603,-0.39152219891548157
1759485804988890000,4.60589013671875,0.4451849162578583,0.6047512888908386,-0.3471115827560425
1759485804998945300,4.6159453125,0.4163990020751953,0.7510225772857666,-0.2991083562374115
1759485805009000000,4.626,0.34593361616134644,0.8359974026679993,-0.23916351795196533
1759485805019055000,4.63605517578125,0.26207518577575684,0.7604125738143921,-0.16209383308887482
1759485805029111000,4.646111083984375,0.15416096150875092,0.4939321279525757,-0.00739612802863121
1759485805039166200,4.656166259765625,0.015732167288661003,0.07876808941364288,0.22921669483184814
1759485805049221000,4.66622119140625,-0.05073047801852226,-0.18933206796646118,0.5417295694351196
1759485805059276000,4.676276123046875,0.01616073213517666,-0.3293873369693756,0.7579630017280579
1759485805069331200,4.686331298828125,0.1270262598991394,-0.2589738965034485,0.8894163370132446
1759485805079387100,4.69638720703125,0.21555382013320923,-0.11564584076404572,0.9286007881164551
1759485805089442300,4.7064423828125,0.3019571304321289,-0.04634266346693039,0.9170514941215515
1759485805099497000,4.7164970703125,0.3669506907463074,-0.0965653508901596,0.804217517375946
1759485805109552000,4.72655224609375,0.3391837775707245,-0.27085167169570923,0.6143655180931091
1759485805119607300,4.736607177734375,0.19986583292484283,-0.4490639865398407,0.38615667819976807
1759485805129663200,4.746663330078125,-0.0273381806910038,-0.47785574197769165,0.08804299682378769
1759485805139718100,4.75671826171875,-0.2785770893096924,-0.23505695164203644,-0.25806939601898193
1759485805149773000,4.76677294921875,-0.5286571383476257,0.07771587371826172,-0.550370991230011
1759485805159827000,4.776826904296875,-0.7420817613601685,0.3482344448566437,-0.765771746635437
1759485805169881900,4.7868818359375,-0.8607189655303955,0.5495398044586182,-0.9127968549728394
1759485805179936800,4.796936767578125,-0.9809297919273376,0.8557140827178955,-1.024442434310913
1759485805189993000,4.806992919921875,-1.0290255546569824,0.9716870784759521,-1.1364178657531738
1759485805200047900,4.8170478515625,-0.9852556586265564,0.7842356562614441,-1.2022171020507812
1759485805210102800,4.827102783203125,-0.9554367661476135,0.6331043243408203,-1.1740715503692627
1759485805220158000,4.837157958984375,-0.9107649326324463,0.4975070655345917,-1.1584711074829102
1759485805230212900,4.847212890625,-0.8603686690330505,0.3701236844062805,-1.1696045398712158
1759485805240269000,4.85726904296875,-0.898742139339447,0.5094022154808044,-1.1521263122558594
1759485805250324000,4.867323974609375,-0.9378921985626221,0.8608896732330322,-1.096875548362732
1759485805260379000,4.87737890625,-0.8590013384819031,1.1302340030670166,-0.9556551575660706
1759485805270433800,4.887433837890625,-0.7254847288131714,1.1001951694488525,-0.7056874632835388
1759485805280489000,4.897489013671875,-0.5203129649162292,0.895794689655304,-0.3328579366207123
1759485805290543900,4.9075439453125,-0.3330141305923462,0.5366426110267639,0.0175408273935318
1759485805300599800,4.917599853515625,-0.12115159630775452,0.17045865952968597,0.3191099762916565
1759485805310655000,4.927655029296875,0.10113979130983353,-0.26377880573272705,0.6133250594139099
1759485805320710000,4.9377099609375,0.287617564201355,-0.5872097611427307,0.9455708265304565
1759485805330765000,4.94776513671875,0.3964548408985138,-0.7693894505500793,1.2804454565048218
1759485805340819700,4.95781982421875,0.44326186180114746,-0.8243552446365356,1.5692193508148193
1759485805350876000,4.9678759765625,0.4889143109321594,-0.7792367935180664,1.7660183906555176
1759485805360930800,4.977930908203125,0.5641862154006958,-0.5494651198387146,1.900836706161499
1759485805370986000,4.987986083984375,0.6227355003356934,-0.31115850806236267,1.9888921976089478
1759485805381041000,4.998041015625,0.6116405129432678,-0.2051958590745926,2.0466909408569336
1759485805391095800,5.008095703125,0.5450708866119385,-0.36472195386886597,2.056309223175049
1759485805401151000,5.01815087890625,0.4688035547733307,-0.7001233696937561,2.0180819034576416
1759485805411207000,5.02820703125,0.43426743149757385,-0.8669949173927307,1.9960383176803589
1759485805421261800,5.03826171875,0.4612272381782532,-0.8444771766662598,1.962860345840454
1759485805431316700,5.048316650390625,0.5130424499511719,-0.6391772627830505,1.926323652267456
1759485805441372000,5.058371826171875,0.4917750954627991,-0.2086515873670578,1.8820494413375854
1759485805451427000,5.068427001953125,0.4906315207481384,0.2236260622739792,1.8099925518035889
1759485805461483000,5.07848291015625,0.6786966919898987,0.5745970010757446,1.9139231443405151
1759485805471538000,5.088537841796875,0.9374816417694092,0.5318540930747986,1.985347867012024
1759485805481592800,5.0985927734375,1.085135817527771,0.23719780147075653,2.0480682849884033
1759485805491648000,5.10864794921875,1.13933527469635,-0.22789838910102844,2.098299264907837
1759485805501703000,5.118702880859375,1.1390963792800903,-1.036415934562683,1.9073426723480225
1759485805511757800,5.1287578125,1.2002273797988892,-1.578805685043335,1.6444849967956543
1759485805521813800,5.138813720703125,1.2942925691604614,-1.7663288116455078,1.4878871440887451
1759485805531869000,5.148868896484375,1.4667515754699707,-1.640315294265747,1.3820757865905762
1759485805541924000,5.158924072265625,1.6457087993621826,-1.493500828742981,1.339503526687622
1759485805551978800,5.168978759765625,1.8206565380096436,-1.6279239654541016,1.2723965644836426
1759485805562034000,5.179033935546875,1.9428900480270386,-1.8083292245864868,1.3163316249847412
1759485805572089900,5.18908984375,2.037346601486206,-2.002331495285034,1.4699028730392456
1759485805582145000,5.19914501953125,2.0412771701812744,-2.216763973236084,1.4217545986175537
1759485805592199700,5.20919970703125,1.8025590181350708,-2.3368217945098877,1.2377594709396362
1759485805602254800,5.2192548828125,1.571006178855896,-2.5723047256469727,1.0913145542144775
1759485805612310000,5.22931005859375,1.392974615097046,-2.7528488636016846,1.1008179187774658
1759485805622365000,5.239364990234375,1.2878572940826416,-2.8348329067230225,1.1369314193725586
1759485805632421000,5.249421142578125,1.1759029626846313,-2.9161252975463867,1.0586953163146973
1759485805642475800,5.259475830078125,1.0896724462509155,-2.915198802947998,0.9413580298423767
1759485805652531000,5.269531005859375,0.9562565684318542,-2.818912982940674,0.855087161064148
1759485805662585900,5.2795859375,0.839775800704956,-2.670706272125244,0.7786222100257874
1759485805672640800,5.289640869140625,0.7091748714447021,-2.5599417686462402,0.6806748509407043
1759485805682696700,5.29969677734375,0.6397684216499329,-2.3951704502105713,0.5927695631980896
1759485805692752000,5.309751953125,0.5972060561180115,-2.2255749702453613,0.4896990954875946
1759485805702807000,5.31980712890625,0.5465229153633118,-1.9917830228805542,0.36614522337913513
1759485805712862000,5.329862060546875,0.46153557300567627,-1.6864039897918701,0.2469804883003235
1759485805722916900,5.339916748046875,0.41106706857681274,-1.3895243406295776,0.10978671908378601
1759485805732972000,5.349971923828125,0.3762132227420807,-1.092578411102295,-0.024077605456113815
1759485805743028000,5.360028076171875,0.3531595766544342,-0.7855702042579651,-0.14422495663166046
1759485805753083000,5.370082763671875,0.37676212191581726,-0.46557942032814026,-0.23153190314769745
1759485805763137800,5.3801376953125,0.42300066351890564,-0.1576896458864212,-0.27379223704338074
1759485805773193000,5.39019287109375,0.4721650183200836,0.18886031210422516,-0.30932438373565674
1759485805783248000,5.400247802734375,0.5119316577911377,0.5069957375526428,-0.3329891562461853
1759485805793304000,5.410303955078125,0.5191029906272888,0.7823559641838074,-0.342798113822937
1759485805803358700,5.420358642578125,0.47508159279823303,0.9823465347290039,-0.36297011375427246
1759485805813414000,5.430413818359375,0.358939528465271,1.093892216682434,-0.4296919107437134
1759485805823468800,5.44046875,0.21203993260860443,1.1285498142242432,-0.5299819707870483
1759485805833524000,5.45052392578125,0.05371447652578354,1.184009075164795,-0.6091681718826294
1759485805843579000,5.460578857421875,0.0017031640745699406,1.1342189311981201,-0.4989687502384186
1759485805853634800,5.470634765625,-0.03237704187631607,1.0515400171279907,-0.49415430426597595
1759485805863690000,5.48068994140625,-0.20124801993370056,1.14041006565094,-1.0124857425689697
1759485805873745000,5.490744873046875,-0.48511651158332825,1.1987043619155884,-1.2231836318969727
1759485805883799800,5.5007998046875,-0.6045912504196167,0.6651146411895752,-1.4533936977386475
1759485805893855000,5.51085498046875,-0.48772987723350525,0.3814598023891449,-1.6299159526824951
1759485805903911000,5.520910888671875,-0.675481915473938,0.5763648748397827,-1.8431192636489868
1759485805913965800,5.5309658203125,-0.9918451905250549,0.6551965475082397,-2.0559349060058594
1759485805924021000,5.54102099609375,-1.2088550329208374,0.6515600085258484,-2.081925630569458
1759485805934076000,5.551075927734375,-1.2845826148986816,0.7280714511871338,-1.9423396587371826
1759485805944130800,5.561130859375,-1.270351767539978,0.7051014304161072,-1.8133091926574707
1759485805954186000,5.57118603515625,-1.1077543497085571,0.8066785335540771,-1.7494417428970337
1759485805964242000,5.581241943359375,-0.9603896737098694,1.1292470693588257,-1.674478530883789
1759485805974296800,5.591296875,-0.874327540397644,1.4882372617721558,-1.583548665046692
1759485805984352000,5.60135205078125,-0.8321664929389954,1.7748855352401733,-1.4896552562713623
1759485805994407000,5.611406982421875,-0.7747503519058228,2.031392812728882,-1.376409649848938
1759485806004462000,5.621462158203125,-0.7076576352119446,2.3043782711029053,-1.2490439414978027
1759485806014516700,5.631516845703125,-0.666675329208374,2.58070969581604,-1.113768219947815
1759485806024573000,5.641572998046875,-0.6482808589935303,2.731825113296509,-1.0167726278305054
1759485806034627800,5.6516279296875,-0.6217216849327087,2.760030746459961,-0.937589168548584
1759485806044683000,5.66168310546875,-0.6070371866226196,2.705425500869751,-0.8697510361671448
1759485806054738000,5.671738037109375,-0.6868542432785034,2.471186637878418,-0.799344003200531
1759485806064792800,5.681792724609375,-0.8783583045005798,2.1899282932281494,-0.7329161763191223
1759485806074848800,5.691848876953125,-1.120937705039978,1.9967930316925049,-0.7309007048606873
1759485806084904000,5.701904052734375,-1.3192038536071777,1.7694387435913086,-0.8229015469551086
1759485806094959000,5.711958984375,-1.4116783142089844,1.5734226703643799,-0.8917831182479858
1759485806105013800,5.722013671875,-1.403375506401062,1.45339834690094,-0.9080573916435242
1759485806115069000,5.73206884765625,-1.2812424898147583,1.3571608066558838,-0.952199399471283
1759485806125124000,5.7421240234375,-1.1217612028121948,1.2611101865768433,-0.9624142646789551
1759485806135180000,5.752179931640625,-0.9200289845466614,1.151370644569397,-0.918789803981781
1759485806145235000,5.76223486328125,-0.6473678946495056,0.9889578819274902,-0.9093903303146362
1759485806155289900,5.772289794921875,-0.3655679523944855,0.8425042629241943,-0.9372384548187256
1759485806165345000,5.782344970703125,-0.21461065113544464,0.7871317863464355,-0.8981818556785583
1759485806175400000,5.79239990234375,-0.16514909267425537,0.7492557764053345,-0.8081419467926025
1759485806185455900,5.802455810546875,-0.13988108932971954,0.7032684683799744,-0.6922371983528137
1759485806195510800,5.8125107421875,-0.13429512083530426,0.4384671747684479,-0.6415258049964905
1759485806205566000,5.82256591796875,-0.14199423789978027,0.018536586314439774,-0.7014845609664917
1759485806215621000,5.83262109375,-0.1955093890428543,-0.3442240059375763,-0.8631134033203125
1759485806225675800,5.84267578125,-0.25244203209877014,-0.5818714499473572,-1.0809040069580078
1759485806235731000,5.85273095703125,-0.2459457814693451,-0.622380793094635,-1.3077396154403687
1759485806245787000,5.862786865234375,-0.16924172639846802,-0.3196551203727722,-1.4069124460220337
1759485806255842000,5.872842041015625,-0.02996107190847397,0.0029951147735118866,-1.4561806917190552
1759485806265896700,5.882896728515625,0.1242876723408699,0.1258266270160675,-1.4475065469741821
1759485806275951900,5.892951904296875,0.24621880054473877,0.09619156271219254,-1.344741940498352
1759485806286007000,5.903007080078125,0.32587099075317383,-0.10957464575767517,-1.2124595642089844
1759485806296062000,5.91306201171875,0.40464937686920166,-0.21586713194847107,-1.0613486766815186
1759485806306118000,5.923117919921875,0.40861883759498596,-0.29402902722358704,-0.9424723982810974
1759485806316172800,5.9331728515625,0.3295916020870209,-0.11949463933706284,-0.7787123918533325
1759485806326228000,5.94322802734375,0.310234934091568,-0.10916317254304886,-0.7528834939002991
1759485806336283000,5.953282958984375,0.3095967173576355,0.10471373051404953,-0.745328426361084
1759485806346337800,5.963337890625,0.20380239188671112,0.39633598923683167,-0.7540425658226013
1759485806356393700,5.973393798828125,0.0048761190846562386,0.34825366735458374,-0.6884303689002991
1759485806366449000,5.983448974609375,-0.17092525959014893,0.11688436567783356,-0.5254195928573608
1759485806376504000,5.993504150390625,-0.25147658586502075,-0.06597814708948135,-0.28366804122924805
1759485806386559000,6.00355908203125,-0.20712217688560486,-0.025172658264636993,0.06370801478624344
1759485806396614000,6.01361376953125,-0.07678673416376114,0.005993664730340242,0.34730932116508484
1759485806406668800,6.023668701171875,0.04399934038519859,0.05061732605099678,0.5328453779220581
1759485806416725000,6.03372509765625,0.08373050391674042,0.18034522235393524,0.6316385269165039
1759485806426780000,6.04377978515625,0.08300472050905228,0.2733551859855652,0.6410661339759827
1759485806436834800,6.053834716796875,0.06710325181484222,0.2975284159183502,0.5373796820640564
1759485806446890000,6.063889892578125,0.0003300621174275875,0.27641215920448303,0.3392433822154999
1759485806456945000,6.07394482421875,-0.12712669372558594,0.23257465660572052,0.10699763149023056
1759485806467000000,6.084,-0.31184977293014526,0.25133615732192993,-0.1404111534357071
1759485806477055700,6.0940556640625,-0.48497655987739563,0.3503652513027191,-0.38564008474349976
1759485806487111000,6.10411083984375,-0.6318796873092651,0.40686580538749695,-0.6037200093269348
1759485806497165800,6.114165771484375,-0.76100093126297,0.49624040722846985,-0.7641298770904541
1759485806507221000,6.124220947265625,-0.837225615978241,0.6412279009819031,-0.8455252051353455
1759485806517276000,6.13427587890625,-0.8949302434921265,0.692396879196167,-0.9110440015792847
1759485806527331800,6.144331787109375,-0.8473211526870728,0.4549286663532257,-0.9667136073112488
1759485806537387000,6.154386962890625,-0.8985883593559265,0.49505025148391724,-0.9442176222801208
1759485806547442000,6.16444189453125,-0.9392775297164917,0.5171480178833008,-0.854066014289856
1759485806557497000,6.1744970703125,-0.8691520094871521,0.5139836668968201,-0.7029998302459717
1759485806567551700,6.1845517578125,-0.8844953775405884,0.5885364413261414,-0.49378502368927
1759485806577607000,6.19460693359375,-0.910912036895752,0.6240462064743042,-0.21770547330379486
1759485806587662800,6.204662841796875,-0.7749792337417603,0.5692224502563477,0.042204756289720535
1759485806597718000,6.214718017578125,-0.5834097862243652,0.4658318758010864,0.2560560703277588
1759485806607773000,6.22477294921875,-0.30516132712364197,0.41254913806915283,0.45788106322288513
1759485806617827800,6.234827880859375,-0.06600093841552734,0.3793294131755829,0.6688237190246582
1759485806627883000,6.244883056640625,0.14605797827243805,0.3240143358707428,0.880151093006134
1759485806637938000,6.25493798828125,0.30856406688690186,0.22637058794498444,1.0895248651504517
1759485806647993900,6.264993896484375,0.4149951636791229,0.023956770077347755,1.2801024913787842
1759485806658048800,6.275048828125,0.49734970927238464,-0.19443193078041077,1.4185768365859985
1759485806668104000,6.28510400390625,0.5820593237876892,-0.3949413299560547,1.513201355934143
1759485806678159000,6.2951591796875,0.6662907600402832,-0.4368850886821747,1.640744686126709
1759485806688213800,6.3052138671875,0.745494544506073,-0.4721416234970093,1.7862238883972168
1759485806698269000,6.31526904296875,0.7911547422409058,-0.5467656254768372,1.9622515439987183
1759485806708324900,6.325324951171875,0.775596022605896,-0.6119436025619507,2.1628806591033936
1759485806718380000,6.335380126953125,0.7505144476890564,-0.682400107383728,2.3091368675231934
1759485806728434700,6.3454345703125,0.7462728023529053,-0.6869311928749084,2.3672327995300293
1759485806738489900,6.35548974609375,0.7544566988945007,-0.5593826174736023,2.373311758041382
1759485806748545000,6.365544921875,0.729406476020813,-0.3639439046382904,2.308159351348877
1759485806758601000,6.37560107421875,0.6954505443572998,-0.12780281901359558,2.2672204971313477
1759485806768656100,6.38565625,0.6349720358848572,0.1541348546743393,2.2602412700653076
1759485806778710800,6.395710693359375,0.5693478584289551,0.32931244373321533,2.328584671020508
1759485806788766000,6.405765869140625,0.65677410364151,0.08925510942935944,2.300685405731201
1759485806798820900,6.41582080078125,0.9665517210960388,-0.23900479078292847,2.266101598739624
1759485806808875800,6.425875732421875,1.258208155632019,-0.5035251975059509,2.2332072257995605
1759485806818931700,6.435931640625,1.3710089921951294,-1.0625187158584595,2.0203614234924316
1759485806828987000,6.44598681640625,1.4475778341293335,-1.6925450563430786,1.6882249116897583
1759485806839042000,6.4560419921875,1.5571597814559937,-1.9229230880737305,1.4941380023956299
1759485806849097000,6.466096923828125,1.717631459236145,-2.0222220420837402,1.4396302700042725
1759485806859152000,6.47615185546875,1.9084975719451904,-2.040257453918457,1.4771361351013184
1759485806869207800,6.486207763671875,2.149932861328125,-2.009054660797119,1.5136483907699585
1759485806879263000,6.496262939453125,2.363433837890625,-2.0819902420043945,1.611963152885437
1759485806889318000,6.50631787109375,2.416550874710083,-2.0407309532165527,1.7058404684066772
1759485806899372800,6.516372802734375,2.341994285583496,-2.384140729904175,1.5447252988815308
1759485806909428000,6.526427978515625,2.1447129249572754,-2.519129753112793,1.438497543334961
1759485806919483000,6.53648291015625,1.9547548294067383,-2.6939549446105957,1.5154801607131958
1759485806929539000,6.5465390625,1.8139746189117432,-2.9961915016174316,1.5994371175765991
1759485806939593700,6.55659375,1.7788621187210083,-3.1362481117248535,1.625704050064087
1759485806949649000,6.56664892578125,1.6732906103134155,-3.1512322425842285,1.5454051494598389
1759485806959703800,6.576703857421875,1.5518898963928223,-3.2591099739074707,1.4613027572631836
1759485806969759000,6.586759033203125,1.3903985023498535,-3.330648899078369,1.4207065105438232
1759485806979814000,6.59681396484375,1.1919221878051758,-3.40689754486084,1.367438554763794
1759485806989869800,6.606869873046875,1.0091097354888916,-3.345066785812378,1.2935519218444824
1759485806999925000,6.616925048828125,0.8431974053382874,-3.1346981525421143,1.2083691358566284
1759485807009980000,6.62697998046875,0.6944355964660645,-2.7087433338165283,1.0996379852294922
1759485807020034800,6.637034912109375,0.64051753282547,-2.2918896675109863,0.8983572721481323
1759485807030089700,6.64708984375,0.6536209583282471,-1.8926928043365479,0.700093686580658
1759485807040145000,6.657144775390625,0.6244917511940002,-1.4791971445083618,0.5311905145645142
1759485807050200800,6.667200927734375,0.5901220440864563,-1.1863101720809937,0.32549721002578735
1759485807060256000,6.677256103515625,0.5141188502311707,-0.8335965275764465,0.10880465805530548
1759485807070311000,6.687310791015625,0.4011256992816925,-0.5182380080223083,-0.11053968220949173
1759485807080365800,6.69736572265625,0.34935590624809265,-0.08834005892276764,-0.26445305347442627
1759485807090421000,6.7074208984375,0.3236793279647827,0.27375078201293945,-0.38019484281539917
1759485807100477000,6.717476806640625,0.3131195902824402,0.5631369948387146,-0.47266969084739685
1759485807110531800,6.72753173828125,0.2778327167034149,0.8055429458618164,-0.5701794624328613
1759485807120586800,6.737586669921875,0.22572678327560425,0.9907741546630859,-0.6656519174575806
1759485807130642000,6.747641845703125,0.1689300835132599,1.1545919179916382,-0.7789409160614014
1759485807140697000,6.757697021484375,0.08062499761581421,1.265256643295288,-0.9485174417495728
1759485807150751700,6.767751708984375,0.0032646916806697845,1.502495288848877,-1.0453300476074219
1759485807160808000,6.777807861328125,-0.08833684772253036,1.526553988456726,-1.1572318077087402
1759485807170862300,6.7878623046875,-0.17053984105587006,1.5801477432250977,-1.2212482690811157
1759485807180917500,6.79791748046875,-0.2897208333015442,1.5156853199005127,-1.341361403465271
1759485807190972700,6.80797265625,-0.4150564670562744,1.4577827453613281,-1.5072596073150635
1759485807201027600,6.818027587890625,-0.4450780153274536,1.161860704421997,-1.611526608467102
1759485807211082500,6.82808251953125,-0.255708247423172,0.3914656937122345,-0.992652177810669
1759485807221138400,6.838138427734375,-0.2941446006298065,-0.5336515307426453,-0.8918147683143616
1759485807231193600,6.848193603515625,-0.1298987865447998,-0.04244838282465935,-1.3230232000350952
1759485807241248500,6.85824853515625,-0.2452480047941208,0.3773201107978821,-1.9580299854278564
1759485807251303400,6.868303466796875,-0.5476089119911194,0.15821851789951324,-1.8086591958999634
1759485807261358600,6.878358642578125,-0.6011506915092468,0.08532673120498657,-1.7489900588989258
1759485807271413500,6.88841357421875,-0.6946932673454285,0.42005857825279236,-1.7705994844436646
1759485807281469700,6.8984697265625,-0.7576922178268433,0.46096155047416687,-1.6978144645690918
1759485807291524600,6.908524658203125,-0.7013147473335266,0.43884041905403137,-1.5081664323806763
1759485807301579500,6.91857958984375,-0.6099353432655334,0.5337000489234924,-1.3731430768966675
1759485807311634400,6.928634521484375,-0.5288589000701904,0.7352025508880615,-1.3004499673843384
1759485807321689600,6.938689697265625,-0.4697593152523041,1.065272331237793,-1.2691950798034668
1759485807331744500,6.94874462890625,-0.4547205865383148,1.5237499475479126,-1.2177163362503052
1759485807341800400,6.958800537109375,-0.4724596440792084,1.8795002698898315,-1.216765284538269
1759485807351855600,6.968855712890625,-0.4763893485069275,2.1819849014282227,-1.2584396600723267
1759485807361910500,6.97891064453125,-0.500658392906189,2.4615628719329834,-1.3059971332550049
1759485807371965700,6.988965576171875,-0.545648455619812,2.6111814975738525,-1.3449008464813232
1759485807382020400,6.999020263671875,-0.5949395298957825,2.718742609024048,-1.3267453908920288
1759485807392076500,7.00907666015625,-0.6848004460334778,2.8066418170928955,-1.219517707824707
1759485807402131500,7.01913134765625,-0.7779927849769592,2.6805579662323,-1.1185314655303955
1759485807412186600,7.0291865234375,-0.8561429381370544,2.397554636001587,-1.0729708671569824
1759485807422241500,7.039241455078125,-0.9069443941116333,2.154789686203003,-1.1182798147201538
1759485807432296400,7.04929638671875,-0.868869423866272,1.87144935131073,-1.1311501264572144
1759485807442351600,7.0593515625,-0.829816997051239,1.6032426357269287,-1.0470837354660034
1759485807452407600,7.069407470703125,-0.8207470774650574,1.2948969602584839,-0.8762006759643555
1759485807462462500,7.07946240234375,-0.8668443560600281,1.0727204084396362,-0.6618263125419617
1759485807472517400,7.089517333984375,-0.9357869029045105,0.7949143648147583,-0.5484552979469299
1759485807482572500,7.099572509765625,-1.0282350778579712,0.6305980086326599,-0.5340902209281921
1759485807492627700,7.109627685546875,-1.0587306022644043,0.7582768797874451,-0.5765274167060852
1759485807502682400,7.119682373046875,-1.0785646438598633,0.956106424331665,-0.6565980315208435
1759485807512738600,7.129738525390625,-1.0402241945266724,1.1774091720581055,-0.7621031999588013
1759485807522793500,7.13979345703125,-0.9501317143440247,1.261522889137268,-0.8688475489616394
1759485807532848600,7.1498486328125,-0.9323607087135315,1.1616463661193848,-0.9143694639205933
1759485807542903300,7.1599033203125,-0.9357514381408691,0.9033448100090027,-0.8741663694381714
1759485807552958500,7.16995849609375,-0.7907497882843018,0.39679238200187683,-0.8710758686065674
1759485807563013600,7.180013671875,-0.6090976595878601,-0.30196505784988403,-0.8995123505592346
1759485807573069600,7.190069580078125,-0.48867857456207275,-0.8081193566322327,-0.9145773649215698
1759485807583124700,7.200124755859375,-0.307133287191391,-0.8517967462539673,-0.8559255003929138
1759485807593179400,7.210179443359375,-0.12378747016191483,-0.6269125938415527,-0.8198949098587036
1759485807603234600,7.220234619140625,0.10865109413862228,-0.39310571551322937,-0.8829188346862793
1759485807613289500,7.23028955078125,0.20334793627262115,-0.20437461137771606,-0.9676745533943176
1759485807623344400,7.240344482421875,0.20125815272331238,-0.024356110021471977,-1.0469763278961182
1759485807633400300,7.250400390625,0.19711463153362274,0.14789146184921265,-1.0795518159866333
1759485807643455500,7.26045556640625,0.15798987448215485,0.2434704601764679,-1.0954666137695312
1759485807653510700,7.2705107421875,0.10217773914337158,0.3200826644897461,-1.0848667621612549
1759485807663565600,7.280565673828125,0.0777464285492897,0.4550226628780365,-1.0005542039871216
1759485807673620500,7.290620361328125,0.09379623830318451,0.5495536923408508,-0.8602002859115601
1759485807683676400,7.300676513671875,0.17109715938568115,0.48823386430740356,-0.6894234418869019
1759485807693731600,7.310731689453125,0.31868860125541687,0.22152680158615112,-0.5546514391899109
1759485807703786500,7.320786376953125,0.3686518967151642,-0.06298535317182541,-0.3883444666862488
1759485807713841400,7.33084130859375,0.3297296464443207,-0.11529432237148285,-0.2430095076560974
1759485807723896600,7.340896484375,0.2165791392326355,-0.09786313027143478,-0.14041948318481445
1759485807733951500,7.350951416015625,0.11843869835138321,0.16244056820869446,-0.07099681347608566
1759485807744007700,7.361007568359375,0.03300848603248596,0.5702027082443237,0.03909080848097801
1759485807754062300,7.371062255859375,-0.03709070757031441,0.85910964012146,0.2049356997013092
1759485807764117500,7.381117431640625,-0.06090076267719269,0.9554535746574402,0.39822906255722046
1759485807774172700,7.391172607421875,-0.07814393192529678,0.959656298160553,0.615318775177002
1759485807784227600,7.4012275390625,-0.10098619759082794,0.8233841061592102,0.7631868720054626
1759485807794282500,7.411282470703125,-0.1268841028213501,0.6705021858215332,0.829809844493866
1759485807804338400,7.42133837890625,-0.12661390006542206,0.594809889793396,0.8154897093772888
1759485807814393600,7.4313935546875,-0.14936049282550812,0.6027913689613342,0.7324497103691101
1759485807824448500,7.441448486328125,-0.14984802901744843,0.5785887241363525,0.6040823459625244
1759485807834503700,7.451503662109375,-0.12429339438676834,0.6187779307365417,0.5143982768058777
1759485807844558600,7.46155859375,-0.13154791295528412,0.6705416440963745,0.4257388114929199
1759485807854613500,7.471613525390625,-0.21118175983428955,0.66093510389328,0.3553282916545868
1759485807864669400,7.48166943359375,-0.33125653862953186,0.6759093999862671,0.2917824685573578
1759485807874724600,7.491724609375,-0.44959598779678345,0.6677889227867126,0.2648904025554657
1759485807884779500,7.501779541015625,-0.4660530388355255,0.5088439583778381,0.26534754037857056
1759485807894834400,7.51183447265625,-0.43652549386024475,0.27100667357444763,0.28217101097106934
1759485807904889600,7.5218896484375,-0.47006702423095703,0.07315890491008759,0.2989700138568878
1759485807914945500,7.531945556640625,-0.581398606300354,0.020803553983569145,0.2730920612812042
1759485807925000400,7.54200048828125,-0.7599747180938721,0.17139145731925964,0.1687086522579193
1759485807935055600,7.5520556640625,-0.9173033237457275,0.41294848918914795,-0.006326997186988592
1759485807945110500,7.562110595703125,-1.087929129600525,0.6652781963348389,-0.11032876372337341
1759485807955165700,7.572165771484375,-1.04824697971344,0.786449670791626,-0.1488681584596634
1759485807965220400,7.582220458984375,-0.8221027851104736,0.7579982876777649,-0.1226634532213211
1759485807975276500,7.592276611328125,-0.6228331327438354,0.653542697429657,-0.07599186152219772
1759485807985331500,7.60233154296875,-0.6468255519866943,0.5066661238670349,-0.011725258082151413
1759485807995386600,7.61238671875,-0.8053861856460571,0.3354043662548065,0.06686165928840637
1759485808005441500,7.622441650390625,-0.9912734627723694,0.17661204934120178,0.1656992882490158
1759485808015496400,7.632496337890625,-1.2833497524261475,0.04067346826195717,0.2929457426071167
1759485808025551600,7.642551513671875,-1.1516894102096558,-0.14102628827095032,0.36117246747016907
1759485808035607600,7.652607666015625,-0.89290452003479,-0.2314341962337494,0.41044098138809204
1759485808045662700,7.662662841796875,-0.7290242314338684,-0.2289273589849472,0.43680283427238464
1759485808055717400,7.67271728515625,-0.6553806662559509,-0.2261137217283249,0.4022911787033081
1759485808065772500,7.6827724609375,-0.6709393858909607,-0.21908538043498993,0.3287479877471924
1759485808075827700,7.69282763671875,-0.7866750955581665,-0.17894668877124786,0.2621462643146515
1759485808085882400,7.70288232421875,-0.8766739964485168,-0.15893490612506866,0.1826530545949936
1759485808095938600,7.7129384765625,-0.8050373792648315,-0.1477130502462387,0.11770948022603989
1759485808105993500,7.722993408203125,-0.614324152469635,-0.10266568511724472,0.09412798285484314
1759485808116048600,7.733048583984375,-0.4407117962837219,0.00011689515667967498,0.14027829468250275
1759485808126103600,7.743103515625,-0.3810814917087555,0.16253456473350525,0.2490393966436386
1759485808136158500,7.753158447265625,-0.28386616706848145,0.16604825854301453,0.29375889897346497
1759485808146213600,7.763213623046875,-0.20186080038547516,0.14624705910682678,0.3294888734817505
1759485808156269600,7.77326953125,-0.17564119398593903,0.10087104886770248,0.35233986377716064
1759485808166325200,7.7833251953125,-0.21682167053222656,0.01851653680205345,0.3610478639602661
1759485808176380400,7.79338037109375,-0.2890883982181549,-0.10556440055370331,0.3393348455429077
1759485808186435300,7.803435302734375,-0.3487209379673004,-0.16943764686584473,0.32586342096328735
1759485808196490200,7.813490234375,-0.3982839584350586,-0.197696715593338,0.3026907444000244
1759485808206546400,7.82354638671875,-0.40305522084236145,-0.19760844111442566,0.27014097571372986
1759485808216601300,7.833601318359375,-0.3540267050266266,-0.1759691834449768,0.2243998497724533
1759485808226656500,7.843656494140625,-0.29652610421180725,-0.16951102018356323,0.1529269963502884
1759485808236711200,7.853711181640625,-0.27840784192085266,-0.13658156991004944,0.07931137084960938
1759485808246766300,7.863766357421875,-0.27046507596969604,-0.07028105854988098,0.008451261557638645
1759485808256821500,7.873821533203125,-0.2327680140733719,0.022802818566560745,-0.04382419213652611
1759485808266877400,7.88387744140625,-0.1695561707019806,0.12386555969715118,-0.0704878717660904
1759485808276932400,7.893932373046875,-0.1343047022819519,0.17352019250392914,-0.07993250340223312
1759485808286987300,7.9039873046875,-0.11255885660648346,0.157537043094635,-0.07472347468137741
1759485808297042400,7.91404248046875,-0.0676550418138504,0.09124112129211426,-0.039065081626176834
1759485808307097300,7.924097412109375,-0.024878546595573425,-0.020291004329919815,-0.014882512390613556
1759485808317152300,7.93415234375,-0.005226173438131809,-0.0867406576871872,0.01305223349481821
1759485808327208200,7.944208251953125,0.0036360276862978935,-0.08301649242639542,0.0378744937479496
1759485808337263400,7.954263427734375,0.011058714240789413,-0.03238729014992714,0.05141191557049751
1759485808347318500,7.964318603515625,0.006266622804105282,0.0405401811003685,0.05127902328968048
1759485808357373200,7.974373291015625,-0.02309798076748848,0.09259957075119019,0.03784375637769699
1759485808367428400,7.984428466796875,-0.0446525402367115,0.11167313158512115,0.02236812561750412
1759485808377483300,7.994483154296875,-0.03423284739255905,0.12544608116149902,0.01956137642264366
1759485808387539500,8.00453955078125,-0.02952944114804268,0.11629866063594818,0.003019152209162712
1759485808397594000,8.014593994140625,-0.04817986860871315,0.08463624119758606,-0.02709280699491501
1759485808407649300,8.024649169921876,-0.0683666244149208,-0.036933597177267075,-0.12427075207233429
1759485808417704400,8.034704345703124,-0.15467385947704315,-0.24039918184280396,-0.2559570074081421
1759485808427759400,8.04475927734375,-0.22042889893054962,-0.03552434220910072,-0.0959809273481369
1759485808437814300,8.054814208984375,-0.20367063581943512,0.044061146676540375,0.055698007345199585
1759485808447870200,8.0648701171875,-0.20226873457431793,-0.15969598293304443,0.04742196574807167
1759485808457925400,8.07492529296875,-0.1614934504032135,-0.24028530716896057,0.08945698291063309
1759485808467980300,8.084980224609374,-0.13455770909786224,-0.2939474582672119,0.09449009597301483
1759485808478035200,8.09503515625,-0.09574682265520096,-0.2812974750995636,0.07260005921125412
1759485808488090400,8.10509033203125,-0.05035989359021187,-0.22555138170719147,0.012213947251439095
1759485808498146300,8.115146240234376,-0.026328161358833313,-0.1092582419514656,-0.04260377958416939
1759485808508201500,8.125201416015624,-0.03027709573507309,0.004480309784412384,-0.0990084633231163
1759485808518256400,8.13525634765625,-0.040458180010318756,0.06291254609823227,-0.14435169100761414
1759485808528311300,8.145311279296875,-0.021457314491271973,0.07061497122049332,-0.1578379124403
1759485808538366200,8.1553662109375,0.015495642088353634,0.0491805225610733,-0.1260773241519928
1759485808548421400,8.16542138671875,0.0423581637442112,-0.00863511860370636,-0.08631923049688339
1759485808558477300,8.175477294921874,0.05843087658286095,-0.06718045473098755,-0.04306177422404289
1759485808568532200,8.1855322265625,0.06861716508865356,-0.10262531787157059,0.00038547487929463387
1759485808578587400,8.19558740234375,0.05672748386859894,-0.10456570237874985,0.029747359454631805
1759485808588642300,8.205642333984375,0.03947800397872925,-0.08336782455444336,0.04116618633270264
1759485808598697500,8.215697509765626,0.041805073618888855,-0.06682027131319046,0.036404453217983246
1759485808608752000,8.225752197265624,0.047924671322107315,-0.056829068809747696,0.014116200618445873
1759485808618808300,8.235808349609375,0.042565058916807175,-0.04416760429739952,-0.010449063032865524
1759485808628863200,8.24586328125,0.027823131531476974,-0.020108873024582863,-0.03057403676211834
1759485808638918400,8.25591845703125,0.013878286816179752,0.005169053561985493,-0.0444890558719635
1759485808648973300,8.265973388671876,-0.015100949443876743,0.027162380516529083,-0.04802003875374794
1759485808659028200,8.2760283203125,-0.02896243706345558,0.0356416180729866,-0.041072916239500046
1759485808669083400,8.28608349609375,-0.0234727393835783,0.028201814740896225,-0.027946341782808304
1759485808679139300,8.296139404296875,-0.014217987656593323,0.011009512469172478,-0.01997070573270321
1759485808689194500,8.306194580078126,-0.0007101688534021378,-0.015300121158361435,-0.021098820492625237
1759485808699249200,8.316249267578126,-0.0029829852283000946,-0.030727162957191467,-0.02390175499022007
1759485808709304300,8.32630419921875,-0.008112765848636627,-0.030409447848796844,-0.019459867849946022
1759485808719359500,8.336359375,-0.019339004531502724,-0.027152542024850845,-0.013502480462193489
1759485808729414100,8.3464140625,-0.023872770369052887,-0.023889105767011642,-0.006524999160319567
1759485808739470300,8.35647021484375,-0.024546805769205093,-0.03183647617697716,0.0017401548102498055
1759485808749525200,8.366525146484374,-0.010391837917268276,-0.04903756454586983,0.003859498305246234
1759485808759580400,8.376580322265625,0.013559874147176743,-0.06013920530676842,0.0014765881933271885
1759485808769635300,8.38663525390625,0.026453835889697075,-0.05403071269392967,0.0015040189027786255
1759485808779690200,8.396690185546875,0.023435624316334724,-0.038103457540273666,-0.0026772632263600826
1759485808789745400,8.406745361328126,0.01563868671655655,-0.017692727968096733,-0.00395824434235692
1759485808799801300,8.41680126953125,0.0017304541543126106,-0.009082797914743423,-0.004115027375519276
1759485808809856500,8.4268564453125,-0.006388991139829159,-0.009745658375322819,0.0005606841295957565
1759485808819911200,8.4369111328125,-0.007647826336324215,-0.019103918224573135,0.006626961752772331
1759485808829966300,8.44696630859375,-0.0006679478101432323,-0.03055897355079651,0.009670955128967762
1759485808840021200,8.457021240234376,0.01320389099419117,-0.03292418271303177,0.005129371769726276
1759485808850077400,8.467077392578124,0.031113648787140846,-0.008698472753167152,0.0012273085303604603
1759485808860132000,8.477132080078125,0.03493426740169525,0.023891285061836243,-0.0044027166441082954
1759485808870187300,8.487187255859375,0.033088430762290955,0.054226819425821304,-0.005410989746451378
1759485808880242400,8.497242431640625,0.031555186957120895,0.06695981323719025,-0.0019445428624749184
1759485808890297300,8.50729736328125,0.022462088614702225,0.05602940171957016,-0.0014987299218773842
1759485808900352300,8.517352294921874,0.026800399646162987,0.03050648607313633,-0.003278192598372698
1759485808910408200,8.527408203125,0.031551048159599304,0.007422912400215864,-0.0031985477544367313
1759485808920463400,8.53746337890625,0.03105090744793415,0.0007413075072690845,-0.0023207697086036205
1759485808930518300,8.547518310546875,0.026547135785222054,0.00214568548835814,-0.000027538742870092392
1759485808940573200,8.5575732421875,0.017284659668803215,0.0023305087815970182,0.000463015865534544
1759485808950628400,8.56762841796875,-0.0015871715731918812,-0.012822072952985764,0.005218742415308952
1759485808960683300,8.577683349609375,-0.015508580021560192,-0.03309698402881622,0.012239634059369564
1759485808970739500,8.587739501953125,-0.020647240802645683,-0.060903795063495636,0.016313977539539337
1759485808980794400,8.59779443359375,-0.02592216432094574,-0.06834679841995239,0.016079355031251907
1759485808990849300,8.607849365234374,-0.019777392968535423,-0.0604623518884182,0.02000931091606617
1759485809000904400,8.617904541015625,-0.020013881847262383,-0.1146443635225296,0.04263446480035782
1759485809010959400,8.62795947265625,-0.0421859472990036,-0.19930481910705566,0.0546007938683033
1759485809021014300,8.63801416015625,-0.06511629372835159,-0.25798195600509644,0.07166845351457596
1759485809031070200,8.6480703125,-0.09945634752511978,-0.24647262692451477,0.06802019476890564
1759485809041125400,8.65812548828125,-0.11563931405544281,-0.16281342506408691,0.0396314300596714
1759485809051180300,8.66818017578125,-0.10184678435325623,0.043868135660886765,-0.019396942108869553
1759485809061235500,8.6782353515625,-0.0530448853969574,0.2479722648859024,-0.0813916027545929
1759485809071290400,8.688290283203125,-0.021371113136410713,0.32650864124298096,-0.1060657873749733
1759485809081345300,8.69834521484375,-0.009091627784073353,0.29420268535614014,-0.09202053397893906
