time,seconds_elapsed,z,y,x
1759160383216988200,0.06198828125,-0.12806063578911125,0.013339374044537543,-0.3420429206222296
1759160383227046000,0.0720458984375,-0.0880734202504158,-0.03293605491816997,-0.3347702992707491
1759160383237103000,0.08210302734375,-0.05352335426434874,-0.04049567651748657,-0.3179129802331328
1759160383247160000,0.09216015625,0.010682868186384439,-0.035599136647582054,-0.24354192212074993
1759160383257217800,0.1022177734375,0.05349208234325051,-0.015189385825395583,-0.14120850584954023
1759160383267275000,0.11227490234375,0.08650061797574161,0.004309679892659187,-0.057820613066852086
1759160383277333000,0.1223330078125,0.09761164844632148,-0.02171732628941536,0.021592823126912117
1759160383287390000,0.132389892578125,0.09824132465198636,-0.04841653264462947,0.06850830355882644
1759160383297447000,0.142447021484375,0.11484035807959735,-0.0631686960965395,0.04914952309429645
1759160383307505000,0.1525048828125,0.07350552732422948,-0.03939268371164799,-0.03288578603565693
1759160383317562000,0.16256201171875,0.003964373586326837,0.002011339822411537,-0.11890490410476923
1759160383327619000,0.172619140625,-0.03716784726902842,0.0034592005431652068,-0.1397454475596547
1759160383337677000,0.182677001953125,-0.05115910935103893,-0.07612929995656013,-0.12476561283171177
1759160383347734000,0.192734130859375,-0.00446618562862277,-0.11838029570877551,-0.12379881362617015
1759160383357791000,0.202791015625,0.04079787433445453,-0.08263912024199963,-0.09329670785665511
1759160383367849200,0.21284912109375,0.09125022365562617,-0.035223873594403265,-0.07587415615171193
1759160383377906200,0.22290625,0.103671971398592,0.030385785913467404,-0.0783770788833499
1759160383387963100,0.232963134765625,0.03870879310071468,0.08348843054771422,-0.1217097323924303
1759160383398020900,0.243020751953125,-0.02328274897523224,0.11735387527048587,-0.13309154262840747
1759160383408078000,0.253078125,-0.0731451695792377,0.08373685235083103,-0.12127572488933801
1759160383418135800,0.2631357421875,-0.0903472104012966,-0.029697803649306295,-0.06521160010099411
1759160383428193000,0.273193115234375,-0.09161270029246807,-0.14702537543475627,0.002065115836262703
1759160383438250000,0.28325,-0.033422450195625425,-0.18273089506626128,0.0679044924467802
1759160383448308000,0.293307861328125,-0.0034369887113571166,-0.13434884921312332,0.04211889380514622
1759160383458365000,0.303364990234375,0.008862667021900415,-0.03834229787588119,-0.011813771912455558
1759160383468422000,0.313421875,-0.02873144283518195,0.05445055211186409,-0.09514204346239566
1759160383478480100,0.323480224609375,-0.08247896124422549,0.1088695400416851,-0.19397505039721727
1759160383488537000,0.333537109375,-0.13961086139455436,0.12378069344758987,-0.2821633291989565
1759160383498594000,0.343593994140625,-0.13204042614027858,0.07267945176362992,-0.2896919711381197
1759160383508652000,0.353652099609375,-0.08345686636567115,-0.05491992318928241,-0.1978840405344963
1759160383518709000,0.363708984375,0.015613748717308043,-0.11421616176664828,-0.11852642618119716
1759160383528766000,0.373765869140625,0.0812070416122675,-0.12130933489799499,-0.05048603239506483
1759160383538824200,0.38382421875,0.10780746376812457,-0.05481821638047695,-0.008868073849380017
1759160383548881200,0.393881103515625,0.08359298690073191,0.0054226095706224435,0.005574293000996112
1759160383558938000,0.403938232421875,0.004987725284695625,0.02036182002723217,0.01818359920531511
1759160383568995800,0.413995849609375,-0.08459595339819788,0.02182838544845581,-0.03017769612073898
1759160383579052800,0.424052734375,-0.10085172634609044,-0.018072832307219504,-0.09776859257370232
1759160383589111000,0.434111083984375,-0.08766542397141457,-0.008299041789770126,-0.11354893002957105
1759160383599168000,0.44416796875,-0.044701896035671235,0.017407061874866486,-0.12880787395983934
1759160383609225000,0.454224853515625,0.01426759480535984,0.008896423161029815,-0.0801283064648509
1759160383619283000,0.464282958984375,0.03378536522388458,-0.005975567278265953,-0.02358253563940525
1759160383629340000,0.47433984375,0.058545712471008295,-0.011364274579286574,0.005770107834041118
1759160383639396900,0.48439697265625,0.03970474533550441,-0.010578092637658118,0.03183481567800045
1759160383649455000,0.494455078125,0.012379004579782485,0.0062432783037424085,0.037682957184314726
1759160383659512000,0.504511962890625,0.016936521753668783,0.018462708407640457,0.06969254490733147
1759160383669569000,0.514569091796875,0.015963438937813042,0.048801732569932935,0.09406330831497907
1759160383679627000,0.524626953125,-0.04380472800023853,0.086622052398324,0.03226239344030619
1759160383689684000,0.53468408203125,-0.07761281651258468,0.032874095597863195,-0.0370326765820384
1759160383699741000,0.544740966796875,-0.08514204297363757,-0.02749649421274662,-0.07739449758678674
1759160383709799200,0.554799072265625,-0.06618994361385702,-0.0865659382969141,-0.09556348374485969
1759160383719856000,0.564856201171875,-0.016248539489507673,-0.09997545496821403,-0.09855915842950344
1759160383729913000,0.5749130859375,0.008742109382152558,-0.00601531476676464,-0.10479162307828664
1759160383739970800,0.584970703125,-0.027725042271614073,0.09486439556479453,-0.13091799798160791
1759160383750027800,0.59502783203125,-0.0749335143007338,0.1632616399645805,-0.17615327024161814
1759160383760085000,0.6050849609375,-0.14638225522562862,0.16467209128439425,-0.20622838277071714
1759160383770143000,0.61514306640625,-0.1679967056624591,0.10000117393136024,-0.23439386228621004
1759160383780200000,0.625199951171875,-0.1497159296929836,0.06069090780615806,-0.19468173736184835
1759160383790257000,0.6352568359375,-0.08807984999120234,-0.0005032733470201492,-0.12209347101300955
1759160383800315000,0.64531494140625,-0.008597001823037862,-0.0976765303760767,-0.06571253536045552
1759160383810372000,0.6553720703125,0.058081163699179886,-0.1633113243252039,-0.024070319156348705
1759160383820430000,0.66543017578125,0.07958850049972534,-0.15378770917654036,-0.047744624732434744
1759160383830487000,0.675487060546875,0.06303498671427368,-0.07924889328181743,-0.11510697312653063
1759160383840544000,0.6855439453125,0.019589082089066505,-0.01967325324118137,-0.16914543730616569
1759160383850602000,0.69560205078125,-0.014080547800660132,-0.021516250759363174,-0.16042992366999387
1759160383860659000,0.705658935546875,-0.008583850080519914,-0.058085693743824954,-0.13145225098878144
1759160383870716200,0.715716064453125,0.04144888558909297,-0.06556640488803386,-0.08155863152891397
1759160383880774100,0.725774169921875,0.08380516834668815,-0.04453296920955181,-0.08055676100999117
1759160383890831000,0.7358310546875,0.08845043686926364,-0.04452420138120651,-0.10511515594422817
1759160383900888000,0.74588818359375,0.1185685117572546,-0.0498749147593975,-0.10420154823064803
1759160383910945800,0.75594580078125,0.12265724237561225,-0.07402735924124718,-0.10998656137287616
1759160383921002800,0.766002685546875,0.12499182280302047,-0.046344402545690534,-0.1024663950011134
1759160383931059700,0.776059814453125,0.07950549839138984,-0.008660860839486122,-0.10220832858681678
1759160383941117700,0.78611767578125,0.021415274602919816,-0.0013169278174638747,-0.05702157164365053
1759160383951174700,0.796174560546875,0.0013350479960441588,-0.042536826956272124,0.010115443561971187
1759160383961231600,0.806231689453125,-0.05132964361235499,-0.03722176941335201,0.023350480449199674
1759160383971289600,0.81628955078125,-0.08309621635973453,-0.03349778045415878,0.0012160977914929389
1759160383981346600,0.8263466796875,-0.16393968535661696,-0.01146422782242298,-0.02478986560255289
1759160383991403500,0.836403564453125,-0.1971777919612825,0.034440614262223244,-0.08054536283314227
1759160384001461800,0.846461669921875,-0.19812785922773182,0.10687047517895698,-0.11283318297564983
1759160384011518700,0.856518798828125,-0.17868549213297663,0.09719839147031306,-0.11440759268552064
1759160384021575700,0.86657568359375,-0.15968334308639168,0.03997954368889332,-0.06807838770896196
1759160384031633700,0.876633544921875,-0.1153612401485443,-0.015448913544416427,-0.034005729976296424
1759160384041690600,0.886690673828125,-0.03933466991409659,-0.0646194794267416,-0.027718904791772365
1759160384051747600,0.89674755859375,-0.0011713818669319151,-0.055147886726260184,-0.046487318147718906
1759160384061805800,0.906805908203125,0.02959434327483177,-0.05086977101564407,-0.06441840389668942
1759160384071862800,0.91686279296875,0.03560337443128228,-0.042539165043830866,-0.0753662066295743
1759160384081919700,0.926919677734375,0.004311433458328247,0.0036789807736873625,-0.06631488516777753
1759160384091977500,0.9369775390625,-0.060069561037421226,0.03417056514918804,-0.03493219717144966
1759160384102034700,0.94703466796875,-0.14550971017479897,0.011228665500879286,-0.018000936114788053
1759160384112092000,0.957091796875,-0.19304405315741896,-0.0367559054672718,-0.023570552940666675
1759160384122149600,0.967149658203125,-0.17316577886343001,-0.09480418981015681,-0.06490443384796381
1759160384132206600,0.97720654296875,-0.08473872286975383,-0.14298749822080134,-0.10720891335308551
1759160384142263600,0.987263671875,-0.0058019642770290375,-0.13678805905878544,-0.08306406765580177
1759160384152321500,0.997321533203125,0.019789573097229004,-0.06795651489496231,-0.05461509502381086
1759160384162378500,1.00737841796875,-0.00019683774635195731,-0.0016916063487529753,-0.0700479342162609
1759160384172435700,1.017435791015625,-0.043789603496342894,0.046373628640174865,-0.10547989760339259
1759160384182493700,1.02749365234375,-0.0768190357863903,0.07245441083610057,-0.11717033539712428
1759160384192550700,1.037550537109375,-0.07342997786998748,0.0642664282053709,-0.10316986709535121
1759160384202607600,1.047607666015625,-0.05219663570523262,0.03456628646850586,-0.09385141912996768
1759160384212665600,1.05766552734375,-0.014651625686883926,0.0177899237126112,-0.11272884581834078
1759160384222722800,1.067722900390625,-0.015920038187503812,-0.0020744681864976883,-0.14229805465191603
1759160384232779800,1.07777978515625,-0.04046805785819888,-0.04236205491125583,-0.10794278058558701
1759160384242837800,1.087837646484375,-0.02489011110663414,-0.07597615522146224,-0.07934943104684353
1759160384252894700,1.097894775390625,-0.04725567217171192,-0.07018471233844757,-0.06342588572800159
1759160384262951700,1.10795166015625,-0.05154606284201145,-0.06837444804608822,-0.07567395740449429
1759160384273009700,1.118009765625,-0.02442490474767983,-0.046643093231320376,-0.085491879324615
1759160384283066600,1.128066650390625,-0.01037592112906277,0.027202479702234265,-0.10592764137089251
1759160384293123800,1.138123779296875,-0.013828472735732794,0.05672083513140678,-0.1305453652769327
1759160384303181600,1.148181640625,-0.010765139642357825,0.028320670077204704,-0.1538607744127512
1759160384313238500,1.158238525390625,-0.03137596599459648,0.014490297645330429,-0.13289748136103152
1759160384323295500,1.16829541015625,-0.0708282709389925,0.008742109382152558,-0.14804419708848
1759160384333353700,1.178353759765625,-0.08979059943184256,0.03301730346083641,-0.14324264202564954
1759160384343410700,1.18841064453125,-0.09853446237966418,0.04103986639678478,-0.11817600530833006
1759160384353467600,1.198467529296875,-0.08601809515580534,0.017597031489014623,-0.08006050192564726
1759160384363525600,1.208525634765625,-0.006901449951529502,-0.06160919169485569,-0.022121815437078474
1759160384373582600,1.21858251953125,0.05404825492128729,-0.07206804186701775,0.020279694701731205
1759160384383639600,1.2286396484375,0.12315342839471995,-0.06799333977401256,-0.006024959377944469
1759160384393696500,1.238696533203125,0.12864683817923067,-0.05010463186204433,-0.06047609601169824
1759160384403754800,1.248754638671875,0.14606982827559112,-0.06796645176708697,-0.09079641547352076
1759160384413811700,1.258811767578125,0.15526961829736827,-0.10069383237063884,-0.09190496123731136
1759160384423868700,1.26886865234375,0.20123218191862105,-0.12918167570829392,-0.09064911595731973
1759160384433926700,1.2789267578125,0.2347176143478602,-0.15255612155497073,0.0013330021694302559
1759160384443983600,1.288983642578125,0.2332971530906856,-0.1562351023286581,0.10147300004959106
1759160384454040800,1.299040771484375,0.2081529210925102,-0.13064414947628974,0.12731938896775244
1759160384464098800,1.309098876953125,0.2088630421232432,-0.1334030927956104,0.08807166668474674
1759160384474155800,1.31915576171875,0.14303601353764533,-0.09829963071048259,-0.004688742338120937
1759160384484212700,1.329212646484375,0.03471402437612414,-0.041456045982241625,-0.13639759843647478
1759160384494270500,1.3392705078125,-0.06055369129255413,0.02931201920211315,-0.2583361711487174
1759160384504327700,1.34932763671875,-0.12954933997690676,0.06877133840918541,-0.31688919014334677
1759160384514384600,1.359384521484375,-0.17794366078972815,0.07645137151777744,-0.2399266542330384
1759160384524442600,1.369442626953125,-0.22771686874032018,0.04533434872031212,-0.13979951583445072
1759160384534499600,1.37949951171875,-0.16895882869288326,-0.045755789002776145,-0.0417056368291378
1759160384544556500,1.389556640625,-0.13323986505791544,-0.07932137399613856,0.03272387347221374
1759160384554614800,1.39961474609375,-0.09670607790872454,-0.06040098494887352,0.0770870390728116
1759160384564671700,1.409671630859375,0.06084631756357848,0.03348609001636505,0.09816694424152374
1759160384574728700,1.419728759765625,0.03679389939010143,0.10591127475798129,0.058140638801455494
1759160384584786700,1.42978662109375,-0.02603285140097141,0.20546119779050348,-0.054983343814313405
1759160384594843600,1.43984375,-0.060761634954810136,0.2630266670525074,-0.21893442734777926
1759160384604900600,1.449900634765625,-0.030037849258631465,0.14321487723588944,-0.309001651763916
1759160384614957600,1.45995751953125,0.052826750302314755,-0.03977437650561332,-0.3223670370325446
1759160384625015800,1.470015869140625,0.14989435499981044,-0.16639350824952123,-0.25539105760753156
1759160384635072800,1.48007275390625,0.21159692406654357,-0.18504560174942017,-0.1680532581552863
1759160384645129700,1.490129638671875,0.22250717126801609,-0.15230127001106739,-0.10580898342728615
1759160384655187700,1.500187744140625,0.199264681237936,-0.1230295828193426,-0.09275807093530893
1759160384665244700,1.51024462890625,0.09020451399497688,-0.1326326929450035,-0.09267711465358734
1759160384675301600,1.520301513671875,0.06352934610247611,-0.14522212540507315,-0.04463175340890884
1759160384685359600,1.530359619140625,0.17340967062190174,-0.13022621632516385,0.002412029577791691
1759160384695416600,1.54041650390625,-0.00898468596637249,-0.17799509871602057,0.050991643829643725
1759160384705473500,1.5504736328125,-0.07595452791154385,-0.22364567377865313,0.06507774458825588
1759160384715531500,1.560531494140625,0.002594108146429062,-0.25825638391077516,0.07998831347227096
1759160384725588500,1.57058837890625,-0.1814846943974495,-0.2791647319048643,0.06548690991103649
1759160384735645700,1.580645751953125,-0.2298468665063381,-0.24532792875468729,0.11024199743866919
1759160384745703700,1.59070361328125,-0.053532341288402674,-0.20253625025451183,0.09451455921381711
1759160384755760600,1.6007607421875,-0.08075754427909851,-0.03722410750091076,0.09582301146388053
1759160384765817600,1.610817626953125,-0.1281581778794527,0.15127075791954994,0.07906476888656616
1759160384775874600,1.62087451171875,-0.13309804543443024,0.2828250079780817,0.09521890809088945
1759160384785932800,1.630932861328125,0.13858078769445417,0.259004571929574,0.05856383264958858
1759160384795989800,1.64098974609375,-0.059196285334229465,0.09304127179086208,0.011981237433850765
1759160384806046700,1.651046630859375,-0.23750059612989424,-0.06603460692167282,-0.07111965510100125
1759160384816104700,1.661104736328125,-0.2200695688575506,-0.2260784538835287,-0.16742431260198354
1759160384826161700,1.67116162109375,-0.2560118198543787,-0.29511691879630086,-0.23918898760825394
1759160384836218600,1.681218505859375,-0.28962533564269544,-0.35737025361359115,-0.33208617475330826
1759160384846276900,1.69127685546875,-0.23489830467700956,-0.30697862150371075,-0.26152561483979225
1759160384856333800,1.701333740234375,0.2762415379345417,-0.2684673968017101,-0.2511652566060424
1759160384866390800,1.711390869140625,0.40396600057184695,-0.177654906976223,-0.14165011213719844
1759160384876447700,1.72144775390625,0.7055437859453261,-0.12447510545253752,-0.17618161955326794
1759160384886505700,1.731505615234375,0.5848953991740942,-0.16047347055077552,-0.17304799770265816
1759160384896562700,1.741562744140625,0.6951810896240175,-0.3189478762388229,-0.10014321275055407
1759160384906619600,1.75161962890625,0.5146164326809346,-0.5500327601075172,0.021839199103415013
1759160384916677600,1.761677734375,0.23655133258104322,-0.740066087141633,0.16823533672392368
1759160384926734800,1.77173486328125,0.08006605488359927,-0.7611059525609016,0.26269641218483447
1759160384936791800,1.781791748046875,-0.16336217772960662,-0.7589946594953536,0.2802671401888132
1759160384946849800,1.791849853515625,-0.373160674072057,-0.5813403370410204,0.26820640777796506
1759160384956907000,1.801906982421875,-0.6500900481402874,-0.2730857042521238,0.22057401124835013
1759160384966964000,1.8119638671875,-0.8479314185768365,-0.04031622829735279,0.16126432866752147
1759160384977021000,1.82202099609375,-0.9145844496577977,0.4564642495721578,0.215415605571866
1759160384987079000,1.832078857421875,-0.6451017383337021,0.7850362787246704,0.3012596593350172
1759160384997136000,1.842135986328125,-0.6744308548010886,0.9267851750612258,0.3302550138033926
1759160385007192800,1.85219287109375,-0.605658055087179,1.0669260516792536,0.3234552706606686
1759160385017251000,1.8622509765625,-0.4450773247696459,1.2641454908251761,0.13512217167317866
1759160385027308000,1.87230810546875,-0.3267037510626018,1.4425941785275935,-0.12106865800991654
1759160385037365000,1.882364990234375,-0.14852525860369203,1.3975696264088153,-0.3382072879821062
1759160385047422000,1.892421875,0.10340820589587092,1.3163649228841066,-0.329691973093152
1759160385057480000,1.90247998046875,0.4156447479277849,1.4114894306898116,-0.6129679397091269
1759160385067537000,1.912536865234375,0.5458280018940568,1.3285212246239184,-0.8128143663577735
1759160385077593900,1.92259375,0.18435498913675546,0.9594880057454108,-0.5411984423972666
1759160385087652000,1.932652099609375,-0.35213483717814087,0.6738999627947807,-0.005203267731517553
1759160385097709000,1.942708984375,-0.7449351544827222,0.2654214532345533,0.022009294973313807
1759160385107766000,1.95276611328125,-0.7763961684122681,-0.06581015051603317,0.07882686847746372
1759160385117823700,1.96282373046875,-0.7337807232618332,-0.15744740072786806,0.3168839294463396
1759160385127880700,1.972880615234375,-0.7154995089009404,0.11962766542136669,0.3802105925835669
1759160385137938000,1.98293798828125,-0.5968363045975565,0.3669803780019283,0.1863151832938194
1759160385147995000,1.992994873046875,-0.5295400071769952,0.4304980336666107,-0.013888386229425669
1759160385158052900,2.003052978515625,-0.4791773089006543,0.43520285035669803,0.02159764543250203
1759160385168109800,2.01310986328125,-0.4213891367986798,0.49860067903399463,0.35481077838912606
1759160385178166800,2.023166748046875,-0.5871352870553732,0.31399697583317754,0.4985281983196735
1759160385188225000,2.03322509765625,-0.8612801449716091,-0.2246498823851347,0.27272198550626636
1759160385198282000,2.043281982421875,-1.1749208547130225,-0.3379915994048118,0.18439809762611983
1759160385208339000,2.0533388671875,-1.3017358012899756,-0.3516436926603317,-0.27342604212239385
1759160385218396000,2.06339599609375,-1.0689292081952095,-0.39664603294730183,-0.5861881423983722
1759160385228454000,2.073453857421875,-0.7424976982027292,-0.43076866730153557,-0.6359267904922365
1759160385238510800,2.0835107421875,-0.4113958583116531,-0.5534019442796707,-0.37547530768997966
1759160385248567800,2.09356787109375,-0.3303296864748001,-0.7499807474344968,-0.18697620448581873
1759160385258626000,2.1036259765625,-0.31297610835283995,-0.7098533197075129,-0.0296708425771445
1759160385268683000,2.11368310546875,-0.11172229912430047,-0.5491723438858985,0.22471549496725202
1759160385278740000,2.123739990234375,0.06465367395728826,-0.20380115562379358,0.4331972096227109
1759160385288798000,2.1337978515625,0.15552198562324046,0.0802963565081358,0.6805035988435149
1759160385298855000,2.14385498046875,0.1368202077627182,0.2702975348383188,0.5974062865052372
1759160385308911900,2.153911865234375,0.11887538574934005,0.31166882514655586,0.5364513209354133
1759160385318969000,2.163968994140625,0.011276596295833587,0.0859340701341629,0.6323249666079879
1759160385329026800,2.17402685546875,-0.13249182316958905,-0.18699673581719398,0.6460534861005842
1759160385339084000,2.184083984375,-0.07342471717298031,-0.24129414319396017,0.8489400841627269
1759160385349141000,2.19414111328125,-0.27716157538890834,-0.11476619686484336,0.7579483653128146
1759160385359198000,2.204197998046875,-0.44461862121671436,-0.06083820732235908,0.4046516447484493
1759160385369256000,2.214255859375,-0.5181731022492051,0.11641279502809047,0.36049923582170157
1759160385379313000,2.22431298828125,-0.585322684675455,0.1915618517756462,0.29749460771307346
1759160385389369900,2.234369873046875,-0.48108197347819803,0.16096037728488444,0.2522718296084553
1759160385399427800,2.244427734375,-0.35589696619063615,0.03464987309873104,0.2765817844732664
1759160385409484800,2.25448486328125,-0.042839024773240086,-0.15481354509294032,0.2924396624110639
1759160385419541800,2.264541748046875,0.04406009100079536,-0.1959925276994705,0.29713878001272676
1759160385429598700,2.2745986328125,0.11965806055963038,-0.1413859082430601,0.18633688366897402
1759160385439657000,2.284656982421875,0.19360563256293534,-0.06545885286033153,-0.13873948538750408
1759160385449714000,2.2947138671875,0.11067483589798212,0.02740706236362457,-0.2654193708753213
1759160385459771000,2.30477099609375,-0.04552198024690151,0.16946633982360362,-0.28080888238269835
1759160385469828900,2.314828857421875,-0.3334095323115587,0.29212124411165713,-0.24905210037697106
1759160385479885800,2.3248857421875,-0.24984540617913006,0.22793372636139392,-0.011199804732576013
1759160385489943000,2.334943115234375,0.07739975828379392,0.058200260034203526,0.17242957354336977
1759160385500000000,2.345,0.1499479848831892,-0.06552198122441769,0.38690943263508376
1759160385510058000,2.35505810546875,0.37331834885179993,-0.11139467460513114,0.2845405797243118
1759160385520115000,2.365114990234375,0.8062079538300633,-0.01746960571706295,-0.07028634608201682
1759160385530172000,2.375171875,0.890323868626356,0.06956102748215198,-0.2876020131215453
1759160385540230000,2.38522998046875,0.5597931066215038,0.08837327997982501,-0.38113114149458704
1759160385550287000,2.395287109375,0.21292408101707697,0.164038469555974,-0.41625951882526274
1759160385560344000,2.405343994140625,0.03312573227137327,0.27190380099117756,-0.3255553116798401
1759160385570401000,2.415401123046875,0.03207330060899258,0.29317104542553424,-0.11680807795599102
1759160385580458800,2.425458740234375,0.045629240013659,0.2101186682075262,0.10894874275773762
1759160385590516000,2.435515869140625,0.13564385745972393,0.10897475398182868,0.2623414612673223
1759160385600573000,2.445572998046875,0.45284255194365974,0.062030047455430025,0.25984482214599847
1759160385610631000,2.455630859375,0.5059200621366501,0.09180851512551307,0.13205372401326895
1759160385620688000,2.46568798828125,0.2299690315812826,0.1890869860947132,-0.1013227779239416
1759160385630744800,2.475744873046875,-0.004070318178832531,0.25043548102676866,-0.23303338758796452
1759160385640801800,2.4858017578125,-0.19800328299999237,0.32739947824180127,-0.2494143212854862
1759160385650859800,2.49585986328125,-0.2229541843831539,0.4291168084412813,-0.22120558715015648
1759160385660916700,2.505916748046875,-0.22825813601016998,0.44418052206039427,-0.30988179559931156
1759160385670974000,2.515973876953125,-0.28720336919277906,0.49147126554548737,-0.40408027460128065
1759160385681031000,2.526031005859375,-0.26911183218508955,0.5530588299304247,-0.31863749511539935
1759160385691089000,2.5360888671875,-0.09984861371815204,0.5776140099942684,-0.2233221409127116
1759160385701145900,2.546145751953125,-0.030151684896647928,0.5793056163430214,-0.226955382848531
1759160385711202800,2.556202880859375,-0.2312450428664684,0.4963835875064134,-0.3579670504629612
1759160385721261000,2.566260986328125,-0.31299568983614445,0.4341133015543222,-0.30539617461785673
1759160385731318000,2.576318115234375,-0.4678521972879767,0.4975386027604341,-0.27596272099316116
1759160385741375000,2.586375,-0.2917456887975335,0.6394622711420059,-0.07346636435762047
1759160385751432000,2.596431884765625,-0.5083014043152332,0.1646738448500633,-0.3974152637541294
1759160385761490000,2.606489990234375,-0.6553121667027473,-0.1821381898701191,-0.2951306550607085
1759160385771547000,2.616546875,-0.5339379498749971,-0.32030513606667516,-0.22674363979399204
1759160385781603800,2.626603759765625,-0.41162002245634793,-0.4059282405555248,-0.2883458172261715
1759160385791661000,2.6366611328125,-0.36487726824283595,-0.37869887284636494,-0.2498962595835328
1759160385801719000,2.646718994140625,-0.15686930857896803,-0.23103929116129873,-0.19230887075066566
1759160385811776000,2.65677587890625,0.0650616702362895,-0.09386486313343048,-0.0195762226074934
1759160385821833000,2.6668330078125,0.2833022701010108,-0.10847089611291885,0.02450315761566162
1759160385831891000,2.676890869140625,0.4454214620321989,-0.11282675323486327,0.3468172954171896
1759160385841948200,2.6869482421875,0.5139993236958981,-0.1640694492161274,0.5809112979739904
1759160385852005000,2.697005126953125,0.4847083472818136,-0.19599486578702927,0.7775289718344807
1759160385862062000,2.70706201171875,0.5812853919833898,-0.10624328319132327,0.9744409524664283
1759160385872119800,2.717119873046875,0.6206821673482656,-0.02413841595649719,0.8453411098226904
1759160385882176800,2.7271767578125,0.2647387316673994,0.06510346355140209,0.616675562055409
1759160385892233700,2.737233642578125,0.15916004986464977,0.2250286525696516,0.5206485524520278
1759160385902291000,2.747291015625,0.16365531545728443,0.2530792735338211,0.2916007273688912
1759160385912349000,2.757348876953125,0.00881166748702526,0.12851765884160996,0.19844664285331964
1759160385922406000,2.767406005859375,-0.09704524673521518,-0.06375321798622607,-0.08015168734043836
1759160385932462800,2.777462890625,0.17499387107342482,-0.3223731745123863,-0.298583718124032
1759160385942521000,2.78752099609375,0.23179273987710475,-0.6690016693592071,-0.28833909522444007
1759160385952578000,2.797578125,0.19577625460028647,-0.9008867636948823,-0.20949410656839607
1759160385962635000,2.807635009765625,-0.05522679718136787,-1.1161077234774828,-0.3721224170655012
1759160385972692000,2.81769189453125,-0.19358663560152053,-1.1268594191163777,-0.3898340148448944
1759160385982750000,2.82775,-0.44155309616625305,-0.9646797291696071,-0.1757876517996192
1759160385992807000,2.837806884765625,0.20426760409176348,-0.439124992236495,-1.3850044516071676
1759160386002863900,2.84786376953125,0.5474211163043976,-0.07211831074953079,-0.8466793726891279
1759160386012921000,2.857921142578125,0.6483177777707576,-0.08123392961919307,-0.8274538632154465
1759160386022979000,2.86797900390625,0.6137082366824149,-0.3619575814038515,-0.41941491411626336
1759160386033036000,2.8780361328125,0.477941337364912,-0.6115712246537208,-0.6115712246537208
1759160386043093000,2.888093017578125,0.3352443465232849,-0.7216507250070572,-0.6614455548912286
1759160386053150000,2.89814990234375,0.2108990049302578,-0.5967576864033937,-0.8221694930717348
1759160386063208200,2.908208251953125,0.028180969345569608,-0.2750923678994179,-0.9439368008702993
1759160386073265200,2.91826513671875,-0.3389507998257875,0.009337737187743186,-0.8799690633505582
1759160386083322000,2.928322021484375,-0.09481237311661243,0.14477847329080104,-1.3572773635089397
1759160386093380000,2.938380126953125,0.06337444780170917,0.1981143421590328,-1.1205994819387792
1759160386103437000,2.94843701171875,-0.04698679210245609,0.13005845854282377,-1.076968430005014
1759160386113494000,2.958493896484375,-0.06882394537925719,0.06919277869164943,-0.9320935106024145
1759160386123551000,2.968551025390625,0.03436287285089493,0.06525076306760311,-0.7551280471950769
1759160386133609000,2.97860888671875,-0.04036182100474834,0.09086334322988987,-0.7377104639261961
1759160386143666000,2.988666015625,-0.12629881374835966,0.16691665534079073,-0.691851799070835
1759160386153723000,2.998722900390625,-0.28352234259247777,0.1960802059829235,-0.6313824250608683
1759160386163780000,3.008780029296875,-0.24204525382220743,0.28717092822790147,-0.45814358096122737
1759160386173837800,3.018837890625,-0.1496025324463844,0.3700356739193201,-0.24476737226247786
1759160386183895000,3.02889501953125,-0.2534370009303093,0.30005028354525565,-0.30458266627788544
1759160386193952000,3.038951904296875,-0.3414268345504999,0.27900632647275925,-0.3599129238337278
1759160386204009000,3.049009033203125,-0.35007717399597166,0.3984288247108459,-0.44145723457634445
1759160386214067000,3.05906689453125,-0.26246084986329077,0.4943196407139301,-0.4786345803260803
1759160386224124000,3.0691240234375,-0.21328385424017904,0.43979953049719334,-0.3510901504307985
1759160386234180900,3.079180908203125,-0.22236089466512202,0.4193237287014723,-0.10878332306295632
1759160386244237800,3.08923779296875,-0.03866670752465725,0.554837530040741,0.13795944092571735
1759160386254296000,3.099296142578125,-0.05083703778982162,0.6253823078632355,0.19992606775611638
1759160386264353000,3.10935302734375,-0.039160043999552724,0.6922656405687332,0.24760464151501654
1759160386274410000,3.119409912109375,-0.09337035761475562,0.6620148792117834,0.22382161486744878
1759160386284468000,3.129468017578125,-0.0056336219727993,0.5935825634986162,0.05504851800501346
1759160386294525000,3.13952490234375,0.060976154488325114,0.363362772026658,0.10304244132339954
1759160386304582000,3.149581787109375,0.12366904976665972,0.14071779972314835,0.1062029511809349
1759160386314639000,3.15963916015625,0.0857902777493,0.0075333181142807,-0.14805939465761184
1759160386324697000,3.169697021484375,0.13961831404864788,-0.11446633713543414,-0.39244858125746246
1759160386334754000,3.179754150390625,0.16377835731506346,-0.1843295624345541,-0.4672390338256955
1759160386344811000,3.18981103515625,0.15207272195219992,-0.23678747942447662,-0.32847616756260395
1759160386354868000,3.199867919921875,0.10816577568650244,-0.28607261159718034,-0.34313568429499863
1759160386364926200,3.20992626953125,0.10826631345152854,-0.377232891947031,-0.29399609807282684
1759160386374983200,3.219983154296875,0.07886720048785209,-0.47425417328476904,-0.07189882277995348
1759160386385040100,3.2300400390625,0.041732524836063385,-0.48809565163254737,0.008362754675745964
1759160386395097000,3.24009716796875,-0.08282090654969215,-0.37158991762399673,0.024154782569408416
1759160386405154800,3.25015478515625,-0.13765315145552157,-0.1777104365557432,0.07560469156056641
1759160386415212000,3.2602119140625,-0.08413958793282508,0.026384733578562736,0.09199117821604012
1759160386425269000,3.27026904296875,-0.030522564035654065,0.2021440360665321,0.04733662845343351
1759160386435326200,3.280326171875,0.06741232501566409,0.2907037785291672,-0.026305238601565358
1759160386445384000,3.290384033203125,0.07158814939558505,0.20605857916176318,-0.026413375151157378
1759160386455441000,3.30044091796875,0.0518184500426054,0.11884206800162792,-0.040297523596882816
1759160386465497900,3.310497802734375,-0.011976853519678116,0.08772679876983165,-0.14372194997519253
1759160386475554800,3.320554931640625,-0.13545710271596909,0.11684592574834823,-0.24373598338812588
1759160386485613000,3.330613037109375,-0.1659866810142994,0.2492494861125946,-0.2736351548284292
1759160386495670000,3.340669921875,-0.21758125917315482,0.3681272099494934,-0.23401713792830706
1759160386505727000,3.35072705078125,-0.19043547809422015,0.3900415201157331,-0.1409159526437521
1759160386515784000,3.360783935546875,-0.12282850728929041,0.38611353301703927,-0.06214636731147766
1759160386525842000,3.370842041015625,-0.14544541276693343,0.23220073615610598,0.11434914049655198
1759160386535899000,3.38089892578125,-0.18270459158122537,-0.06512158372998238,0.1608972489207983
1759160386545955800,3.390955810546875,-0.22174597763717174,-0.1771393586695194,0.04190291296690702
1759160386556013000,3.401012939453125,-0.17526538149118423,-0.12368833898901939,0.0480386392429471
1759160386566071000,3.411071044921875,-0.1304541798621416,-0.05342763880491257,0.08609042973965406
1759160386576128000,3.4211279296875,-0.08862462439239024,0.07128244444727898,-0.0054191024392843245
1759160386586185000,3.43118505859375,-0.010957447344064711,0.16346505358219146,-0.06803922474235295
1759160386596242000,3.441241943359375,0.05155599971413612,0.2771656670421362,-0.1501680573746562
1759160386606300200,3.451300048828125,0.03528407934904098,0.24117723881602285,-0.1399438927412033
1759160386616357000,3.461357177734375,-0.030249007791280744,0.16025953553915023,-0.19361469265222547
1759160386626414000,3.4714140625,-0.04109247336685657,0.11483692401349543,-0.22247867582589387
1759160386636471000,3.481470947265625,-0.05431903468668461,0.07300035428106784,-0.15820026492178438
1759160386646529000,3.491529052734375,-0.10781155542135239,0.13904840520620346,-0.17060966463983057
1759160386656586000,3.5015859375,-0.1745744766175747,0.16786299628019333,-0.12258651522696018
1759160386666643000,3.511642822265625,-0.18454934266507625,0.30544015989005563,-0.15841799932569264
1759160386676700200,3.5217001953125,-0.15261515826582908,0.46627603401243684,-0.17686638694703577
1759160386686758100,3.531758056640625,-0.10935878486335276,0.5485661946862935,-0.16001462086737156
1759160386696815000,3.541815185546875,-0.07173194178044795,0.4642962583720684,-0.11930384029448032
1759160386706872000,3.5518720703125,-0.07006605439484119,0.3615940087884664,-0.1965893245488405
1759160386716929000,3.561928955078125,-0.08750292688608169,0.34749066463410855,-0.2352373273730278
1759160386726987000,3.571987060546875,-0.09284721052348613,0.28792788407504555,-0.1933534113675356
1759160386737044000,3.5820439453125,-0.03644143269062042,0.23888942013978956,-0.1964049078926444
1759160386747101200,3.59210107421875,0.02366436870396137,0.3273299201369285,-0.14625176071375606
1759160386757158100,3.602158203125,0.032954175096750256,0.38764147323668,-0.06558306376188994
1759160386767215900,3.6122158203125,0.06162088213264942,0.34124212563335893,-0.042191666780412196
1759160386777272800,3.62227294921875,0.012035305708646773,0.20964754356443882,-0.07094751340448856
1759160386787329800,3.632329833984375,-0.04857201546728611,0.10075403812527656,-0.07459902164936065
1759160386797387000,3.642386962890625,-0.07030044767260551,0.0033037177205085754,-0.1547121305450797
1759160386807445000,3.652445068359375,-0.03969195891916752,-0.018543372428417203,-0.18288345527946948
1759160386817502000,3.662501953125,-0.03487959020137787,0.0020335516542196275,-0.22021365350335836
1759160386827559000,3.672558837890625,-0.07700783635675906,0.11169511885643005,-0.15968261243402956
1759160386837615900,3.682615966796875,-0.07538052741587162,0.263933845025301,-0.07988660666346549
1759160386847673900,3.692673828125,-0.0713251145452261,0.37011984507143497,-0.09285802417844534
1759160386857731000,3.70273095703125,-0.04542611865699291,0.2538420745998621,0.03474135077446699
1759160386867788000,3.7127880859375,-0.12422376103997229,0.0943997006624937,-0.04978548291027546
1759160386877845000,3.722844970703125,-0.17732991280555724,-0.03397124318480491,-0.19632482839375734
1759160386887903000,3.732903076171875,-0.23867782321572303,-0.1219669220238924,-0.2630705061942339
1759160386897960000,3.7429599609375,-0.2411708090752363,-0.026924247282743452,-0.3871428760647774
1759160386908017000,3.753016845703125,-0.15659516781270502,0.04695873505175113,-0.3051356239855289
1759160386918076000,3.763075927734375,-0.0832803407549858,0.06266133109629154,-0.22778467327952384
1759160386928132900,3.7731328125,-0.05467559303939342,0.06597615473270416,-0.15253507876694203
1759160386938190600,3.783190673828125,-0.03367021441161632,-0.14085282427966594,-0.07449526901394128
1759160386948247600,3.79324755859375,0.034250644648075104,-0.38310499885082244,-0.03153524820953607
1759160386958304800,3.8033046875,0.07191431261003017,-0.33981998387575146,-0.07866115652173757
1759160386968362800,3.81336279296875,0.004039630779623985,-0.1744119795322418,-0.06672258918583393
1759160386978419700,3.823419677734375,-0.05929974570870399,-0.057385436519980425,0.006631985360383987
1759160386988476700,3.8334765625,-0.1352080963909626,0.04038929353356361,-0.02035831289589405
1759160386998533600,3.84353369140625,-0.07256722356081008,0.1886865886002779,-0.04742079960554838
1759160387008590600,3.853590576171875,0.04819850597977638,0.19334172092974186,0.15418459953963756
1759160387018648800,3.86364892578125,0.07947861038446426,0.2787637498885393,0.06540653815120458
1759160387028705800,3.873705810546875,0.04544248526990413,0.263221312841773,0.03509674008339643
1759160387038762800,3.8837626953125,0.022544424763321875,0.12076982119381427,0.08947714956849813
1759160387048819700,3.89381982421875,-0.068593059232831,0.05956336508095264,0.04616436980366707
1759160387058877700,3.903877685546875,-0.07752046205401421,0.017706921604275703,-0.008321253621578217
1759160387068934700,3.9139345703125,-0.050396308284997936,0.03902735753059387,0.0037982232391834255
1759160387078992000,3.923991943359375,-0.04228022184669971,0.0802875886797905,-0.056413084356486794
1759160387089048800,3.934048828125,-0.06506488510668278,0.12302373760044574,-0.10794044249802827
1759160387099106800,3.94410693359375,-0.05546294402480125,0.17301088056266306,-0.14556553201526404
1759160387109163800,3.954163818359375,-0.07565466818213462,0.17619769390523432,-0.1496846577718854
1759160387119220700,3.964220703125,-0.1229600247144699,0.17508710231482982,-0.14820874000042675
1759160387129277700,3.974277587890625,-0.18997896649837492,0.1330944652378559,-0.132682085044682
1759160387139336000,3.9843359375,-0.20752514458298682,0.13917232384681702,-0.2227051780581474
1759160387149393000,3.994392822265625,-0.1989332573264837,0.09670096334218978,-0.20519962424486873
1759160387159449900,4.004449951171875,-0.19101123215556143,0.033116087660193444,-0.16334844146519897
1759160387169506800,4.0145068359375,-0.19659341620206833,-0.03443535356521606,-0.2146276700645685
1759160387179564800,4.024564697265625,-0.16593524308800697,-0.0984516064018011,-0.2628732300564647
1759160387189621800,4.034621826171875,-0.1185334404438734,-0.09873626856207847,-0.2090945858567953
1759160387199679000,4.044678955078125,-0.09202361918091774,0.010578092637658118,-0.17467355307787655
1759160387209736000,4.05473583984375,-0.06374678824543953,0.11233458580374717,-0.13208119654208422
1759160387219794000,4.0647939453125,-0.0339630598783493,0.11900924126207828,-0.14921850156486033
1759160387229851000,4.074850830078125,-0.02779226228892803,0.09893442148268222,-0.162277889624238
1759160387239907800,4.084907958984375,-0.004897708913683891,0.06879822641611098,-0.13627251075208185
1759160387249964800,4.09496484375,-0.010823007309436798,0.038545711493492125,-0.09252046278715133
1759160387260021800,4.105021728515625,-0.06140168642401695,0.053690673655271526,-0.11084434724599122
1759160387270079700,4.115079833984375,-0.04879705639481544,0.10582885717153549,-0.1053968954950571
1759160387280136700,4.12513671875,-0.05222293919026851,0.09620879591107367,-0.051824295261502264
1759160387290194000,4.13519384765625,-0.06713935329318046,0.07525543973147869,-0.028021394869685173
1759160387300251000,4.1452509765625,-0.06294599325656891,0.02385258475244045,-0.05786299090385437
1759160387310308600,4.15530859375,-0.06848024650812148,0.016114683976769448,-0.08892769899219274
1759160387320365800,4.16536572265625,-0.06765080994665622,0.023898177459836006,-0.08265022615790367
1759160387330422800,4.1754228515625,-0.07444295430481433,0.034310265880823136,-0.09516308625042438
1759160387340479700,4.185479736328125,-0.04576572587490082,0.0364946241825819,-0.11719985375255346
1759160387350537700,4.195537841796875,-0.04362053053975105,-0.010833528703451155,-0.06611439415961504
1759160387360594700,4.2055947265625,-0.03167874833345413,-0.08501812433302403,-0.03724047411382198
1759160387370651600,4.215651611328125,-0.031330373287200924,-0.07050970650911331,-0.06733575264811516
1759160387380708600,4.22570849609375,-0.014687866044044495,0.007936638218164444,-0.0411959337413311
1759160387390766800,4.235766845703125,0.013479074776172637,0.09783552033007144,0.030257775619626042
1759160387400823800,4.24582373046875,-0.0017921441137790678,0.13034370522499084,0.051443771511316294
1759160387410880800,4.255880859375,-0.001978022074699402,0.16372165869176386,0.03882160582542419
1759160387420937700,4.265937744140625,-0.008146481576561927,0.1533195071429014,0.07454612241834402
1759160387430994700,4.27599462890625,-0.03484802601933479,0.13109949202835558,0.04972790750414133
1759160387441052700,4.286052734375,-0.057037061473727224,0.11324117925465106,0.0450736519575119
1759160387451110000,4.29610986328125,-0.05365034164488315,0.10361118112206459,0.04940554368197918
1759160387461166800,4.306166748046875,-0.06451601905226707,0.016919570618867872,0.04166179768741131
1759160387471223800,4.316223876953125,-0.03560907351970673,-0.010792612171173095,-0.07441022107899188
1759160387481281800,4.32628173828125,0.030282910060882566,0.04429857593178749,-0.10072715011835098
1759160387491338800,4.3363388671875,0.04885083240866661,0.08955927489399909,-0.06153378837108612
1759160387501395700,4.346395751953125,0.035892566636204715,0.11099544615447521,-0.07744096707701682
1759160387511452700,4.35645263671875,-0.036389994764328,0.09693886375129222,-0.08353548455983399
1759160387521511000,4.366510986328125,-0.09952888024449348,0.10371873314976691,-0.12861556625813245
1759160387531567900,4.37656787109375,-0.15200141028165817,0.11998773090541362,-0.13709405626803636
1759160387541624800,4.386624755859375,-0.15766250478327273,0.11125146674215793,-0.06410217755436896
1759160387551681800,4.396681884765625,-0.16757248890101908,0.09703764795064926,-0.1337722183689475
1759160387561738800,4.40673876953125,-0.10449439369738102,0.1029834046125412,-0.19323446116298437
1759160387571797000,4.416796875,-0.09205518336296081,0.023680735316872596,-0.21497692189365625
1759160387581854000,4.42685400390625,-0.11402502310872077,-0.06426876629292964,-0.3044754065111279
1759160387591911000,4.436910888671875,-0.13325462423563003,-0.07037117482125758,-0.2734030996382236
1759160387601967900,4.4469677734375,-0.1452162801861763,-0.061136898007988924,-0.21354805813431738
1759160387612025900,4.45702587890625,-0.16176760201454163,-0.04295826723873615,-0.17796674940437077
1759160387622082800,4.467082763671875,-0.1831926673591137,0.024213234758377073,-0.15499883853197097
1759160387632139800,4.477139892578125,-0.15735212365984916,0.09538754265606403,-0.10361322694867849
1759160387642197000,4.487197021484375,-0.13043489063978195,0.15160510444045067,-0.07730535799860953
1759160387652254700,4.497254638671875,-0.10004910472631454,0.16189561230838298,-0.0753048318311572
1759160387662311700,4.507311767578125,-0.05912906531691551,0.1604132647961378,-0.07404957107305526
1759160387672368600,4.51736865234375,-0.04627952061593532,0.10864508363604546,-0.13305764035880566
1759160387682425900,4.52742578125,-0.00568681346476078,0.057846624290943144,-0.1599979619935155
1759160387692483800,4.53748388671875,0.028949615630507467,0.07150982346236705,-0.14755027609169483
1759160387702540800,4.547540771484375,-0.011849427747726439,0.05565349816083908,-0.07065700602531433
1759160387712597800,4.55759765625,-0.07175473813414573,-0.019084639698266983,-0.009679390232264995
1759160387722654700,4.56765478515625,-0.09355682009756565,0.022513445103168488,-0.007847498629987239
1759160387732711700,4.577711669921875,-0.05919219368100166,0.07674304794073104,0.05968757598251104
1759160387742769700,4.587769775390625,-0.02014613144993782,0.13512801689207554,0.06905716961324214
1759160387752826600,4.59782666015625,-0.009815876093506813,0.1862725131958723,0.0417360319674015
1759160387762883800,4.6078837890625,0.040544776356220245,0.20600421862602233,0.0420978510171175
1759160387772940800,4.61794091796875,0.04114683390259743,0.15335633202195167,0.02092734495550394
1759160387782998800,4.627998779296875,0.03277881852984428,0.11714753904342651,-0.008478197748959065
1759160387793055700,4.6380556640625,-0.00414484471976757,0.02978080575764179,0.04147328937798738
1759160387803112700,4.64811279296875,-0.028588381102681158,-0.06631167029738426,0.011662380743026732
1759160387813169700,4.658169677734375,-0.03685059801340103,-0.03997019133865833,-0.07317074241191149
1759160387823228000,4.668227783203125,-0.04471358647346496,0.030080665487051007,-0.05886924533694982
1759160387833284900,4.678284912109375,-0.015092939713597297,0.07323416303694248,-0.05023936415761709
1759160387843341800,4.688341796875,-0.04401449829339981,0.06301905849277972,-0.04613923536241054
1759160387853398800,4.698398681640625,-0.18254677067101,0.07734861261844635,-0.09033201283216476
1759160387863455700,4.708455810546875,-0.2604196994245052,0.09489537522494793,-0.12838058845847844
1759160387873513700,4.718513671875,-0.1323363403469324,0.042291327762603755,-0.18615736238360403
1759160387883570700,4.72857080078125,-0.023627543824911116,-0.004461655583977699,-0.25433891820609567
1759160387893628000,4.7386279296875,0.01585398721396923,-0.050340778705477714,-0.2246878763079643
1759160387903684900,4.748684814453125,-0.022443302476406097,-0.05564882198572158,-0.23789134901314973
1759160387913742800,4.758742919921875,-0.12385901938080787,-0.001982113727927208,-0.2500216395288706
1759160387923797800,4.7687978515625,-0.15663666886687277,0.025036826100945472,-0.21422025830745695
1759160387933854700,4.778854736328125,-0.15003624768853185,0.00568681346476078,-0.22525720062851903
1759160387943911700,4.78891162109375,-0.12118892338871955,0.00997018987238407,-0.2433034371897578
