seconds_elapsed,acc_z,acc_y,acc_x,grav_z,grav_y,grav_x,gyro_z,gyro_y,gyro_x
0.0900,0.0200,0.0353,-0.0001,9.3497,2.9542,0.1637,0.0121,-0.0565,0.0606
0.1000,0.1449,0.0454,0.0003,9.3479,2.9594,0.1687,0.0121,-0.0565,0.0606
0.1100,0.1287,0.0397,0.0057,9.3468,2.9626,0.1720,0.0121,-0.0565,0.0606
0.1200,0.0965,0.0284,0.0164,9.3446,2.9692,0.1784,0.0121,-0.0565,0.0606
0.1300,-0.0111,-0.0048,0.0103,9.3424,2.9760,0.1852,0.0095,-0.0201,0.0435
0.1400,-0.0428,-0.0045,-0.0213,9.3406,2.9813,0.1905,0.0060,0.0565,0.0010
0.1500,0.0154,-0.0043,-0.0579,9.3399,2.9835,0.1888,0.0111,0.0616,-0.0119
0.1600,0.0229,-0.0242,-0.0531,9.3403,2.9826,0.1832,0.0119,0.0484,-0.0060
0.1700,-0.0581,-0.0703,-0.0557,9.3407,2.9816,0.1778,0.0058,0.0251,-0.0058
0.1800,-0.1311,-0.0725,-0.0673,9.3411,2.9807,0.1742,0.0022,0.0085,0.0087
0.1900,-0.1001,-0.0466,-0.0868,9.3412,2.9803,0.1722,0.0005,-0.0245,0.0173
0.2000,0.0080,-0.0231,-0.1030,9.3408,2.9815,0.1717,-0.0076,-0.0685,0.0099
0.2100,-0.0363,-0.0463,-0.0597,9.3405,2.9824,0.1755,-0.0125,-0.0535,0.0099
0.2200,-0.0535,-0.0448,-0.0268,9.3401,2.9833,0.1808,-0.0044,-0.0215,-0.0080
0.2300,0.0424,-0.0075,-0.0504,9.3400,2.9835,0.1837,0.0091,-0.0121,-0.0255
0.2400,0.0897,0.0166,-0.0713,9.3405,2.9817,0.1846,0.0178,-0.0168,-0.0298
0.2500,0.0873,-0.0166,-0.0547,9.3414,2.9790,0.1856,0.0223,-0.0176,-0.0255
0.2600,0.0887,-0.0844,0.0272,9.3424,2.9758,0.1874,0.0270,-0.0044,0.0006
0.2700,0.0857,-0.1351,0.0306,9.3430,2.9739,0.1888,0.0276,-0.0036,0.0280
0.2800,0.0500,-0.1204,-0.0147,9.3428,2.9743,0.1895,0.0211,-0.0162,0.0511
0.2900,-0.0298,-0.0846,-0.0541,9.3420,2.9768,0.1906,0.0146,-0.0298,0.0669
0.3000,-0.1049,-0.0758,-0.0329,9.3404,2.9815,0.1925,0.0073,-0.0429,0.0619
0.3100,-0.2309,-0.0881,-0.0186,9.3387,2.9867,0.1957,-0.0023,-0.0284,0.0504
0.3200,-0.3138,-0.0922,-0.0350,9.3371,2.9916,0.1994,-0.0117,0.0078,0.0268
0.3300,-0.2728,-0.0453,-0.0580,9.3360,2.9950,0.2001,-0.0088,0.0209,0.0050
0.3400,-0.2142,0.0011,-0.0816,9.3356,2.9964,0.1981,-0.0011,0.0237,-0.0133
0.3500,-0.1544,0.0389,-0.0623,9.3357,2.9962,0.1956,0.0048,0.0221,-0.0330
0.3600,-0.0769,0.0680,-0.0487,9.3364,2.9942,0.1931,0.0097,0.0203,-0.0501
0.3700,0.0281,0.0563,-0.0762,9.3375,2.9907,0.1911,0.0125,0.0194,-0.0707
0.3800,0.1213,0.0567,-0.0887,9.3392,2.9855,0.1892,0.0156,0.0196,-0.0866
0.3900,0.2108,0.0382,-0.0917,9.3415,2.9785,0.1874,0.0203,0.0176,-0.0945
0.4000,0.2386,-0.0015,-0.0538,9.3441,2.9704,0.1855,0.0201,0.0064,-0.0960
0.4100,0.2189,0.0242,-0.0096,9.3470,2.9614,0.1844,0.0178,-0.0027,-0.0799
0.4200,0.1955,0.0606,0.0025,9.3497,2.9530,0.1843,0.0150,-0.0105,-0.0609
0.4300,0.1902,0.0489,0.0432,9.3518,2.9462,0.1850,0.0128,-0.0091,-0.0414
0.4400,0.1791,0.0213,0.0673,9.3534,2.9411,0.1864,0.0091,0.0009,-0.0184
0.4500,0.2124,0.0219,0.0307,9.3543,2.9381,0.1872,0.0016,-0.0017,-0.0005
0.4600,0.1698,0.0590,-0.0028,9.3547,2.9369,0.1872,-0.0054,-0.0107,0.0175
0.4700,0.0830,0.0872,-0.0249,9.3545,2.9375,0.1877,-0.0096,-0.0207,0.0258
0.4800,0.0206,0.1169,-0.0345,9.3538,2.9397,0.1885,-0.0131,-0.0425,0.0195
0.4900,-0.0441,0.1306,0.0055,9.3530,2.9419,0.1908,-0.0196,-0.0614,0.0124
0.5000,-0.0896,0.0902,0.0901,9.3523,2.9440,0.1948,-0.0306,-0.0695,-0.0039
0.5100,-0.1259,-0.0360,0.1149,9.3519,2.9450,0.2004,-0.0418,-0.0553,-0.0082
0.5200,-0.1259,-0.1411,0.1208,9.3518,2.9447,0.2056,-0.0534,-0.0304,-0.0025
0.5300,-0.0781,-0.1382,0.1017,9.3519,2.9442,0.2088,-0.0626,-0.0072,0.0046
0.5400,-0.0174,-0.0809,0.0851,9.3518,2.9444,0.2094,-0.0628,0.0160,0.0069
0.5500,0.0395,-0.0185,0.0412,9.3517,2.9450,0.2078,-0.0559,0.0284,0.0030
0.5600,0.0787,-0.0079,-0.0118,9.3516,2.9456,0.2041,-0.0485,0.0196,0.0012
0.5700,0.0363,-0.0287,-0.0177,9.3516,2.9457,0.2004,-0.0359,0.0137,0.0083
0.5800,-0.0682,-0.0403,-0.0094,9.3516,2.9461,0.1978,-0.0239,0.0129,0.0114
0.5900,-0.0847,-0.0331,-0.0417,9.3514,2.9468,0.1958,-0.0151,0.0127,0.0179
0.6000,-0.1003,0.0008,-0.0048,9.3510,2.9481,0.1940,-0.0054,0.0144,0.0264
0.6100,-0.0751,-0.0050,0.0277,9.3505,2.9498,0.1926,0.0064,0.0186,0.0445
0.6200,0.0280,-0.0255,0.0062,9.3496,2.9529,0.1909,0.0130,0.0017,0.0610
0.6300,0.1140,-0.0134,-0.0470,9.3481,2.9575,0.1898,0.0140,-0.0313,0.0775
0.6400,0.1152,-0.0170,-0.0882,9.3462,2.9634,0.1911,0.0107,-0.0587,0.0959
0.6500,0.0235,-0.0206,-0.0606,9.3437,2.9711,0.1954,0.0034,-0.0604,0.0983
0.6600,-0.0932,-0.0016,-0.0107,9.3407,2.9800,0.2014,-0.0052,-0.0349,0.0814
0.6700,-0.2461,0.0340,0.0166,9.3380,2.9883,0.2061,-0.0088,-0.0009,0.0566
0.6800,-0.3484,0.0893,0.0361,9.3357,2.9953,0.2081,-0.0052,0.0372,0.0103
0.6900,-0.3431,0.1308,0.0432,9.3345,2.9992,0.2066,0.0048,0.0600,-0.0418
0.7000,-0.2309,0.1233,0.0037,9.3347,2.9987,0.2022,0.0160,0.0561,-0.0815
0.7100,-0.0649,0.0674,-0.0474,9.3364,2.9940,0.1967,0.0227,0.0241,-0.1002
0.7200,0.1209,-0.0206,-0.0820,9.3389,2.9862,0.1929,0.0268,-0.0139,-0.0886
0.7300,0.2785,-0.0454,-0.0648,9.3417,2.9775,0.1925,0.0301,-0.0480,-0.0479
0.7400,0.3290,-0.0615,0.0110,9.3439,2.9704,0.1957,0.0290,-0.0687,0.0105
0.7500,0.2604,-0.1202,0.0839,9.3446,2.9677,0.2018,0.0164,-0.0693,0.0708
0.7600,0.2359,-0.1206,0.0965,9.3436,2.9705,0.2092,-0.0086,-0.0541,0.1258
0.7700,0.1971,-0.0416,0.0853,9.3409,2.9785,0.2155,-0.0318,-0.0304,0.1555
0.7800,0.0743,0.0497,0.0559,9.3368,2.9909,0.2194,-0.0353,0.0015,0.1476
0.7900,-0.0545,0.1141,0.0525,9.3324,3.0047,0.2204,-0.0270,0.0341,0.1195
0.8000,-0.1694,0.1716,0.0418,9.3283,3.0175,0.2183,-0.0086,0.0571,0.0753
0.8100,-0.2310,0.2002,0.0663,9.3253,3.0272,0.2138,0.0109,0.0701,0.0303
0.8200,-0.2309,0.1555,0.0782,9.3236,3.0328,0.2083,0.0215,0.0777,-0.0045
0.8300,-0.1401,0.0504,-0.0125,9.3230,3.0349,0.2024,0.0225,0.0638,-0.0336
0.8400,0.0422,0.0050,-0.1135,9.3234,3.0340,0.1965,0.0185,0.0282,-0.0495
0.8500,0.1255,-0.0202,-0.1366,9.3247,3.0305,0.1925,0.0099,0.0011,-0.0451
0.8600,0.1791,-0.0476,-0.0751,9.3262,3.0260,0.1916,0.0016,0.0068,-0.0267
0.8700,0.2306,-0.0552,-0.0153,9.3273,3.0224,0.1917,-0.0068,0.0221,-0.0096
0.8800,0.1789,-0.0317,0.0074,9.3280,3.0205,0.1905,-0.0115,0.0451,0.0099
0.8900,0.0933,0.0007,0.0086,9.3282,3.0200,0.1877,-0.0054,0.0775,0.0327
0.9000,0.0627,0.0220,-0.0167,9.3277,3.0218,0.1819,0.0038,0.0858,0.0425
0.9100,0.0197,0.0602,-0.0489,9.3268,3.0251,0.1742,0.0123,0.0769,0.0490
0.9200,-0.0030,0.0815,-0.0780,9.3255,3.0293,0.1665,0.0211,0.0581,0.0498
0.9300,0.0111,0.0746,-0.0949,9.3242,3.0339,0.1603,0.0274,0.0331,0.0517
0.9400,0.0230,0.0651,-0.0726,9.3227,3.0386,0.1564,0.0327,0.0091,0.0511
0.9500,0.0309,0.0308,-0.0304,9.3212,3.0434,0.1549,0.0345,-0.0058,0.0515
0.9600,-0.0195,0.0038,0.0119,9.3196,3.0480,0.1557,0.0266,-0.0048,0.0621
0.9700,-0.1311,-0.0355,0.0550,9.3180,3.0530,0.1573,0.0097,0.0095,0.0743
0.9800,-0.2137,-0.0362,0.0455,9.3159,3.0593,0.1580,-0.0082,0.0186,0.0728
0.9900,-0.2992,-0.0248,-0.0322,9.3136,3.0663,0.1567,-0.0184,0.0103,0.0568
1.0000,-0.3306,-0.0273,-0.0637,9.3115,3.0728,0.1547,-0.0206,-0.0064,0.0317
1.0100,-0.3020,-0.0461,-0.0452,9.3101,3.0772,0.1537,-0.0206,-0.0089,0.0160
1.0200,-0.2238,-0.0526,0.0193,9.3092,3.0797,0.1539,-0.0225,0.0007,-0.0027
1.0300,-0.1149,-0.0122,0.0569,9.3089,3.0807,0.1538,-0.0221,0.0160,-0.0245
1.0400,-0.0162,0.0247,0.0374,9.3092,3.0798,0.1526,-0.0147,0.0325,-0.0434
1.0500,0.0179,-0.0061,-0.0286,9.3102,3.0770,0.1499,-0.0082,0.0439,-0.0581
1.0600,0.0523,-0.0510,-0.0703,9.3118,3.0725,0.1461,-0.0007,0.0486,-0.0595
1.0700,0.1134,-0.0438,-0.0634,9.3137,3.0669,0.1416,0.0134,0.0514,-0.0510
1.0800,0.1651,0.0030,-0.0039,9.3155,3.0616,0.1372,0.0264,0.0587,-0.0400
1.0900,0.2010,0.0322,0.0699,9.3170,3.0571,0.1328,0.0309,0.0689,-0.0247
1.1000,0.2126,0.0363,0.0733,9.3182,3.0538,0.1278,0.0305,0.0720,-0.0009
1.1100,0.2479,0.0173,0.0285,9.3188,3.0520,0.1223,0.0288,0.0626,0.0498
1.1200,0.2960,-0.0186,-0.0377,9.3186,3.0529,0.1167,0.0305,0.0376,0.1280
1.1300,0.2687,-0.0177,-0.0568,9.3164,3.0599,0.1126,0.0288,0.0095,0.1922
1.1400,0.1837,-0.0175,-0.0425,9.3120,3.0733,0.1111,0.0235,-0.0115,0.2459
1.1500,0.0799,0.0194,-0.0216,9.3057,3.0923,0.1118,0.0162,-0.0333,0.2706
1.1600,-0.0082,0.0668,-0.0223,9.2980,3.1151,0.1141,0.0064,-0.0594,0.2649
1.1700,-0.1118,0.1169,-0.0377,9.2899,3.1392,0.1183,-0.0019,-0.0765,0.2339
1.1800,-0.2268,0.1234,-0.0542,9.2820,3.1622,0.1244,-0.0072,-0.0773,0.1820
1.1900,-0.2687,0.1149,-0.0802,9.2751,3.1819,0.1312,-0.0115,-0.0669,0.1144
1.2000,-0.2643,0.1337,-0.1056,9.2700,3.1966,0.1375,-0.0131,-0.0453,0.0378
1.2100,-0.2056,0.1112,-0.0697,9.2671,3.2048,0.1423,-0.0096,-0.0137,-0.0361
1.2200,-0.1635,0.0795,-0.0280,9.2666,3.2062,0.1445,-0.0019,0.0203,-0.1045
1.2300,-0.1486,0.0369,-0.0046,9.2685,3.2008,0.1443,0.0038,0.0498,-0.1497
1.2400,-0.1192,-0.0002,0.0097,9.2725,3.1893,0.1411,0.0062,0.0528,-0.1465
1.2500,-0.0729,-0.0262,0.0153,9.2773,3.1753,0.1363,0.0083,0.0380,-0.1200
1.2600,-0.0351,-0.0469,-0.0082,9.2818,3.1626,0.1319,0.0099,0.0089,-0.0825
1.2700,-0.0041,-0.0346,-0.0336,9.2852,3.1527,0.1294,0.0123,-0.0243,-0.0446
1.2800,0.0272,-0.0267,-0.0270,9.2873,3.1464,0.1300,0.0146,-0.0500,-0.0182
1.2900,0.1124,-0.0180,-0.0202,9.2883,3.1432,0.1335,0.0146,-0.0630,-0.0047
1.3000,0.1752,-0.0033,0.0093,9.2886,3.1421,0.1391,0.0101,-0.0618,-0.0058
1.3100,0.1704,0.0050,0.0276,9.2886,3.1418,0.1455,0.0042,-0.0441,-0.0157
1.3200,0.1422,-0.0085,0.0708,9.2888,3.1409,0.1511,-0.0003,-0.0194,-0.0218
1.3300,0.0874,-0.0259,0.0706,9.2894,3.1392,0.1545,-0.0023,-0.0001,-0.0241
1.3400,-0.0122,-0.0135,0.0360,9.2900,3.1371,0.1556,-0.0025,0.0160,-0.0241
1.3500,-0.0338,0.0225,0.0293,9.2909,3.1347,0.1550,0.0005,0.0258,-0.0121
1.3600,-0.0480,0.0482,0.0434,9.2915,3.1329,0.1529,0.0050,0.0196,0.0022
1.3700,-0.0818,0.0115,0.0040,9.2918,3.1321,0.1508,0.0058,0.0113,0.0264
1.3800,-0.0783,0.0002,-0.0847,9.2915,3.1330,0.1494,0.0066,-0.0031,0.0522
1.3900,-0.0462,0.0225,-0.1217,9.2905,3.1360,0.1493,0.0115,-0.0147,0.0721
1.4000,0.0034,0.0571,-0.1295,9.2888,3.1409,0.1499,0.0142,-0.0239,0.0828
1.4100,0.0363,0.0773,-0.1158,9.2863,3.1484,0.1517,0.0136,-0.0337,0.0828
1.4200,0.0437,0.1023,-0.1011,9.2836,3.1562,0.1546,0.0113,-0.0418,0.0714
1.4300,0.0009,0.1267,-0.0784,9.2809,3.1638,0.1583,0.0119,-0.0425,0.0466
1.4400,-0.0282,0.1248,-0.0588,9.2789,3.1697,0.1626,0.0138,-0.0288,0.0118
1.4500,-0.0117,0.0916,-0.0626,9.2776,3.1733,0.1663,0.0113,-0.0146,-0.0446
1.4600,-0.0294,0.0594,-0.0698,9.2777,3.1728,0.1688,0.0042,-0.0040,-0.0964
1.4700,-0.0688,0.0298,-0.0680,9.2796,3.1673,0.1693,-0.0035,0.0038,-0.1208
1.4800,-0.0455,0.0244,-0.0400,9.2826,3.1583,0.1684,-0.0041,0.0115,-0.1306
1.4900,0.0674,0.0199,0.0128,9.2863,3.1476,0.1667,0.0020,0.0150,-0.1249
1.5000,0.1266,-0.0128,0.0771,9.2901,3.1364,0.1647,-0.0013,0.0150,-0.1031
1.5100,0.1031,-0.0270,0.1002,9.2937,3.1259,0.1632,-0.0172,0.0190,-0.0679
1.5200,0.1250,-0.0412,0.1067,9.2965,3.1177,0.1614,-0.0317,0.0226,-0.0243
1.5300,0.1272,-0.0682,0.0561,9.2979,3.1136,0.1593,-0.0363,0.0232,0.0050
1.5400,0.0778,-0.0913,-0.0341,9.2982,3.1128,0.1562,-0.0404,0.0220,0.0487
1.5500,0.0086,-0.0504,-0.0931,9.2967,3.1174,0.1530,-0.0401,0.0186,0.0948
1.5600,-0.0172,0.0354,-0.0985,9.2938,3.1262,0.1500,-0.0321,0.0116,0.1171
1.5700,0.0319,0.0880,-0.0389,9.2902,3.1370,0.1478,-0.0215,-0.0015,0.1150
1.5800,0.0930,0.0785,-0.0168,9.2866,3.1476,0.1472,-0.0172,-0.0192,0.0985
1.5900,0.1380,0.0539,-0.0359,9.2835,3.1567,0.1484,-0.0199,-0.0348,0.0811
1.6000,0.1382,0.0620,-0.0444,9.2809,3.1642,0.1509,-0.0218,-0.0464,0.0652
1.6100,0.0613,0.0656,-0.0550,9.2788,3.1702,0.1544,-0.0172,-0.0541,0.0505
1.6200,-0.0580,0.0526,-0.0329,9.2772,3.1748,0.1586,-0.0092,-0.0538,0.0338
1.6300,-0.1969,0.0435,0.0189,9.2760,3.1779,0.1630,-0.0031,-0.0443,0.0142
1.6400,-0.2658,0.0577,0.0247,9.2755,3.1792,0.1669,0.0027,-0.0257,-0.0081
1.6500,-0.2504,0.0703,-0.0099,9.2757,3.1787,0.1692,0.0091,-0.0089,-0.0350
1.6600,-0.1879,0.0504,0.0394,9.2766,3.1758,0.1701,0.0164,0.0006,-0.0576
1.6700,-0.0806,-0.0119,0.1181,9.2782,3.1710,0.1704,0.0259,0.0098,-0.0637
1.6800,0.0025,-0.1142,0.1205,9.2801,3.1656,0.1703,0.0299,0.0189,-0.0441
1.6900,0.0084,-0.1798,0.0637,9.2814,3.1618,0.1697,0.0176,0.0171,0.0066
1.7000,-0.0166,-0.1636,0.0059,9.2812,3.1624,0.1688,0.0011,0.0098,0.0551
1.7100,-0.0005,-0.0944,-0.0328,9.2795,3.1674,0.1681,-0.0050,0.0086,0.0719
1.7200,-0.0055,-0.0446,-0.0643,9.2774,3.1738,0.1673,-0.0037,0.0156,0.0622
1.7300,-0.0168,-0.0369,-0.1143,9.2755,3.1793,0.1658,0.0021,0.0339,0.0362
1.7400,0.0428,0.0056,-0.1614,9.2745,3.1823,0.1626,0.0115,0.0501,0.0020
1.7500,0.1109,0.0404,-0.1390,9.2746,3.1822,0.1582,0.0201,0.0528,-0.0295
1.7600,0.1086,0.0063,-0.1141,9.2757,3.1792,0.1536,0.0265,0.0403,-0.0420
1.7700,0.0533,-0.0183,-0.1323,9.2772,3.1751,0.1503,0.0314,0.0183,-0.0420
1.7800,0.0207,-0.0154,-0.1466,9.2787,3.1709,0.1490,0.0363,-0.0052,-0.0411
1.7900,-0.0680,0.0162,-0.1127,9.2800,3.1669,0.1498,0.0436,-0.0241,-0.0441
1.8000,-0.1987,0.0658,-0.0447,9.2814,3.1628,0.1524,0.0522,-0.0254,-0.0732
1.8100,-0.2236,0.1107,0.0325,9.2836,3.1562,0.1554,0.0583,-0.0086,-0.1202
1.8200,-0.1086,0.1319,0.1025,9.2871,3.1457,0.1573,0.0573,0.0113,-0.1599
1.8300,-0.0139,0.1360,0.1298,9.2917,3.1321,0.1575,0.0482,0.0220,-0.1764
1.8400,0.0493,0.0085,0.1700,9.2967,3.1171,0.1568,0.0366,0.0278,-0.1553
1.8500,0.2149,-0.1470,0.1328,9.3012,3.1038,0.1557,0.0326,0.0492,-0.1107
1.8600,0.3121,-0.1157,0.0534,9.3045,3.0941,0.1525,0.0299,0.0541,-0.0536
1.8700,0.2613,-0.0497,0.0272,9.3062,3.0891,0.1487,0.0225,0.0281,0.0105
1.8800,0.1778,-0.0494,-0.0130,9.3059,3.0901,0.1471,0.0158,0.0040,0.0683
1.8900,0.0410,-0.0544,-0.0146,9.3039,3.0962,0.1474,0.0039,-0.0174,0.1049
1.9000,-0.1043,-0.0207,-0.0009,9.3007,3.1057,0.1494,-0.0099,-0.0269,0.1153
1.9100,-0.1726,0.0059,-0.0212,9.2972,3.1161,0.1517,-0.0117,-0.0220,0.1006
1.9200,-0.2102,0.0135,-0.0373,9.2941,3.1253,0.1534,-0.0028,-0.0217,0.0585
1.9300,-0.2191,0.0202,-0.0213,9.2922,3.1306,0.1554,0.0060,-0.0318,0.0145
1.9400,-0.1647,0.0260,-0.0113,9.2917,3.1319,0.1585,0.0088,-0.0409,-0.0142
1.9500,-0.0563,0.0158,-0.0003,9.2922,3.1302,0.1625,0.0076,-0.0415,-0.0356
1.9600,0.0600,-0.0145,0.0280,9.2933,3.1269,0.1665,0.0066,-0.0272,-0.0460
1.9700,0.1641,-0.0249,0.0593,9.2945,3.1230,0.1693,0.0060,0.0021,-0.0426
1.9800,0.2369,-0.0066,0.0737,9.2959,3.1191,0.1693,0.0036,0.0321,-0.0328
1.9900,0.2957,0.0312,0.0526,9.2970,3.1160,0.1665,-0.0010,0.0476,-0.0228
2.0000,0.3488,0.0573,0.0031,9.2978,3.1138,0.1621,-0.0040,0.0489,-0.0090
2.0100,0.3364,0.0498,-0.0366,9.2981,3.1129,0.1575,-0.0034,0.0345,0.0060
2.0200,0.2755,0.0446,-0.0130,9.2980,3.1134,0.1543,-0.0010,0.0095,0.0224
2.0300,0.1995,0.0354,0.0142,9.2974,3.1153,0.1534,0.0079,-0.0296,0.0640
2.0400,0.1524,0.0177,0.0063,9.2954,3.1211,0.1565,0.0140,-0.0675,0.1223
2.0500,0.0198,0.0269,0.0164,9.2915,3.1322,0.1632,0.0100,-0.0773,0.1611
2.0600,-0.1930,0.0493,0.0328,9.2864,3.1469,0.1707,0.0076,-0.0675,0.1724
2.0700,-0.2880,0.0563,0.0023,9.2809,3.1627,0.1772,0.0079,-0.0467,0.1620
2.0800,-0.2625,0.0485,-0.0490,9.2758,3.1777,0.1818,0.0054,-0.0281,0.1339
2.0900,-0.2522,0.0302,-0.0744,9.2715,3.1900,0.1846,0.0030,-0.0241,0.1022
2.1000,-0.2441,0.0099,-0.0600,9.2681,3.1995,0.1869,0.0030,-0.0244,0.0771
2.1100,-0.1482,0.0064,-0.0276,9.2656,3.2067,0.1892,0.0033,-0.0263,0.0515
2.1200,-0.0292,-0.0032,-0.0252,9.2639,3.2115,0.1916,0.0036,-0.0431,0.0264
2.1300,0.0484,-0.0272,-0.0339,9.2630,3.2139,0.1955,0.0011,-0.0715,0.0084
2.1400,0.0823,-0.0603,-0.0224,9.2626,3.2147,0.2019,-0.0025,-0.0938,0.0044
2.1500,0.0802,-0.0953,0.0268,9.2623,3.2150,0.2102,-0.0031,-0.0880,0.0102
2.1600,0.0543,-0.1032,0.0610,9.2619,3.2157,0.2179,-0.0022,-0.0651,0.0194
2.1700,0.0274,-0.0723,0.0469,9.2612,3.2171,0.2236,-0.0037,-0.0492,0.0322
2.1800,-0.0267,-0.0281,0.0235,9.2603,3.2196,0.2279,-0.0062,-0.0415,0.0469
2.1900,-0.0875,-0.0045,0.0260,9.2588,3.2236,0.2313,-0.0047,-0.0379,0.0564
2.2000,-0.1312,0.0073,0.0419,9.2570,3.2285,0.2346,0.0015,-0.0324,0.0521
2.2100,-0.1247,0.0218,0.0354,9.2553,3.2331,0.2376,0.0085,-0.0229,0.0331
2.2200,-0.0530,0.0452,0.0354,9.2542,3.2361,0.2400,0.0115,-0.0116,0.0041
2.2300,0.0585,0.0556,0.0471,9.2541,3.2364,0.2414,0.0100,0.0018,-0.0237
2.2400,0.1678,0.0327,0.0146,9.2548,3.2342,0.2416,0.0060,0.0156,-0.0396
2.2500,0.2204,0.0052,-0.0344,9.2562,3.2305,0.2403,0.0039,0.0241,-0.0353
2.2600,0.2455,0.0325,-0.0635,9.2574,3.2272,0.2382,0.0082,0.0296,-0.0096
2.2700,0.2571,0.0992,-0.0658,9.2577,3.2263,0.2357,0.0155,0.0302,0.0179
2.2800,0.2133,0.1228,-0.0598,9.2572,3.2279,0.2334,0.0189,0.0238,0.0319
2.2900,0.1185,0.1271,-0.1085,9.2563,3.2308,0.2318,0.0186,0.0162,0.0344
2.3000,0.0059,0.1383,-0.1661,9.2552,3.2340,0.2307,0.0216,0.0214,0.0270
2.3100,-0.0747,0.1117,-0.1823,9.2543,3.2366,0.2290,0.0332,0.0363,0.0124
2.3200,-0.1496,0.0564,-0.1661,9.2539,3.2380,0.2260,0.0485,0.0391,-0.0032
2.3300,-0.2035,0.0203,-0.1199,9.2539,3.2382,0.2228,0.0613,0.0315,-0.0108
2.3400,-0.2217,0.0111,-0.0794,9.2541,3.2379,0.2207,0.0711,0.0168,-0.0108
2.3500,-0.3044,0.0078,-0.0609,9.2542,3.2375,0.2202,0.0778,0.0052,-0.0102
2.3600,-0.3379,-0.0088,-0.0451,9.2542,3.2374,0.2210,0.0839,0.0208,-0.0166
2.3700,-0.2364,-0.0452,-0.0496,9.2545,3.2366,0.2208,0.0891,0.0464,-0.0408
2.3800,0.0521,-0.2958,0.2747,9.2556,3.2335,0.2185,0.0861,0.0299,-0.0997
2.3900,0.4009,-0.4172,0.1803,9.2588,3.2244,0.2183,0.0479,-0.0901,-0.1633
2.4000,0.3059,-0.1023,-0.1539,9.2640,3.2087,0.2282,0.0253,-0.1545,-0.1373
2.4100,0.2155,0.0452,0.0635,9.2683,3.1954,0.2430,0.0552,-0.0819,-0.0240
2.4200,0.3764,-0.1508,0.2327,9.2690,3.1926,0.2521,0.0720,-0.0486,0.0826
2.4300,0.3404,-0.2995,0.2330,9.2666,3.1989,0.2590,0.0528,-0.0785,0.1410
2.4400,0.1705,-0.1981,0.1659,9.2629,3.2088,0.2687,0.0247,-0.1023,0.1562
2.4500,0.0583,-0.0205,0.0900,9.2590,3.2191,0.2799,0.0134,-0.1054,0.1410
2.4600,0.0488,0.0395,0.0275,9.2554,3.2286,0.2909,0.0219,-0.1054,0.1104
2.4700,-0.0165,0.0021,0.0930,9.2524,3.2361,0.3020,0.0372,-0.1029,0.0814
2.4800,-0.0908,-0.0608,0.2062,9.2501,3.2415,0.3133,0.0460,-0.0941,0.0640
2.4900,-0.1166,-0.1222,0.2370,9.2484,3.2454,0.3244,0.0405,-0.0828,0.0505
2.5000,-0.1907,-0.1415,0.1788,9.2471,3.2480,0.3348,0.0311,-0.0666,0.0353
2.5100,-0.3204,-0.1045,0.1306,9.2463,3.2493,0.3435,0.0341,-0.0367,0.0234
2.5200,-0.3499,-0.0895,0.0935,9.2459,3.2499,0.3494,0.0393,-0.0082,0.0142
2.5300,-0.3019,-0.0898,0.0280,9.2457,3.2501,0.3527,0.0369,-0.0043,0.0017
2.5400,-0.2289,-0.0939,-0.0212,9.2458,3.2495,0.3552,0.0326,-0.0226,-0.0188
2.5500,-0.1243,-0.0929,-0.0345,9.2465,3.2472,0.3589,0.0320,-0.0593,-0.0527
2.5600,-0.1007,-0.0553,-0.0042,9.2480,3.2420,0.3657,0.0366,-0.0962,-0.0845
2.5700,-0.0983,-0.0831,0.0395,9.2504,3.2339,0.3759,0.0463,-0.1066,-0.0958
2.5800,-0.0711,-0.2177,0.0628,9.2532,3.2248,0.3873,0.0522,-0.0983,-0.0851
2.5900,-0.0580,-0.3447,0.0711,9.2556,3.2165,0.3981,0.0473,-0.0809,-0.0594
2.6000,-0.0825,-0.3837,0.0943,9.2574,3.2101,0.4073,0.0384,-0.0544,-0.0307
2.6100,-0.1796,-0.3756,0.1069,9.2587,3.2055,0.4139,0.0289,-0.0144,0.0118
2.6200,-0.3296,-0.3717,0.0717,9.2591,3.2040,0.4167,0.0195,0.0226,0.0564
2.6300,-0.4618,-0.3726,-0.0055,9.2584,3.2062,0.4161,0.0115,0.0510,0.0845
2.6400,-0.5095,-0.3652,-0.1313,9.2570,3.2107,0.4126,0.0073,0.0761,0.0921
2.6500,-0.5019,-0.3238,-0.2399,9.2554,3.2160,0.4063,0.0079,0.0770,0.0774
2.6600,-0.5379,-0.2921,-0.2904,9.2543,3.2202,0.3994,0.0134,0.0593,0.0585
2.6700,-0.5850,-0.3463,-0.3350,9.2535,3.2230,0.3936,0.0216,0.0434,0.0457
2.6800,-0.5906,-0.4462,-0.3938,9.2531,3.2246,0.3890,0.0286,0.0339,0.0344
2.6900,-0.5931,-0.4991,-0.4266,9.2532,3.2249,0.3847,0.0363,0.0278,0.0170
2.7000,-0.6035,-0.4924,-0.4137,9.2541,3.2230,0.3802,0.0457,0.0220,-0.0081
2.7100,-0.6220,-0.5070,-0.3615,9.2558,3.2185,0.3759,0.0540,0.0159,-0.0276
2.7200,-0.6975,-0.5605,-0.3253,9.2582,3.2120,0.3720,0.0573,0.0009,-0.0365
2.7300,-0.8150,-0.5760,-0.3062,9.2608,3.2048,0.3697,0.0564,-0.0229,-0.0447
2.7400,-0.9265,-0.5720,-0.2370,9.2634,3.1973,0.3699,0.0586,-0.0382,-0.0612
2.7500,-0.9940,-0.5828,-0.1342,9.2662,3.1889,0.3724,0.0668,-0.0379,-0.0912
2.7600,-0.9543,-0.5867,-0.0266,9.2696,3.1785,0.3761,0.0778,-0.0342,-0.1272
2.7700,-0.9119,-0.6071,0.0706,9.2740,3.1653,0.3807,0.0876,-0.0360,-0.1547
2.7800,-0.9181,-0.6515,0.1824,9.2790,3.1498,0.3862,0.0925,-0.0318,-0.1648
2.7900,-0.9246,-0.6773,0.2977,9.2842,3.1337,0.3918,0.0934,-0.0159,-0.1575
2.8000,-0.9187,-0.6536,0.3604,9.2892,3.1184,0.3962,0.0931,0.0012,-0.1458
2.8100,-0.8791,-0.6132,0.3947,9.2938,3.1043,0.3990,0.0900,0.0076,-0.1361
2.8200,-0.8977,-0.5905,0.4081,9.2981,3.0912,0.4011,0.0848,0.0046,-0.1242
2.8300,-0.9937,-0.6001,0.3819,9.3019,3.0793,0.4034,0.0726,0.0049,-0.1055
2.8400,-1.0880,-0.6438,0.3383,9.3052,3.0692,0.4051,0.0610,0.0098,-0.0906
2.8500,-1.1291,-0.6663,0.3121,9.3080,3.0605,0.4061,0.0589,0.0049,-0.0985
2.8600,-1.2662,-0.6365,0.2450,9.3110,3.0511,0.4075,0.0613,-0.0101,-0.1260
2.8700,-1.4424,-0.5838,0.1620,9.3148,3.0391,0.4103,0.0696,-0.0235,-0.1614
2.8800,-1.4927,-0.5541,0.1205,9.3196,3.0238,0.4146,0.0824,-0.0354,-0.2066
2.8900,-1.4365,-0.5537,0.0729,9.3257,3.0042,0.4204,0.0989,-0.0421,-0.2628
2.9000,-1.2922,-0.5874,0.0301,9.3334,2.9792,0.4272,0.1178,-0.0339,-0.3105
2.9100,-1.2126,-0.6788,-0.0233,9.3424,2.9497,0.4339,0.1361,-0.0140,-0.3291
2.9200,-1.2450,-0.7815,-0.0992,9.3520,2.9183,0.4392,0.1447,0.0110,-0.3086
2.9300,-1.3809,-0.8418,-0.1730,9.3610,2.8888,0.4424,0.1426,0.0400,-0.2546
2.9400,-1.5871,-0.8604,-0.2632,9.3685,2.8644,0.4427,0.1392,0.0702,-0.1852
2.9500,-1.8082,-0.8640,-0.3958,9.3741,2.8464,0.4401,0.1419,0.0971,-0.0976
2.9600,-2.0125,-0.8674,-0.5464,9.3773,2.8366,0.4351,0.1560,0.1078,-0.0203
2.9700,-2.1692,-0.8289,-0.6604,9.3784,2.8340,0.4294,0.1795,0.0980,0.0215
2.9800,-2.2994,-0.7619,-0.7102,9.3782,2.8353,0.4253,0.2076,0.0702,0.0420
2.9900,-2.3991,-0.7183,-0.7238,9.3773,2.8384,0.4246,0.2382,0.0360,0.0451
3.0000,-2.4459,-0.7287,-0.6901,9.3762,2.8416,0.4279,0.2653,0.0137,0.0405
3.0100,-2.4795,-0.8103,-0.6341,9.3751,2.8442,0.4342,0.2782,-0.0046,0.0371
3.0200,-2.6101,-0.9311,-0.5778,9.3740,2.8465,0.4426,0.2693,-0.0382,0.0240
3.0300,-2.8570,-1.0303,-0.5304,9.3732,2.8475,0.4538,0.2409,-0.0709,0.0066
3.0400,-3.0912,-1.0992,-0.4589,9.3726,2.8470,0.4673,0.2030,-0.0797,-0.0090
3.0500,-3.1964,-1.1932,-0.3764,9.3725,2.8452,0.4805,0.1673,-0.0706,-0.0368
3.0600,-3.1300,-1.2727,-0.2800,9.3732,2.8409,0.4919,0.1340,-0.0412,-0.0673
3.0700,-3.0731,-1.2993,-0.1572,9.3749,2.8340,0.4996,0.1025,-0.0064,-0.0869
3.0800,-3.0899,-1.3158,-0.0937,9.3774,2.8253,0.5031,0.0772,0.0327,-0.1022
3.0900,-3.0858,-1.3214,-0.0784,9.3804,2.8153,0.5022,0.0696,0.1026,-0.1333
3.1000,-2.9104,-1.2427,-0.0971,9.3847,2.8025,0.4945,0.0796,0.1451,-0.1996
3.1100,-2.6809,-1.0847,-0.0725,9.3909,2.7833,0.4831,0.0751,0.1283,-0.2876
3.1200,-2.5338,-0.9448,-0.0087,9.3995,2.7560,0.4732,0.0412,0.0858,-0.3743
3.1300,-2.4583,-0.9129,-0.0137,9.4102,2.7206,0.4662,-0.0062,0.0299,-0.4525
3.1400,-2.4467,-0.9601,-0.0670,9.4225,2.6780,0.4633,-0.0438,0.0027,-0.5133
3.1500,-2.4232,-0.9586,-0.0955,9.4361,2.6298,0.4618,-0.0575,0.0211,-0.5722
3.1600,-2.1305,-0.8785,-0.1471,9.4511,2.5760,0.4584,-0.0493,0.0550,-0.6483
3.1700,-1.5380,-0.7552,-0.1885,9.4679,2.5149,0.4519,-0.0325,0.0770,-0.7497
3.1800,-0.7285,-0.6244,-0.1158,9.4868,2.4440,0.4438,-0.0144,0.0394,-0.9198
3.1900,0.2788,-0.5778,0.0858,9.5090,2.3567,0.4397,0.0091,-0.0318,-1.0918
3.2000,1.3504,-0.6378,0.3435,9.5340,2.2527,0.4429,0.0415,-0.0577,-1.1889
3.2100,2.5157,-0.7204,0.5742,9.5598,2.1390,0.4494,0.0851,-0.0254,-1.2060
3.2200,3.3681,-0.7202,0.7349,9.5849,2.0227,0.4538,0.1380,0.0498,-1.1000
3.2300,3.6140,-0.6135,0.7861,9.6071,1.9147,0.4529,0.1844,0.1261,-0.8661
3.2400,3.2700,-0.4713,0.7744,9.6242,1.8288,0.4455,0.2101,0.1729,-0.5356
3.2500,2.5077,-0.2974,0.7509,9.6348,1.7758,0.4330,0.2174,0.1885,-0.1904
3.2600,1.5554,-0.0818,0.7018,9.6390,1.7565,0.4187,0.2149,0.1811,0.0652
3.2700,0.5155,0.0960,0.4617,9.6386,1.7619,0.4050,0.2110,0.1756,0.1596
3.2800,-0.1395,0.3017,0.1349,9.6364,1.7765,0.3918,0.2311,0.2135,0.0906
3.2900,-0.3830,0.5945,0.0349,9.6357,1.7841,0.3757,0.2840,0.2517,-0.1397
3.3000,-0.4091,0.7924,0.1177,9.6391,1.7694,0.3575,0.3179,0.2453,-0.3905
3.3100,-0.0731,0.7733,0.2565,9.6466,1.7311,0.3409,0.3020,0.1891,-0.5539
3.3200,0.3756,0.6709,0.3588,9.6564,1.6778,0.3295,0.2458,0.0742,-0.6721
3.3300,0.9465,0.6296,0.4691,9.6673,1.6138,0.3282,0.1810,-0.0150,-0.7491
3.3400,1.6761,0.5860,0.6166,9.6788,1.5425,0.3339,0.1316,-0.0550,-0.7986
3.3500,2.4018,0.5490,0.7630,9.6904,1.4657,0.3420,0.0824,-0.0773,-0.8157
3.3600,3.0657,0.5491,0.9205,9.7017,1.3866,0.3508,0.0338,-0.0687,-0.7982
3.3700,3.6286,0.4950,1.0355,9.7122,1.3090,0.3579,0.0033,-0.0137,-0.7479
3.3800,4.0704,0.4037,0.9898,9.7217,1.2363,0.3593,-0.0004,0.0953,-0.6562
3.3900,4.2680,0.3778,0.7704,9.7300,1.1725,0.3501,0.0161,0.2153,-0.5197
3.4000,4.0363,0.4894,0.5817,9.7367,1.1219,0.3293,0.0473,0.3103,-0.3517
3.4100,3.6400,0.6076,0.4271,9.7415,1.0875,0.2996,0.1123,0.4398,-0.1739
3.4200,3.2873,0.7254,0.1730,9.7446,1.0702,0.2579,0.1792,0.5333,-0.0542
3.4300,3.0796,0.8269,0.0363,9.7465,1.0645,0.2079,0.2036,0.4826,0.0115
3.4400,2.6454,0.8345,-0.1475,9.7472,1.0653,0.1630,0.2033,0.3390,0.0857
3.4500,1.9348,0.7954,-0.3524,9.7468,1.0733,0.1321,0.1972,0.1481,0.1614
3.4600,1.4850,0.7404,-0.3150,9.7453,1.0888,0.1198,0.1789,-0.0504,0.2359
3.4700,1.3141,0.7176,-0.2895,9.7426,1.1116,0.1267,0.1468,-0.1732,0.2805
3.4800,1.1320,0.6199,-0.1536,9.7392,1.1387,0.1452,0.1181,-0.1558,0.2546
3.4900,1.0609,0.4684,0.0585,9.7361,1.1633,0.1618,0.0879,-0.0308,0.1801
3.5000,1.4054,0.3133,0.1227,9.7339,1.1807,0.1658,0.0418,0.1237,0.1067
3.5100,1.8422,0.1964,0.0038,9.7328,1.1910,0.1542,-0.0099,0.2343,0.0564
3.5200,2.1885,0.1862,-0.3276,9.7325,1.1965,0.1313,-0.0343,0.2443,0.0472
3.5300,2.4163,0.2031,-0.7212,9.7322,1.2011,0.1071,-0.0095,0.1768,0.1019
3.5400,2.5227,0.1848,-0.9757,9.7312,1.2110,0.0898,0.0491,0.0782,0.2042
3.5500,2.4365,0.1458,-1.0369,9.7287,1.2309,0.0828,0.1077,-0.0254,0.3178
3.5600,2.1783,0.1317,-0.9066,9.7247,1.2617,0.0866,0.1447,-0.0849,0.4094
3.5700,1.8353,0.1794,-0.7013,9.7194,1.3014,0.0967,0.1548,-0.0858,0.4592
3.5800,1.5542,0.3050,-0.5441,9.7132,1.3458,0.1071,0.1471,-0.0663,0.4714
3.5900,1.4494,0.5120,-0.4244,9.7067,1.3914,0.1156,0.1340,-0.0779,0.4522
3.6000,1.4774,0.6897,-0.3740,9.7002,1.4352,0.1250,0.1178,-0.1264,0.4058
3.6100,1.5541,0.7678,-0.3437,9.6942,1.4743,0.1390,0.1068,-0.1796,0.3438
3.6200,1.6253,0.7311,-0.2657,9.6888,1.5075,0.1580,0.1181,-0.2056,0.2711
3.6300,1.8225,0.5817,-0.1869,9.6843,1.5335,0.1797,0.1545,-0.1778,0.1938
3.6400,2.0353,0.5297,-0.1000,9.6810,1.5520,0.1993,0.2107,-0.1432,0.1345
3.6500,2.1263,0.6440,-0.0058,9.6786,1.5646,0.2165,0.2537,-0.1109,0.0838
3.6600,2.2284,0.7766,0.0717,9.6770,1.5722,0.2312,0.2638,-0.0638,0.0151
3.6700,2.4203,0.8942,0.0877,9.6767,1.5730,0.2415,0.2501,-0.0116,-0.0722
3.6800,2.7329,0.9737,0.0013,9.6778,1.5654,0.2465,0.2137,0.0654,-0.1559
3.6900,3.1241,1.0324,-0.1729,9.6803,1.5498,0.2436,0.1655,0.1555,-0.1944
3.7000,3.4775,1.1354,-0.4154,9.6837,1.5306,0.2311,0.1252,0.2321,-0.1694
3.7100,3.5846,1.3101,-0.6606,9.6868,1.5139,0.2105,0.1062,0.2578,-0.0848
3.7200,3.2883,1.5711,-0.7581,9.6886,1.5054,0.1871,0.1035,0.2129,0.0441
3.7300,2.6697,1.7885,-0.6158,9.6883,1.5095,0.1680,0.1077,0.1191,0.1932
3.7400,1.9230,1.8418,-0.2719,9.6856,1.5281,0.1581,0.1087,0.0180,0.3401
3.7500,1.1813,1.7815,0.1616,9.6803,1.5608,0.1581,0.0931,-0.0812,0.4861
3.7600,0.5487,1.6460,0.4479,9.6725,1.6077,0.1674,0.0729,-0.1662,0.6086
3.7700,-0.0217,1.4341,0.5348,9.6622,1.6664,0.1847,0.0647,-0.2217,0.7048
3.7800,-0.5742,1.1291,0.4955,9.6498,1.7343,0.2072,0.0668,-0.2517,0.8074
3.7900,-0.9939,0.8395,0.4030,9.6349,1.8120,0.2326,0.0741,-0.2590,0.8902
3.8000,-1.3035,0.6367,0.3779,9.6177,1.8975,0.2589,0.0760,-0.2547,0.9149
3.8100,-1.5567,0.4320,0.4860,9.5991,1.9861,0.2850,0.0662,-0.2306,0.8716
3.8200,-1.6215,0.2563,0.6309,9.5802,2.0721,0.3089,0.0415,-0.1845,0.7643
3.8300,-1.5728,0.1542,0.6673,9.5626,2.1490,0.3287,0.0066,-0.1420,0.6150
3.8400,-1.0516,0.0448,0.5641,9.5477,2.2117,0.3445,-0.0266,-0.1301,0.4644
3.8500,-0.3110,-0.1558,0.5201,9.5361,2.2591,0.3586,-0.0499,-0.1527,0.3441
3.8600,0.1206,-0.3908,0.5700,9.5271,2.2942,0.3745,-0.0657,-0.1845,0.2717
3.8700,0.3721,-0.5939,0.4901,9.5198,2.3213,0.3933,-0.0862,-0.2074,0.2702
3.8800,0.3219,-0.6939,0.3533,9.5126,2.3471,0.4141,-0.1042,-0.2059,0.3178
3.8900,0.0834,-0.6654,0.2613,9.5045,2.3761,0.4342,-0.1036,-0.1750,0.3700
3.9000,-0.1865,-0.5487,0.2265,9.4954,2.4090,0.4511,-0.0804,-0.1439,0.4033
3.9100,-0.3515,-0.4082,0.1872,9.4857,2.4444,0.4652,-0.0416,-0.1310,0.3978
3.9200,-0.3682,-0.3039,0.0875,9.4760,2.4791,0.4788,-0.0007,-0.1414,0.3560
3.9300,-0.2564,-0.2184,0.0437,9.4672,2.5097,0.4938,0.0366,-0.1668,0.2973
3.9400,-0.0836,-0.2016,0.0699,9.4596,2.5347,0.5119,0.0723,-0.1848,0.2527
3.9500,-0.0290,-0.2665,0.0878,9.4529,2.5553,0.5323,0.0980,-0.1878,0.2366
3.9600,-0.1508,-0.2913,0.0703,9.4466,2.5742,0.5534,0.0974,-0.1793,0.2332
3.9700,-0.4174,-0.2225,0.0226,9.4403,2.5927,0.5736,0.0751,-0.1600,0.2237
3.9800,-0.7729,-0.1173,-0.0428,9.4342,2.6108,0.5911,0.0427,-0.1194,0.1761
3.9900,-1.0446,-0.0205,-0.1189,9.4294,2.6254,0.6037,0.0189,-0.0706,0.0976
4.0000,-1.0897,0.0718,-0.1070,9.4266,2.6337,0.6109,0.0097,-0.0330,0.0084
4.0100,-0.7781,0.1754,0.0908,9.4263,2.6342,0.6143,0.0045,0.0009,-0.0893
4.0200,-0.3363,0.1875,0.2523,9.4286,2.6257,0.6144,-0.0040,0.0360,-0.1498
4.0300,-0.0591,0.0926,0.2246,9.4327,2.6116,0.6109,-0.0263,0.0687,-0.1394
4.0400,-0.0069,0.0576,0.1418,9.4367,2.5987,0.6040,-0.0633,0.0895,-0.0713
4.0500,-0.1768,0.1273,0.0463,9.4391,2.5925,0.5942,-0.1100,0.1048,0.0111
4.0600,-0.4464,0.2523,0.0156,9.4393,2.5944,0.5818,-0.1531,0.1216,0.0649
4.0700,-0.6883,0.3730,0.0007,9.4382,2.6018,0.5668,-0.1800,0.1326,0.0658
4.0800,-0.7745,0.4764,-0.0162,9.4370,2.6098,0.5501,-0.1925,0.1252,0.0057
4.0900,-0.6980,0.5705,0.0360,9.4371,2.6126,0.5339,-0.1827,0.1035,-0.1232
4.1000,-0.6270,0.6163,0.0785,9.4403,2.6039,0.5201,-0.1534,0.0947,-0.2595
4.1100,-0.2899,0.4389,0.1707,9.4468,2.5826,0.5081,-0.1241,0.1222,-0.3297
4.1200,0.1520,0.0751,0.1962,9.4550,2.5550,0.4945,-0.1021,0.1805,-0.3383
4.1300,0.2499,-0.0891,0.1461,9.4636,2.5264,0.4764,-0.0920,0.2505,-0.3013
4.1400,0.2635,-0.0386,0.0185,9.4716,2.5010,0.4520,-0.0880,0.3115,-0.2384
4.1500,0.1995,0.0652,-0.1011,9.4782,2.4811,0.4219,-0.0740,0.3293,-0.1794
4.1600,0.0255,0.1002,-0.0647,9.4834,2.4664,0.3903,-0.0447,0.2981,-0.1171
4.1700,-0.1827,0.0531,-0.0198,9.4869,2.4572,0.3622,-0.0166,0.2370,-0.0301
4.1800,-0.3957,0.0484,0.0295,9.4880,2.4560,0.3404,-0.0001,0.1622,0.0664
4.1900,-0.4685,0.1127,0.0079,9.4866,2.4635,0.3260,0.0124,0.0892,0.1516
4.2000,-0.4288,0.2134,-0.0530,9.4828,2.4789,0.3187,0.0192,0.0027,0.2030
4.2100,-0.4331,0.2316,-0.1459,9.4775,2.4990,0.3195,0.0164,-0.1240,0.2017
4.2200,-0.4681,0.1841,-0.2553,9.4718,2.5189,0.3319,0.0137,-0.2303,0.1639
4.2300,-0.5216,0.1702,-0.2595,9.4667,2.5352,0.3540,0.0192,-0.2728,0.1046
4.2400,-0.5692,0.1583,-0.1418,9.4628,2.5459,0.3800,0.0341,-0.2703,0.0298
4.2500,-0.5001,0.1714,0.0550,9.4607,2.5496,0.4059,0.0515,-0.2236,-0.0457
4.2600,-0.3325,0.1629,0.2509,9.4607,2.5462,0.4279,0.0625,-0.1518,-0.1028
4.2700,-0.1581,0.0915,0.3418,9.4623,2.5374,0.4435,0.0613,-0.0718,-0.1211
4.2800,-0.0110,0.0506,0.3190,9.4648,2.5268,0.4519,0.0467,0.0009,-0.1116
4.2900,0.0500,0.0472,0.2938,9.4673,2.5170,0.4532,0.0286,0.0574,-0.0915
4.3000,0.0824,0.1161,0.1580,9.4696,2.5092,0.4489,0.0176,0.0953,-0.0689
4.3100,0.1416,0.2079,0.0009,9.4715,2.5035,0.4408,0.0152,0.1081,-0.0585
4.3200,0.2010,0.2412,-0.0232,9.4731,2.4989,0.4314,0.0189,0.1038,-0.0631
4.3300,0.2196,0.2426,-0.0095,9.4748,2.4939,0.4225,0.0216,0.0950,-0.0783
4.3400,0.2032,0.2419,0.0118,9.4769,2.4875,0.4144,0.0219,0.0956,-0.0896
4.3500,0.2248,0.2517,0.0139,9.4792,2.4801,0.4063,0.0192,0.0968,-0.0884
4.3600,0.2765,0.2613,-0.0005,9.4814,2.4728,0.3980,0.0082,0.0745,-0.0780
4.3700,0.2231,0.2497,-0.0216,9.4833,2.4666,0.3915,-0.0056,0.0382,-0.0463
4.3800,0.0174,0.2242,0.0011,9.4843,2.4633,0.3880,-0.0178,0.0134,0.0096
4.3900,-0.1785,0.1970,0.0385,9.4838,2.4653,0.3865,-0.0315,0.0131,0.0710
4.4000,-0.3106,0.1891,0.0307,9.4818,2.4733,0.3847,-0.0431,0.0235,0.1135
4.4100,-0.3913,0.1974,-0.0573,9.4788,2.4853,0.3817,-0.0441,0.0284,0.1223
4.4200,-0.3725,0.2012,-0.1411,9.4756,2.4982,0.3781,-0.0352,0.0321,0.1104
4.4300,-0.2570,0.2015,-0.1492,9.4726,2.5100,0.3743,-0.0205,0.0363,0.0881
4.4400,-0.1433,0.1536,-0.1177,9.4702,2.5195,0.3703,-0.0102,0.0257,0.0576
4.4500,-0.1106,0.0873,-0.0718,9.4686,2.5260,0.3675,-0.0132,0.0046,0.0374
4.4600,-0.1250,0.0434,-0.0649,9.4675,2.5304,0.3666,-0.0215,-0.0128,0.0240
4.4700,-0.1361,-0.0135,-0.0751,9.4666,2.5334,0.3671,-0.0254,-0.0254,0.0157
4.4800,-0.1415,-0.0611,-0.0659,9.4660,2.5355,0.3688,-0.0266,-0.0357,0.0124
4.4900,-0.1230,-0.0783,-0.0445,9.4655,2.5371,0.3713,-0.0251,-0.0400,0.0087
4.5000,-0.0556,-0.0925,0.0207,9.4651,2.5382,0.3743,-0.0163,-0.0324,0.0163
4.5100,0.0048,-0.0978,0.1055,9.4645,2.5399,0.3769,-0.0089,-0.0223,0.0359
4.5200,0.0106,-0.0833,0.1360,9.4635,2.5434,0.3788,-0.0157,-0.0122,0.0673
4.5300,-0.0115,-0.0539,0.0933,9.4618,2.5498,0.3796,-0.0334,0.0046,0.0961
4.5400,-0.0594,-0.0259,0.0023,9.4593,2.5590,0.3784,-0.0493,0.0260,0.0954
4.5500,-0.1193,-0.0123,-0.1102,9.4570,2.5681,0.3747,-0.0505,0.0452,0.0631
4.5600,-0.1454,-0.0016,-0.1657,9.4556,2.5742,0.3692,-0.0376,0.0492,0.0264
4.5700,-0.1330,-0.0066,-0.1947,9.4551,2.5768,0.3635,-0.0215,0.0376,0.0053
4.5800,-0.1665,-0.0107,-0.2072,9.4551,2.5773,0.3592,-0.0056,0.0156,-0.0038
4.5900,-0.2361,-0.0247,-0.1416,9.4553,2.5770,0.3571,0.0073,-0.0076,-0.0041
4.6000,-0.2266,-0.0339,-0.0915,9.4554,2.5766,0.3573,0.0091,-0.0174,-0.0081
4.6100,-0.1789,-0.0105,-0.0508,9.4555,2.5759,0.3584,0.0011,-0.0153,-0.0231
4.6200,-0.1890,-0.0109,-0.0204,9.4560,2.5738,0.3592,-0.0138,0.0055,-0.0389
4.6300,-0.1995,-0.0050,-0.0226,9.4570,2.5704,0.3578,-0.0383,0.0443,-0.0579
4.6400,-0.1353,0.0252,-0.0602,9.4586,2.5653,0.3523,-0.0618,0.0913,-0.0841
4.6500,-0.0240,0.0362,-0.1287,9.4610,2.5579,0.3418,-0.0752,0.1286,-0.1086
4.6600,0.1298,0.0434,-0.1993,9.4641,2.5483,0.3274,-0.0798,0.1335,-0.1217
4.6700,0.2521,0.0397,-0.2691,9.4675,2.5376,0.3122,-0.0706,0.0935,-0.1019
4.6800,0.2721,0.0162,-0.2933,9.4702,2.5289,0.3005,-0.0526,0.0363,-0.0542
4.6900,0.2288,0.0133,-0.2294,9.4716,2.5245,0.2940,-0.0361,-0.0092,-0.0020
4.7000,0.1235,0.0476,-0.1217,9.4715,2.5249,0.2917,-0.0224,-0.0492,0.0435
4.7100,-0.0188,0.0910,-0.0470,9.4703,2.5295,0.2936,-0.0181,-0.0764,0.0698
4.7200,-0.1341,0.0982,0.0021,9.4682,2.5366,0.2984,-0.0242,-0.0785,0.0719
4.7300,-0.2038,0.0729,0.0556,9.4661,2.5440,0.3035,-0.0334,-0.0583,0.0484
4.7400,-0.2214,0.0605,0.0879,9.4645,2.5492,0.3071,-0.0389,-0.0229,0.0096
4.7500,-0.2066,0.0553,0.0814,9.4641,2.5508,0.3077,-0.0395,0.0220,-0.0295
4.7600,-0.1522,0.0251,0.0369,9.4648,2.5487,0.3043,-0.0386,0.0602,-0.0600
4.7700,-0.0388,-0.0023,-0.0509,9.4663,2.5438,0.2975,-0.0370,0.0730,-0.0753
4.7800,0.0573,0.0077,-0.1208,9.4683,2.5373,0.2896,-0.0248,0.0437,-0.0683
4.7900,0.0975,0.0243,-0.1218,9.4700,2.5315,0.2847,0.0005,0.0046,-0.0444
4.8000,0.1157,0.0089,-0.0600,9.4710,2.5278,0.2839,0.0216,-0.0165,-0.0188
4.8100,0.1034,-0.0016,0.0209,9.4714,2.5263,0.2856,0.0268,-0.0336,-0.0029
4.8200,0.0675,0.0188,0.0460,9.4713,2.5262,0.2892,0.0237,-0.0406,0.0053
4.8300,0.0510,0.0326,0.0345,9.4710,2.5268,0.2935,0.0186,-0.0370,0.0069
4.8400,0.0214,0.0331,0.0283,9.4707,2.5275,0.2973,0.0112,-0.0263,-0.0041
4.8500,-0.0121,0.0382,0.0136,9.4707,2.5272,0.3001,0.0066,-0.0128,-0.0231
4.8600,-0.0234,0.0355,-0.0321,9.4712,2.5251,0.3014,0.0042,-0.0104,-0.0423
4.8700,-0.0064,0.0082,-0.0870,9.4722,2.5212,0.3024,0.0036,-0.0128,-0.0521
4.8800,0.1037,-0.0014,-0.0941,9.4734,2.5165,0.3036,0.0100,-0.0049,-0.0533
4.8900,0.2353,0.0274,-0.0490,9.4747,2.5117,0.3040,0.0222,0.0052,-0.0496
4.9000,0.2808,0.0679,-0.0165,9.4759,2.5071,0.3038,0.0292,0.0070,-0.0221
4.9100,0.2611,0.0843,-0.0164,9.4765,2.5050,0.3037,0.0231,-0.0003,0.0206
4.9200,0.1814,0.0871,-0.0395,9.4759,2.5070,0.3041,0.0100,-0.0156,0.0499
4.9300,0.0355,0.0812,-0.0638,9.4746,2.5118,0.3056,0.0021,-0.0315,0.0625
4.9400,-0.0825,0.0512,-0.0809,9.4729,2.5178,0.3083,0.0015,-0.0425,0.0603
4.9500,-0.1539,0.0226,-0.0941,9.4712,2.5237,0.3120,0.0018,-0.0443,0.0463
4.9600,-0.1729,-0.0167,-0.0750,9.4699,2.5283,0.3156,0.0057,-0.0269,0.0221
4.9700,-0.0908,-0.0514,-0.0183,9.4692,2.5306,0.3176,0.0128,0.0098,-0.0020
4.9800,-0.0214,-0.0441,-0.0004,9.4693,2.5305,0.3165,0.0109,0.0434,-0.0166
4.9900,-0.0160,-0.0186,-0.0538,9.4698,2.5289,0.3124,0.0021,0.0586,-0.0237
5.0000,0.0131,-0.0032,-0.1019,9.4706,2.5267,0.3066,-0.0031,0.0608,-0.0215
5.0100,-0.0043,-0.0096,-0.1269,9.4713,2.5247,0.3005,-0.0050,0.0302,-0.0176
5.0200,-0.1019,-0.0295,-0.1247,9.4719,2.5231,0.2971,-0.0071,-0.0119,-0.0142
5.0300,-0.1776,-0.0378,-0.0820,9.4722,2.5218,0.2974,-0.0053,-0.0275,-0.0139
5.0400,-0.2042,-0.0378,-0.0502,9.4725,2.5206,0.2992,-0.0022,-0.0269,-0.0215
5.0500,-0.1268,-0.0299,-0.0318,9.4729,2.5186,0.3012,-0.0028,-0.0211,-0.0338
5.0600,-0.0043,-0.0232,-0.0285,9.4737,2.5155,0.3027,-0.0047,-0.0186,-0.0423
5.0700,0.0964,-0.0360,-0.0286,9.4747,2.5116,0.3039,-0.0022,-0.0180,-0.0408
5.0800,0.1613,-0.0369,0.0096,9.4757,2.5077,0.3052,0.0048,-0.0189,-0.0307
5.0900,0.1701,-0.0196,0.0475,9.4764,2.5048,0.3069,0.0069,-0.0214,-0.0148
5.1000,0.1471,-0.0109,0.0706,9.4767,2.5033,0.3089,0.0021,-0.0211,0.0002
5.1100,0.1028,0.0047,0.0554,9.4767,2.5032,0.3109,-0.0044,-0.0177,0.0078
5.1200,0.0815,0.0172,0.0323,9.4765,2.5039,0.3124,-0.0074,-0.0101,0.0057
5.1300,0.0529,0.0263,0.0160,9.4763,2.5044,0.3132,-0.0047,0.0018,-0.0017
5.1400,0.0409,0.0372,-0.0076,9.4763,2.5042,0.3129,0.0008,0.0064,-0.0111
5.1500,0.0669,0.0323,-0.0190,9.4767,2.5032,0.3123,0.0042,-0.0034,-0.0139
5.1600,0.1336,0.0192,-0.0182,9.4770,2.5019,0.3127,0.0054,-0.0195,-0.0063
5.1700,0.2114,0.0007,-0.0166,9.4771,2.5012,0.3147,0.0069,-0.0290,0.0078
5.1800,0.1841,-0.0132,0.0092,9.4768,2.5019,0.3176,0.0057,-0.0287,0.0224
5.1900,0.0973,-0.0092,0.0352,9.4762,2.5040,0.3204,0.0021,-0.0266,0.0325
5.2000,0.0348,-0.0218,0.0159,9.4753,2.5069,0.3229,-0.0007,-0.0174,0.0423
5.2100,-0.0264,-0.0173,0.0011,9.4742,2.5108,0.3245,-0.0025,-0.0015,0.0460
5.2200,-0.1222,-0.0035,-0.0061,9.4731,2.5151,0.3245,-0.0040,0.0076,0.0392
5.2300,-0.1812,0.0072,-0.0292,9.4722,2.5187,0.3237,-0.0050,0.0086,0.0292
5.2400,-0.1278,0.0284,-0.0510,9.4715,2.5214,0.3227,-0.0074,-0.0058,0.0099
5.2500,-0.0629,0.0047,-0.0681,9.4712,2.5224,0.3231,-0.0099,-0.0260,-0.0063
5.2600,-0.0522,-0.0283,-0.0559,9.4713,2.5218,0.3252,-0.0092,-0.0388,-0.0108
5.2700,-0.0523,-0.0356,-0.0364,9.4714,2.5208,0.3285,-0.0068,-0.0455,-0.0090
5.2800,-0.0321,-0.0144,-0.0283,9.4715,2.5200,0.3324,-0.0037,-0.0385,-0.0020
5.2900,-0.0081,0.0073,0.0007,9.4715,2.5198,0.3357,-0.0022,-0.0223,-0.0017
5.3000,-0.0140,0.0242,0.0204,9.4714,2.5196,0.3376,-0.0019,-0.0046,-0.0093
5.3100,-0.0119,0.0526,0.0033,9.4717,2.5187,0.3378,-0.0022,0.0107,-0.0231
5.3200,0.0402,0.0643,-0.0242,9.4723,2.5166,0.3367,-0.0001,0.0205,-0.0368
5.3300,0.1470,0.0426,-0.0485,9.4732,2.5132,0.3346,0.0042,0.0192,-0.0402
5.3400,0.2273,0.0235,-0.0766,9.4743,2.5095,0.3328,0.0045,0.0000,-0.0319
5.3500,0.2277,0.0145,-0.0694,9.4751,2.5066,0.3328,0.0079,-0.0208,-0.0087
5.3600,0.1917,-0.0002,-0.0126,9.4752,2.5058,0.3347,0.0161,-0.0272,0.0173
5.3700,0.1359,0.0042,0.0397,9.4747,2.5073,0.3374,0.0155,-0.0296,0.0341
5.3800,0.0411,0.0154,0.0462,9.4738,2.5105,0.3405,0.0039,-0.0293,0.0475
5.3900,-0.0929,0.0301,0.0171,9.4725,2.5149,0.3433,-0.0074,-0.0195,0.0457
5.4000,-0.1863,0.0150,-0.0073,9.4713,2.5192,0.3449,-0.0062,0.0058,0.0289
5.4100,-0.1604,-0.0356,-0.0197,9.4706,2.5220,0.3442,0.0027,0.0354,0.0084
5.4200,-0.0861,-0.0221,-0.0224,9.4705,2.5228,0.3409,0.0060,0.0498,-0.0078
5.4300,-0.0685,0.0302,-0.0059,9.4708,2.5220,0.3363,0.0054,0.0535,-0.0160
5.4400,-0.0870,0.0281,-0.0082,9.4714,2.5205,0.3314,0.0109,0.0498,-0.0243
5.4500,-0.0914,-0.0271,-0.0516,9.4722,2.5182,0.3269,0.0207,0.0373,-0.0304
5.4600,-0.0875,-0.0637,-0.0797,9.4730,2.5153,0.3239,0.0244,0.0195,-0.0295
5.4700,0.1296,-0.0549,-0.1251,9.4738,2.5125,0.3227,0.0155,0.0104,-0.0044
5.4800,0.1426,0.0270,-0.0993,9.4740,2.5120,0.3220,0.0121,-0.0305,0.0072
5.4900,-0.0260,0.0441,0.0277,9.4738,2.5122,0.3251,0.0180,-0.0547,-0.0129
5.5000,0.0098,-0.0135,0.0823,9.4739,2.5114,0.3287,0.0191,-0.0376,-0.0216
5.5100,0.0585,-0.0600,0.1170,9.4743,2.5092,0.3336,0.0146,0.0006,-0.0298
5.5200,0.0840,-0.0380,0.0772,9.4751,2.5063,0.3339,0.0039,0.0348,-0.0209
5.5300,0.1373,0.0108,0.0307,9.4757,2.5043,0.3308,-0.0031,0.0473,-0.0020
5.5400,0.2221,0.0422,-0.0151,9.4760,2.5040,0.3264,-0.0074,0.0336,0.0093
5.5500,0.1839,-0.0041,-0.0262,9.4758,2.5049,0.3231,-0.0157,0.0070,0.0057
5.5600,0.0906,-0.0429,-0.0240,9.4757,2.5054,0.3221,-0.0251,-0.0024,0.0063
5.5700,0.1470,-0.0291,-0.0632,9.4756,2.5059,0.3217,-0.0315,0.0006,0.0179
5.5800,0.1378,-0.0044,-0.0611,9.4752,2.5075,0.3209,-0.0291,-0.0174,0.0301
5.5900,0.0009,-0.0131,-0.0224,9.4745,2.5102,0.3217,-0.0150,-0.0278,0.0420
5.6000,-0.0555,-0.0301,-0.0162,9.4734,2.5141,0.3239,-0.0022,-0.0113,0.0509
5.6100,-0.0985,0.0252,-0.0267,9.4721,2.5186,0.3248,0.0045,0.0046,0.0463
5.6200,-0.1537,0.1156,-0.0466,9.4710,2.5228,0.3244,0.0128,0.0162,0.0249
5.6300,-0.1064,0.1755,-0.0286,9.4705,2.5251,0.3231,0.0228,0.0217,-0.0017
5.6400,0.0276,0.1409,0.0089,9.4705,2.5251,0.3215,0.0308,0.0134,-0.0267
5.6500,0.0835,-0.0102,0.0009,9.4712,2.5225,0.3215,0.0276,0.0007,-0.0184
5.6600,0.0607,-0.1055,-0.0199,9.4717,2.5204,0.3223,0.0211,-0.0038,0.0028
5.6700,0.0178,-0.1432,-0.0447,9.4720,2.5195,0.3236,0.0066,0.0024,0.0405
5.6800,-0.0172,-0.0272,-0.0517,9.4710,2.5232,0.3235,-0.0022,0.0266,0.0570
5.6900,-0.0590,0.0633,-0.0490,9.4697,2.5284,0.3208,0.0018,0.0476,0.0447
5.7000,-0.0329,0.0819,-0.0504,9.4687,2.5326,0.3162,0.0109,0.0535,0.0093
5.7100,0.1156,0.0559,-0.0767,9.4686,2.5334,0.3113,0.0112,0.0296,-0.0264
5.7200,0.1831,0.0273,-0.0729,9.4694,2.5309,0.3087,0.0060,-0.0101,-0.0441
5.7300,0.1198,-0.0428,0.0016,9.4705,2.5267,0.3096,0.0128,-0.0223,-0.0380
5.7400,0.0854,-0.1217,0.0556,9.4714,2.5231,0.3119,0.0259,-0.0095,-0.0063
5.7500,0.1175,-0.1125,0.0374,9.4715,2.5223,0.3133,0.0268,-0.0086,0.0307
5.7600,0.1985,-0.0361,0.0181,9.4708,2.5248,0.3147,0.0161,-0.0260,0.0591
5.7700,0.2298,-0.0089,0.0189,9.4694,2.5300,0.3175,0.0048,-0.0418,0.0796
5.7800,0.1696,-0.0338,0.0485,9.4674,2.5369,0.3214,-0.0047,-0.0449,0.0906
5.7900,0.0773,-0.0416,0.0683,9.4651,2.5448,0.3255,-0.0135,-0.0376,0.0933
5.8000,0.0233,-0.0245,0.0400,9.4628,2.5528,0.3287,-0.0212,-0.0247,0.0872
5.8100,0.0469,-0.0093,0.0310,9.4608,2.5603,0.3306,-0.0248,-0.0043,0.0680
5.8200,0.0844,-0.0329,0.0167,9.4592,2.5660,0.3304,-0.0245,0.0168,0.0447
5.8300,0.0721,-0.0760,-0.0111,9.4583,2.5695,0.3284,-0.0230,0.0318,0.0338
5.8400,0.0750,-0.1011,-0.0484,9.4578,2.5719,0.3249,-0.0196,0.0412,0.0377
5.8500,0.0959,-0.0928,-0.1027,9.4573,2.5744,0.3205,-0.0172,0.0351,0.0444
5.8600,0.0798,-0.0671,-0.1335,9.4566,2.5774,0.3167,-0.0141,0.0208,0.0536
5.8700,0.0616,-0.0505,-0.1153,9.4557,2.5812,0.3140,-0.0059,0.0101,0.0695
5.8800,0.0665,-0.0293,-0.0777,9.4543,2.5863,0.3123,0.0024,0.0027,0.0848
5.8900,0.0623,0.0024,-0.0062,9.4525,2.5929,0.3115,0.0039,0.0018,0.0970
5.9000,0.0441,0.0208,0.0746,9.4504,2.6009,0.3109,0.0002,0.0116,0.1028
5.9100,0.0321,-0.0011,0.0843,9.4480,2.6095,0.3096,-0.0034,0.0336,0.1058
5.9200,0.0238,-0.0305,0.0768,9.4456,2.6186,0.3063,-0.0074,0.0626,0.1104
5.9300,0.1674,-0.0578,-0.0011,9.4432,2.6280,0.3004,-0.0169,0.0935,0.1129
5.9400,0.3685,-0.0660,-0.1070,9.4409,2.6373,0.2914,-0.0285,0.1161,0.1190
5.9500,0.4701,-0.0180,-0.1565,9.4386,2.6468,0.2798,-0.0334,0.1216,0.1321
5.9600,0.4727,0.0363,-0.1417,9.4360,2.6572,0.2673,-0.0285,0.1103,0.1535
5.9700,0.3538,0.0155,-0.0644,9.4328,2.6696,0.2559,-0.0160,0.0904,0.1883
5.9800,0.1903,-0.0478,-0.0108,9.4287,2.6850,0.2467,-0.0056,0.0687,0.2219
5.9900,0.0888,-0.0205,0.0343,9.4237,2.7032,0.2399,0.0002,0.0596,0.2390
6.0000,0.1039,0.0737,0.0614,9.4182,2.7228,0.2343,0.0030,0.0669,0.2280
6.0100,0.0841,0.0835,0.1092,9.4128,2.7416,0.2284,-0.0025,0.0727,0.1938
6.0200,0.0766,-0.0163,0.0903,9.4083,2.7577,0.2221,-0.0205,0.0834,0.1636
6.0300,0.1653,-0.1061,-0.0279,9.4046,2.7709,0.2146,-0.0474,0.0870,0.1361
6.0400,0.1215,-0.1499,-0.0804,9.4018,2.7811,0.2061,-0.0651,0.0657,0.1122
6.0500,0.0337,-0.1717,-0.0815,9.3997,2.7886,0.1988,-0.0667,0.0599,0.1052
6.0600,-0.0184,-0.1195,-0.0423,9.3979,2.7950,0.1919,-0.0599,0.0816,0.1006
6.0700,0.0012,-0.0394,-0.0241,9.3963,2.8011,0.1833,-0.0444,0.0935,0.0863
6.0800,0.1558,-0.0026,-0.0637,9.3950,2.8062,0.1739,-0.0187,0.0816,0.0759
6.0900,0.3259,0.0083,-0.0105,9.3937,2.8109,0.1661,0.0069,0.0486,0.0863
6.1000,0.2928,-0.0634,0.1323,9.3920,2.8167,0.1621,0.0213,0.0150,0.1306
6.1100,0.1700,-0.1866,0.1970,9.3892,2.8262,0.1621,0.0173,0.0177,0.1956
6.1200,0.0821,-0.2225,0.1847,9.3848,2.8405,0.1624,0.0018,0.0437,0.2524
6.1300,-0.1052,-0.1350,0.1432,9.3794,2.8584,0.1609,-0.0044,0.0739,0.2885
6.1400,-0.2390,-0.0107,0.0537,9.3732,2.8790,0.1570,0.0036,0.1100,0.2961
6.1500,-0.2683,0.0320,0.0009,9.3666,2.9009,0.1499,0.0146,0.1280,0.2589
6.1600,-0.0395,0.1052,-0.0892,9.3605,2.9210,0.1407,0.0179,0.1020,0.1990
6.1700,0.1809,0.1287,-0.1317,9.3555,2.9371,0.1329,0.0128,0.0547,0.1614
6.1800,0.2221,-0.0092,-0.0173,9.3514,2.9505,0.1287,-0.0040,0.0336,0.1568
6.1900,0.2429,-0.0806,0.1220,9.3474,2.9633,0.1258,-0.0358,0.0357,0.1694
6.2000,0.1214,-0.0676,0.2021,9.3432,2.9766,0.1223,-0.0697,0.0559,0.1859
6.2100,-0.0166,-0.0400,0.1814,9.3387,2.9909,0.1167,-0.0938,0.0980,0.2002
6.2200,-0.0812,0.0116,0.1119,9.3339,3.0063,0.1072,-0.1058,0.1384,0.2033
6.2300,-0.0726,0.0544,-0.0019,9.3289,3.0221,0.0941,-0.1058,0.1628,0.1984
6.2400,0.1048,0.1115,-0.1694,9.3239,3.0380,0.0784,-0.0951,0.1658,0.1886
6.2500,0.2535,0.1497,-0.2605,9.3188,3.0538,0.0617,-0.0774,0.1298,0.1764
6.2600,0.2824,0.1128,-0.2347,9.3139,3.0691,0.0479,-0.0557,0.0782,0.1810
6.2700,0.2828,0.0513,-0.1420,9.3087,3.0851,0.0390,-0.0395,0.0415,0.2243
6.2800,0.2367,0.0364,-0.0242,9.3021,3.1048,0.0338,-0.0398,0.0238,0.2805
6.2900,0.0402,0.0489,0.0907,9.2939,3.1294,0.0302,-0.0526,0.0324,0.3206
6.3000,-0.2544,-0.0186,0.1287,9.2844,3.1574,0.0257,-0.0700,0.0812,0.3471
6.3100,-0.4021,-0.0690,-0.0035,9.2742,3.1875,0.0167,-0.0887,0.1432,0.3483
6.3200,-0.4265,-0.0714,-0.0925,9.2638,3.2174,0.0015,-0.0978,0.1869,0.3190
6.3300,-0.2921,0.1349,-0.4065,9.2539,3.2457,-0.0185,-0.0850,0.2428,0.2518
6.3400,-0.3461,0.3127,-0.6359,9.2456,3.2690,-0.0440,-0.0483,0.1811,0.1159
6.3500,-0.2629,0.1373,-0.4555,9.2415,3.2804,-0.0640,-0.0065,0.0535,-0.0218
6.3600,0.0027,0.0074,-0.3657,9.2416,3.2798,-0.0724,0.0186,-0.0208,-0.0875
6.3700,0.3664,0.0195,-0.0810,9.2442,3.2725,-0.0722,0.0234,-0.1032,-0.0851
6.3800,0.7179,-0.0961,0.2659,9.2470,3.2648,-0.0624,-0.0071,-0.1497,0.0304
6.3900,0.4411,-0.3239,0.3135,9.2461,3.2675,-0.0490,-0.0676,-0.1167,0.2036
6.4000,0.1028,-0.3351,0.2284,9.2397,3.2859,-0.0404,-0.1180,-0.0299,0.3276
