time,seconds_elapsed,z,y,x
1759347223270303500,0.022303466796875,-0.01336377783343196,0.0183212541103363,0.03668780866712332
1759347223280360700,0.032360595703125,-0.05793956327140331,0.007446224352717399,0.005843757592141628
1759347223290418700,0.042418701171875,-0.09678323479816317,-0.010704933887720107,-0.09439648579210043
1759347223300475600,0.0524755859375,-0.11697919673919677,-0.026136896297335625,-0.1612348103120923
1759347223310532600,0.06253271484375,-0.12893573812320827,-0.08503799807727336,-0.17636925107985735
1759347223320589600,0.072589599609375,-0.13825769321992992,-0.057629182147979734,-0.18689064509421585
1759347223330646500,0.082646484375,-0.14698869668617845,-0.01853694268763065,-0.22730624211281536
1759347223340703500,0.092703369140625,-0.192527335806936,-0.00881692818403244,-0.23055121538341045
1759347223350760700,0.1027607421875,-0.1946685856193304,-0.009175240102410316,-0.23082184901833533
1759347223360818700,0.112818603515625,-0.15771518481858074,-0.019015666115283963,-0.11183920350223779
1759347223370875600,0.122875732421875,-0.1533903073567897,-0.008286182308197021,-0.022726211071014402
1759347223380932600,0.1329326171875,-0.10290157154798507,-0.0007937807261943817,0.041405192577838895
1759347223390989600,0.142989501953125,-0.10540610171481966,-0.020564064601063727,0.1068497246518731
1759347223401046500,0.153046630859375,-0.10907178461551666,-0.020929975304007527,0.10714315464049577
1759347223411103500,0.163103515625,-0.13487024273872375,-0.015940496453642844,0.08602174841761588
1759347223421161700,0.17316162109375,-0.11423903118558228,-0.020684476110339165,0.047724166466295716
1759347223431218700,0.18321875,-0.11220423742234706,-0.03709200555384159,0.019778467181324956
1759347223441275600,0.193275634765625,-0.10813896074481308,-0.08658522751927375,-0.007782324439287185
1759347223451332600,0.20333251953125,-0.11050722424611449,-0.08731821796894072,-0.009056289897859096
1759347223461389600,0.2133896484375,-0.07297872697114945,-0.11504735189378261,-0.03577653904110193
1759347223471446500,0.223446533203125,-0.06672828827425838,-0.02166939549446106,-0.016769056232273576
1759347223481503500,0.23350341796875,-0.05758885013759136,0.05954115324914455,0.02343260577470064
1759347223491561700,0.243561767578125,-0.037343788357824086,0.06673135701417923,0.07432225053459406
1759347223501618700,0.25361865234375,-0.04072817009910941,0.0685188249528408,0.08098521555513143
1759347223511675600,0.263675537109375,-0.014458733463287353,0.021776363000273705,0.17857143729925154
1759347223521732600,0.273732666015625,-0.014274024546146392,-0.0078045362710952755,0.2251408807724714
1759347223531789600,0.28378955078125,-0.05113631299734115,0.052798693251609796,0.17436054160594938
1759347223541846500,0.293846435546875,-0.04699555993080139,0.12512684735953808,0.1135425002887845
1759347223551904800,0.30390478515625,-0.03319938202947378,0.2008300308585167,0.06211714121699333
1759347223561961700,0.313961669921875,-0.023372546150535342,0.25599662228524683,0.03229571118801832
1759347223572018700,0.324018798828125,-0.06288271876201033,0.22596271854937075,-0.06752922939360141
1759347223582075600,0.33407568359375,-0.16857260585427283,0.16011223602294922,-0.30543957536816596
1759347223592132600,0.344132568359375,-0.22738442191556094,0.03321545638144016,-0.43391427185088394
1759347223602189600,0.354189453125,-0.24988033136203883,-0.09848550867140292,-0.4768871521368622
1759347223612247800,0.364247802734375,-0.22884046594277022,-0.1466109494149685,-0.4702151270270347
1759347223622304800,0.3743046875,-0.231477098056674,-0.10652210013270377,-0.4533396878108382
1759347223632361700,0.38436181640625,-0.2573661570727825,-0.07419862415492534,-0.4334472388610244
1759347223642418700,0.394418701171875,-0.26343641689717767,0.04370820882320404,-0.3717202660053968
1759347223652475600,0.4044755859375,-0.2868188999198377,0.21367723747193812,-0.2977411298200488
1759347223662533600,0.41453369140625,-0.31742154345437884,0.2886947767943144,-0.20455781920999289
1759347223672590600,0.424590576171875,-0.3418858303643763,0.2447609425216913,-0.11568360397070646
1759347223682647800,0.434647705078125,-0.41890228841900823,0.22252865244746206,-0.08279284949898719
1759347223692704800,0.444704833984375,-0.530952212062478,0.232817991271615,-0.03175590522289276
1759347223702761700,0.45476171875,-0.5072597863078117,0.24342998617887496,-0.0053010290175676345
1759347223712819500,0.4648193359375,-0.46563422897756096,0.1836708062648773,0.0775549488455057
1759347223722876700,0.474876708984375,-0.3907219035953283,0.16279811410605907,0.10304010323584079
1759347223732933600,0.48493359375,-0.35107962903678414,0.17539572987258434,0.13172902210354803
1759347223742990600,0.494990478515625,-0.07139759525954723,0.16710253330171107,0.10712357315719127
1759347223753047800,0.5050478515625,-0.027245734322071075,0.18045301326215266,0.13892156395614147
1759347223763104800,0.515104736328125,0.08509016665592789,0.22411855198740957,-0.10845394497811793
1759347223773162500,0.52516259765625,0.0770505795199424,0.33662323366105557,-0.3258377818830311
1759347223783220200,0.53522021484375,0.11381642185933888,0.35216450166404245,-0.27875395914688705
1759347223793277200,0.545277099609375,0.025358313140273092,0.45531741762459277,-0.45966552983149883
1759347223803334100,0.555334228515625,0.055714872959256166,0.38928222618103026,-0.245804021833837
1759347223813391000,0.56539111328125,0.003632219022512436,0.2508744569659233,-0.1519030644737184
1759347223823449000,0.575448974609375,0.014795418071746825,0.034062428599596024,-0.09561579845398664
1759347223833506000,0.585506103515625,0.02673844238705933,0.049666824966669076,-0.029475831461697816
1759347223843563300,0.595563232421875,0.08653495863676071,-0.31148586979508397,0.16656857255548238
1759347223853620200,0.6056201171875,0.19445691563002765,-0.3197679604500532,0.4137190405622124
1759347223863678200,0.61567822265625,0.21380290967822074,-0.2580184835016727,0.5580677441336214
1759347223873735200,0.625735107421875,0.2155207464467734,-0.2483732877999544,0.6067528645865619
1759347223883792100,0.635792236328125,0.19187157531194388,-0.2386222936362028,0.6012210955530405
1759347223893849000,0.64584912109375,0.26376075348071754,-0.1466354993343353,0.5367150133728981
1759347223903906000,0.655906005859375,0.1975958712428808,-0.17509762370884419,0.4031171286575496
1759347223913964300,0.66596435546875,0.29461649499349296,-0.12284078224897384,0.3209809895016253
1759347223924021200,0.676021240234375,0.3378927421402186,-0.3600426876932382,0.5020407364852726
1759347223934078200,0.686078125,0.1637847139906138,-0.49721127050220965,0.972722604241222
1759347223944135200,0.69613525390625,-0.05462364365644753,-0.6416501365751027,0.9324570832177996
1759347223954192100,0.706192138671875,-0.19477854879982767,-0.7382523157179355,0.924584157885611
1759347223964250400,0.71625048828125,-0.3905659093160182,-0.5809592287689447,0.8916752832353114
1759347223974307300,0.726307373046875,-0.5119342078596353,-0.4770756604462862,0.6129359371356665
1759347223984364300,0.7363642578125,-0.5711849267948419,-0.3365548445999622,0.37275560040250416
1759347223994421200,0.746421142578125,-0.5716320129752159,-0.13215572308301926,0.2899994296520948
1759347224004479200,0.756479248046875,-0.4645955335795879,0.06760580176115036,0.2778073259465396
1759347224014536200,0.7665361328125,-0.3275947816181928,0.18696283354759216,0.2509947223447263
1759347224024593200,0.77659326171875,-0.1892266868263483,0.20932781009078025,0.16303279964476822
1759347224034650400,0.786650390625,-0.07004800728149711,0.173428813713789,0.06535875348672271
1759347224044707300,0.796707275390625,0.0070434887707233424,0.14691840792894362,-0.02684241421818733
1759347224054765300,0.806765380859375,0.016027590215206146,0.11737608710229396,-0.11395473435148597
1759347224064822300,0.816822265625,-0.03159757285602391,0.06866495542526245,-0.24936945923045276
1759347224074879200,0.826879150390625,-0.10024024338424205,-0.012787000858783721,-0.48767640330716966
1759347224084936200,0.836936279296875,-0.12136135734617709,-0.053071664974093435,-0.5812136419214308
1759347224094994400,0.846994384765625,-0.12864800722301006,-0.09171849875450133,-0.631972207647562
1759347224105051400,0.857051513671875,-0.11566117294318973,-0.0941688145160675,-0.6311345877796412
1759347224115108400,0.8671083984375,-0.06779759800620376,-0.09303718013763428,-0.6584902122169732
1759347224125165300,0.877165283203125,-0.022786489890888332,-0.057307695108652114,-0.6251921921186149
1759347224135223000,0.88722314453125,0.05024075239710509,-0.038111996251344676,-0.5559741328552364
1759347224145280000,0.897280029296875,0.10610526296012103,-0.00009878419935703278,-0.5161643927752971
1759347224155337200,0.907337158203125,0.12497063388451933,0.02928630023896694,-0.5051861949041485
1759347224165394400,0.91739453125,0.15213818840384483,0.04577098657190799,-0.4755015429973602
1759347224175452200,0.9274521484375,0.21387999350242315,0.06195990482866764,-0.4119149137496948
1759347224185509000,0.937509033203125,0.2582130562257022,0.06117664549648762,-0.3230010971523821
1759347224195566000,0.947566162109375,0.2960965774834156,0.04623042077720165,-0.2561889299869537
1759347224205623000,0.957623046875,0.3523543982129544,0.018876549905538557,-0.23011370074898002
1759347224215681300,0.967681396484375,0.44017771615982054,-0.041894437399506566,-0.23049261706396937
1759347224225738200,0.97773828125,0.5366062192361801,-0.13266951782405376,-0.3247518863424659
1759347224235795200,0.987795166015625,0.6137718034379184,-0.2280775187462568,-0.4128089399799704
1759347224245852200,0.99785205078125,0.7145793253161012,-0.2967600098282099,-0.4832711540855467
1759347224255910100,1.00791015625,0.8038293881304561,-0.37931262083053585,-0.5285971733689308
1759347224265967000,1.017967041015625,0.7906153940312564,-0.381986808475852,-0.5366353722654282
1759347224276024000,1.028024169921875,0.9133720781933515,-0.4369406339347362,-0.5240756042912602
1759347224286081300,1.038081298828125,1.137388338850066,-0.4698018700510263,-0.4367541714519262
1759347224296139300,1.04813916015625,1.519822233506292,-0.4691097961336374,-0.33992037551030513
1759347224306196200,1.0581962890625,1.9800994654953479,-0.47716041612029075,-0.22180983665362
1759347224316253200,1.068253173828125,2.5127806933075187,-0.49125557696819305,-0.0911329539515078
1759347224326310100,1.07831005859375,2.9973674600362776,-0.5151747972160577,0.01417977039143443
1759347224336368400,1.088368408203125,3.3048978702038525,-0.5903717847585678,0.01147562599927187
1759347224346425300,1.09842529296875,3.3532296471744774,-0.7416770294696092,-0.08304507069438695
1759347224356482300,1.108482421875,2.9597821180075403,-0.8666127381712198,-0.30452012243568893
1759347224366540300,1.118540283203125,2.1625233404390514,-1.005273605364561,-0.4040016564071178
1759347224376597200,1.12859716796875,1.642581913343072,-1.317199620142579,-0.5353559999793768
1759347224386654200,1.138654296875,2.003404353237152,-1.6039625520914793,-0.3108459644563496
1759347224396711200,1.148711181640625,2.6160616195619104,-2.125804990503192,0.10544731050804257
1759347224406769200,1.15876904296875,3.3905817649692294,-2.818336588531732,0.5660946909837424
1759347224416826400,1.168826416015625,3.5457185506671665,-3.5891210545420646,0.9115770845353602
1759347224426883300,1.17888330078125,2.9091064082592726,-4.31163219577074,0.5180125048600137
1759347224436940300,1.188940185546875,1.6593839950621128,-4.080104828831553,0.7581004871346056
1759347224446998000,1.198998046875,0.5855740290880203,-3.7655005347549912,0.9020197132475674
1759347224457055200,1.20905517578125,-0.18234306479245424,-1.8342437183618545,0.9974735991381108
1759347224467112200,1.2191123046875,-0.7369377259880304,-1.720352550765872,0.40620260051749646
1759347224477170200,1.229170166015625,-1.43285633610636,-1.686556664147973,-0.6616572979457676
1759347224487227100,1.23922705078125,-1.6572680258214472,-1.8713234489560127,-1.2208239432319998
1759347224497284000,1.2492841796875,-1.9267443074047563,-2.1303426339328286,-1.5256524009644985
1759347224507341000,1.259341064453125,-1.8319342723757028,-2.0990578533530235,-1.6839887133561073
1759347224517399300,1.2693994140625,-1.1919032614350318,-2.421992168879509,-1.833917409016937
1759347224527456300,1.279456298828125,-1.178989711587131,-2.7090479462951422,-2.0261375785708426
1759347224537513200,1.28951318359375,-1.46841251039505,-2.749348977023363,-1.9931269971117376
1759347224547571200,1.2995712890625,-1.8962974389538167,-2.5550515628039836,-1.8100315065167842
1759347224557628200,1.309628173828125,-1.8688330934450028,-2.1802643104434014,-1.4715003934077917
1759347224567685000,1.31968505859375,-1.21410048019588,-1.7995307168990373,-0.851721677705273
1759347224577743400,1.329743408203125,-0.8985153583884239,-1.3381447930157184,-0.25197202467797325
1759347224587800300,1.33980029296875,-0.8099725670605897,-0.8330079902112484,0.40596185056418177
1759347224597857300,1.349857177734375,-0.929041429555416,-0.2633487386137247,1.1069256152428686
1759347224607914200,1.359914306640625,-1.0963742644816636,0.07427928817570209,1.6519520914956927
1759347224617972200,1.36997216796875,-1.3003256422311067,0.2711749021947384,1.9829504710122943
1759347224628029200,1.380029296875,-1.1658762552529573,0.35438626936674117,2.1641724228203296
1759347224638086400,1.39008642578125,-1.3462123641371726,0.35505730049610135,2.297708640476316
1759347224648144100,1.40014404296875,-1.510854644805193,0.22306582806408404,2.2768545068874952
1759347224658201300,1.410201416015625,-1.6262562169641255,0.34127076720595356,2.251984707916528
1759347224668258300,1.42025830078125,-1.3911813866764307,0.3638602001547813,1.8206717046052217
1759347224678316000,1.43031591796875,-1.4551117147952317,0.22625614853799342,1.404342919936031
1759347224688373200,1.440373291015625,-1.6919512166678905,0.20870880140960216,0.8448189856447279
1759347224698430200,1.45043017578125,-1.9749287848591803,0.27023908264935015,0.19640373884886503
1759347224708488200,1.46048828125,-1.8986609532147645,0.7221569209635257,0.28672417084109036
1759347224718545200,1.470545166015625,-2.1710995917350053,1.2669728232055901,0.32799894197229296
1759347224728602000,1.48060205078125,-2.33741185144186,1.8276409590959548,0.40730036915894596
1759347224738660400,1.490660400390625,-2.6323399696677923,2.000803230828047,0.3345143517483026
1759347224748717300,1.50071728515625,-2.934491609406471,2.18634626070559,0.263598037199676
1759347224758774300,1.510774169921875,-2.8842104519337415,2.3875720128834246,0.3153607749996707
1759347224768832300,1.520832275390625,-3.051675973328948,2.606675951579213,0.22638865234386174
1759347224778889200,1.53088916015625,-2.843245988860726,2.783057185357809,0.15117456753607839
1759347224788946000,1.54094580078125,-2.5699825899541375,3.048188131213188,0.23029881152492016
1759347224799003000,1.5510029296875,-2.6142934408456084,3.314396935433149,0.16485446211397647
1759347224809060900,1.561060791015625,-2.399455342900753,3.4388849003672597,0.05364840541612356
1759347224819117800,1.571117919921875,-2.319989591997862,3.4275498518824574,-0.15311756396316922
1759347224829174800,1.5811748046875,-2.0889619912743567,3.4332512783944606,-0.1985970111094415
1759347224839233000,1.59123291015625,-1.294097561496496,3.465231640022993,-0.5946063901210203
1759347224849290000,1.6012900390625,-1.0410235486596822,3.374920085456967,-0.7652575923476368
1759347224859347000,1.611346923828125,-0.8233248005867004,3.2835236582636833,-0.9283082929752766
1759347224869404700,1.62140478515625,-0.5183253702014684,3.1844939597129818,-1.094744471322745
1759347224879462000,1.6314619140625,-0.0966828431636095,3.0483418604701757,-1.2451780477657914
1759347224889519900,1.641519775390625,0.030776246535778044,2.718348858603835,-1.3022462350301445
1759347224899576800,1.651576904296875,-0.20202479360103606,2.2745997136980294,-1.22236211258471
1759347224909633800,1.6616337890625,-0.2587964821368456,1.776104833126068,-1.0973540692992507
1759347224919691800,1.67169189453125,0.7384148128032684,1.1265993068754672,-1.1248614502321927
1759347224929748700,1.681748779296875,2.3483809892237186,0.12609423108696938,-1.211842252940312
1759347224939805700,1.6918056640625,3.198860338717699,-1.0220032063692808,-1.1340301875285803
1759347224949864000,1.701864013671875,3.13063669731915,-2.0370897652179,-1.1753947558350861
1759347224959921000,1.7119208984375,2.7072715842723847,-2.1383511683434246,-1.1825242423888296
1759347224969977900,1.721977783203125,2.6223779631018638,-0.9155389739036559,-0.8999850656148046
1759347224980035800,1.732035888671875,2.656833190411329,0.9120265818685293,-0.5458182111524045
1759347224990092800,1.7420927734375,1.8794219997376203,1.9478835415452718,-0.23971169630810618
1759347225000149800,1.752149658203125,0.6564379558622837,2.3869068269729614,0.46401254605986175
1759347225010208000,1.7622080078125,0.3131716309249401,2.5022797575592994,1.4686032106615603
1759347225020265000,1.772264892578125,0.2353068854779005,1.782541003653407,2.291810376217961
1759347225030322000,1.782322021484375,0.2817401353508234,1.8371090446650982,2.2417381853207945
1759347225040379600,1.792379638671875,0.5343979686021805,0.5608598590701818,1.9405192963875828
1759347225050436600,1.8024365234375,1.281466043460369,-0.47350890787541866,0.6990780970625579
1759347225060494800,1.812494873046875,1.833023236656189,-0.673106766590476,-0.4410432469479739
1759347225070551800,1.8225517578125,2.5280221015810964,0.16453180603086948,0.022918336109630764
1759347225080608800,1.83260888671875,2.0420202073574063,0.19948972216546534,0.8972576134122907
1759347225090666800,1.842666748046875,0.8993588234752417,-0.8289046465456485,0.9424114909991621
1759347225100723700,1.8527236328125,-0.4512812939763069,-1.9194225862145422,0.8872893232360481
1759347225110781000,1.862781005859375,-0.8967530248910188,-2.3226398142457008,1.2910320364460348
1759347225120839000,1.8728388671875,-1.2559388034939765,-2.676516965046525,1.474258167683333
1759347225130896000,1.882895751953125,-1.5062264004826544,-2.793658074349165,1.6225117697387932
1759347225140952800,1.892952880859375,-1.179054885777831,-2.5471868207782506,1.5083182581953702
1759347225151010800,1.9030107421875,-0.8896668660223483,-2.1258295404225587,1.3677166321977972
1759347225161068000,1.913068115234375,-1.1413275049299,-1.7341379150122402,1.2917511445008218
1759347225171126000,1.9231259765625,-1.4067413593798874,-1.2296598683774471,1.246526101373881
1759347225181183000,1.933182861328125,-1.4089514366447924,-0.7722808420479297,1.1856401824522762
1759347225191240000,1.943239990234375,-1.2512056374922393,-0.4977437699437141,1.3380626676902174
1759347225201297700,1.953297607421875,-1.3297498896360396,-0.04338613726198673,1.2332114233791827
1759347225211354600,1.963354736328125,-1.8487407380089163,0.30423253766596314,1.2275851079300044
1759347225221412900,1.973412841796875,-1.8225278538659213,0.29115678299367426,1.27786480409801
1759347225231469800,1.9834697265625,-1.7656424758225677,0.1921200701802969,1.3758724661245942
1759347225241526800,1.99352685546875,-1.751152762699127,-0.11453647976219654,1.271662588457018
1759347225251584800,2.003584716796875,-1.690191221258044,-0.5747235492497682,1.0760660743378103
1759347225261641700,2.013641845703125,-1.5676555594354866,-1.0041267734169959,0.9316765272993593
1759347225271699000,2.023698974609375,-1.7993045069277285,-1.3934580994367598,0.7660139636728912
1759347225281757000,2.0337568359375,-2.1687918993145225,-1.6684867544502018,0.6009646731065585
1759347225291814000,2.04381396484375,-2.3138144104942677,-1.5807856746435165,0.61242353063412
1759347225301871900,2.053871826171875,-2.0752778954453763,-1.0424316618919371,0.7629793452173471
1759347225311928800,2.0639287109375,-2.0520430041998625,-0.3285030555695295,0.8367759644426405
1759347225321986000,2.073986083984375,-2.311332238289714,0.24706278972327708,0.7670572621807455
1759347225332043800,2.084043701171875,-2.7967659772366282,0.6583382365256547,0.4233490021621808
1759347225342100700,2.094100830078125,-2.894332617497444,0.6568687484949827,0.1799274915507063
1759347225352158700,2.10415869140625,-2.196962785657495,0.2197615258216858,0.2546102642270736
1759347225362215700,2.114215576171875,-1.8290911579042672,-0.4834697453975677,-0.06151427995301783
1759347225372272600,2.124272705078125,-1.5103700761586427,-1.2472276737719774,-0.7725213728055358
1759347225382331000,2.134330810546875,-1.2508680761009454,-1.8857459420621394,-1.529329043650627
1759347225392387800,2.144387939453125,-0.6775881497882306,-2.0990870794475076,-1.7464998223267494
1759347225402445800,2.15444580078125,-0.14257964807227252,-1.649040295702219,-1.8969500576436518
1759347225412502800,2.164502685546875,-0.09019771892800926,-1.6423475200653075,-1.9162278818264602
1759347225422559700,2.174559814453125,0.16510872913599015,-0.6912965032756329,-1.8773902016490698
1759347225432618000,2.184617919921875,0.25709391600266096,0.4798801964730024,-1.2176797269221395
1759347225442675000,2.194675048828125,0.24955519106090068,1.120809033036232,-1.1232678243651986
1759347225452733000,2.20473291015625,0.693983550402522,1.5504010577738283,-0.8400880116000771
1759347225462790000,2.214789794921875,0.9629138885408639,1.7397955023825167,-0.35623460064716633
1759347225472846800,2.224846923828125,1.2766478295236825,1.6734657119065521,0.24371669416576622
1759347225482904800,2.23490478515625,1.2311796252906322,1.4650737213611602,0.3105288613311946
1759347225492961800,2.2449619140625,1.2254057911295444,1.4009616069346666,0.048240591555833816
1759347225503019800,2.255019775390625,1.3320049750864504,1.3828309069603681,-0.3713725485462695
1759347225513076700,2.26507666015625,1.0704092176198958,1.0517202992409467,-1.462797739253193
1759347225523135000,2.275135009765625,0.20318386397566646,0.014179916521906852,-2.8678479306757447
1759347225533192000,2.28519189453125,-0.5543477006971835,-0.36573651542067526,-2.443326487200707
1759347225543249000,2.295248779296875,-0.4722416644185781,-0.24951252096295357,-1.4838517793282866
1759347225553307000,2.305306884765625,0.5011199683785438,-0.34566461825072764,-0.007134454989805817
1759347225563363800,2.31536376953125,1.7856933302044868,-0.08417349020242691,1.2519102786302565
1759347225573422000,2.325422119140625,1.9910405462265013,0.04557867887020111,1.544612829761207
1759347225583479000,2.33547900390625,1.7436007398843765,0.015500935992598533,1.4017238234788179
1759347225593536800,2.345536865234375,1.9489596463441847,0.032119477838277816,1.0142169364072382
1759347225603593700,2.35559375,2.0876900716423985,-0.05485913291275501,0.1371111535333097
1759347225613650700,2.365650634765625,1.7809306458473204,-0.096120533105731,-0.14958733487725256
1759347225623708700,2.375708740234375,1.4585551332473754,-0.18843875131905077,-0.5931265633594245
1759347225633766000,2.385765869140625,1.047919153392315,-0.021650106272101403,-0.9883297770872712
1759347225643823900,2.395823974609375,0.5227624758660793,0.2453665071994066,-1.3046546113461255
1759347225653880800,2.405880859375,0.17412322571873665,0.502779426023364,-1.3924904234483837
1759347225663938800,2.415938720703125,0.06324061055527999,0.753828070512414,-1.140721355730295
1759347225673995800,2.425995849609375,0.15511461039874702,0.8570446993589401,-0.803995027020946
1759347225684053000,2.436052978515625,0.36748080180473625,0.7656523638188838,-0.5476297540863976
1759347225694111000,2.446111083984375,0.4945546550462022,0.4569920728385448,-0.38021917774882164
1759347225704168000,2.45616796875,0.5323953966081142,0.45445817044675346,-0.4011401660287752
1759347225714225700,2.4662255859375,0.3346844110855832,-0.08776771530210971,-0.22048293543141334
1759347225724282600,2.47628271484375,0.2980746360907331,0.19981646990180013,0.0003022343495860696
1759347225734340900,2.4863408203125,0.20256964106746017,0.37702714024186135,0.11554379364121704
1759347225744397800,2.496397705078125,0.1506475845199078,0.2062152310281992,0.18681882196702063
1759347225754455800,2.506455810546875,0.02831431340165436,-0.2724450682610273,0.29116153223402796
1759347225764512800,2.5165126953125,-0.19470416838936508,-1.0793564941853284,0.2117092253345996
1759347225774569700,2.52656982421875,-0.48801615665555,-2.013419551295042,-0.17773177160471676
1759347225784628700,2.536628662109375,-0.6680197456497698,-2.799838224288821,-0.771628004162386
1759347225794685700,2.546685791015625,-0.6158137575943022,-2.807059992235899,-0.8017892606049776
1759347225804743400,2.556743408203125,-0.5605822111725807,-3.1614298949897286,-1.014469449863583
1759347225814800400,2.56680029296875,-0.45400648115649817,-3.3439415943473576,-0.8240149748079478
1759347225824858600,2.576858642578125,-0.33058000797405834,-3.4945506734877823,-0.28791268650591373
1759347225834915600,2.58691552734375,-0.09943418769836425,-3.85009955689311,0.2641763485442847
1759347225844973600,2.5969736328125,0.16796360711045563,-4.33705246823132,0.7496162980362773
1759347225855030500,2.607030517578125,0.3865807121373713,-4.72087058378756,0.9621521834533661
1759347225865087500,2.61708740234375,0.6623571167781949,-5.01699638736546,0.9314454219572246
1759347225875145700,2.627145751953125,1.0365677382946015,-5.20467233761847,0.7778405220016836
1759347225885202700,2.63720263671875,1.442713567123562,-5.283309821003675,0.4631510338596999
1759347225895260700,2.6472607421875,1.8665420598983764,-5.158116338148713,-0.13027706972956657
1759347225905317600,2.657317626953125,2.3033938465058803,-4.7535640621215105,-0.6733690707884729
1759347225915375600,2.667375732421875,2.7946272116422652,-4.026647379410266,-1.1243852840878068
1759347225925432600,2.6774326171875,3.3062978001296517,-3.3299235903888937,-1.4750124931819737
1759347225935490600,2.687490478515625,3.5279800648808477,-2.6835820811271667,-1.8596242433339356
1759347225945547500,2.697547607421875,3.6290392234325406,-1.8017963237434624,-2.086581525878608
1759347225955605500,2.70760546875,3.4775077687501907,-1.1404115591287611,-2.451367316445708
1759347225965662500,2.717662353515625,3.210786923354864,-0.4344873955637216,-2.593301506221294
1759347225975720700,2.727720703125,3.054268327909708,0.04095803333222866,-2.492069329190254
1759347225985777700,2.737777587890625,2.988580926990509,-0.58533203702569,-1.3676988042801619
1759347225995834600,2.747834716796875,3.116531015077233,-1.6419857010155916,-0.2234517586417496
1759347226005892600,2.757892578125,2.950356118014455,-2.7878753992944953,0.8204623968929052
1759347226015949600,2.767949462890625,2.6481916187942027,-3.701555593588948,1.4309556170515716
1759347226026007600,2.778007568359375,2.397256371551752,-4.3927913065880535,1.7127737860746681
1759347226036064500,2.788064453125,1.8616110332369804,-4.185362608116865,2.2620444757685063
1759347226046122500,2.79812255859375,1.1101957229547201,-3.3199919789612293,2.902991724771261
1759347226056179500,2.808179443359375,0.18450141187012195,-2.2347961110979315,3.4815579209238288
1759347226066237700,2.81823779296875,-1.3346931912571192,-1.1668173354953526,4.102282758370041
1759347226076294700,2.828294677734375,-2.681520472422242,-0.32594284969270226,4.575537106962502
1759347226086352600,2.8383525390625,-2.288732283946872,-0.46863399531543254,4.982016259399056
1759347226096409600,2.84840966796875,-3.9287387938439844,-0.38993572165369983,4.199044511988759
1759347226106467600,2.858467529296875,-4.124911938807368,-0.4357125534445047,4.262055094914138
1759347226116524800,2.86852490234375,-4.660045820468664,-0.4706336447000503,2.9237592029899355
1759347226126582500,2.87858251953125,-2.170413947558403,-0.6714280197232961,1.0150859012614935
1759347226136639500,2.888639404296875,-2.136832288213074,-0.9301625425398349,-0.1834032779024914
1759347226146697500,2.898697509765625,-2.889484885205328,-1.5490350301176308,-0.8282407027442008
1759347226156754400,2.90875439453125,-3.401175639697909,-2.3864526534646746,-0.5637728969726711
1759347226166812700,2.918812744140625,-2.6783763291776177,-2.9899586450845,-0.4590609880670905
1759347226176869600,2.92886962890625,-2.7987311398297545,-3.039090048000216,-0.2693160312539898
1759347226186927600,2.938927734375,-1.8729943047776818,-3.3428953001648187,-0.5779098146030679
1759347226196984600,2.948984619140625,-1.684143173265457,-3.3062001849740743,-1.0099885050572455
1759347226207042800,2.959042724609375,-2.03414377489388,-3.147201463150978,-1.0443751241099088
1759347226217099800,2.969099853515625,-2.464275313335657,-2.9333120442330833,-0.3783886378534138
1759347226227157500,2.979157470703125,-3.6089845696583387,-2.5145623160272836,-0.06232742296680808
1759347226237214500,2.98921435546875,-4.213555560161173,-1.891366120031476,0.33861280004307626
1759347226247272400,2.9992724609375,-4.169150308984518,-0.6689397100389003,1.0873432551555335
1759347226257329700,3.00932958984375,-4.368675686985254,0.36550972092747686,1.152044129255414
1759347226267386600,3.01938671875,-4.382862033247948,1.2227402982473372,0.9502094513989985
1759347226277444600,3.029444580078125,-4.206362141525745,1.7549901489049196,1.2911799204841254
1759347226287501600,3.03950146484375,-3.7460762878388163,2.097117240679264,1.5530919042930007
1759347226297559600,3.0495595703125,-3.8030613268643614,2.527161100837588,1.303047760671377
1759347226307616800,3.05961669921875,-4.054703845593333,3.068729399460554,1.5006038844257592
1759347226317674800,3.0696748046875,-4.264164926674962,3.8914129795342682,2.0200123736888167
1759347226327731700,3.079731689453125,-4.330135236188769,4.796258709987998,2.232224653174728
1759347226337789400,3.08978955078125,-4.62915033146739,5.403489275088906,2.1170602507725356
1759347226347846400,3.099846435546875,-4.544736018246412,6.044080842521787,2.1719163149453697
1759347226357904600,3.109904541015625,-3.513965568053722,6.474446189719438,2.4175468799084423
1759347226367961600,3.119961669921875,-2.9383909549325704,6.4720730308473104,2.392661591107398
1759347226378019600,3.13001953125,-2.312471471452713,6.213019359079003,2.064526784328371
1759347226388076500,3.14007666015625,-1.8907950421452522,5.952734684211015,1.6886625503860413
1759347226398134800,3.150134765625,-1.5556623393028974,5.605446264150738,1.344597476286441
1759347226408191700,3.160191650390625,-1.3092121285200118,5.146474415671825,0.8565849728927015
1759347226418249700,3.170249755859375,-1.1335346590965985,4.746680732348561,0.42761677914187307
1759347226428307500,3.180307373046875,-0.8843313502132892,4.286055855965614,0.061599547083675855
1759347226438364400,3.190364501953125,-0.8423585868805646,4.320991560268402,0.09699965402781963
1759347226448422700,3.200422607421875,-1.7817045528292654,3.387532898792624,-0.5201064083993434
1759347226458479600,3.210479736328125,-1.913352326390147,3.1377468215852975,-0.5480146982833742
1759347226468537600,3.22053759765625,-1.8350678942263126,3.2064813351154324,-0.515169682649523
1759347226478594600,3.230594482421875,-0.6143535488486289,2.508891869175434,-0.5854902963273226
1759347226488652800,3.24065283203125,0.4371697665154934,2.0362088907301423,-0.7011426283769309
1759347226498709800,3.250709716796875,2.292028987404704,1.5922534095972776,-1.0186971505612135
1759347226508767500,3.260767578125,4.3174797527551645,0.7940911073178052,-1.4499005560182034
1759347226518824700,3.27082470703125,4.6677989188134665,-0.38693829340338703,-1.5936305431693791
1759347226528882400,3.28088232421875,2.2874983582377433,-1.4268576802134514,-0.869091841635853
1759347226538939400,3.290939453125,1.778734597107768,-2.236983392009139,0.7015035706438124
1759347226548997600,3.30099755859375,1.112343402507901,-2.6002953106313944,1.6649249703153968
1759347226559054600,3.3110546875,1.1742910323768854,-2.5311253282934425,1.5839657659843562
1759347226569112600,3.321112548828125,0.46512043423652644,-3.5148902816832064,1.6902224931791423
1759347226579169500,3.33116943359375,-0.37447277958393094,-4.7457349759310485,0.7772618453308939
1759347226589227800,3.341227783203125,0.8235515950798988,-4.4595022053360935,0.754900375919044
1759347226599284700,3.35128466796875,2.2147329817563293,-3.144842332804203,1.4148441479451954
1759347226609342500,3.361342529296875,1.2230997792094944,-1.9221230773448943,1.811712299210578
1759347226619399400,3.3713994140625,0.685012892961502,-0.5345557895123958,2.173309961260855
1759347226629457700,3.381457763671875,0.7517512642383575,0.7626040821641683,2.329725826983899
1759347226639514600,3.3915146484375,0.3600578852623701,1.7006418881237506,2.535417472529411
1759347226649572600,3.401572509765625,0.22879881875813007,2.3786609766751527,2.4166128139287233
1759347226659629600,3.411629638671875,0.1261059215247631,2.8188796093672512,2.2096076015666126
1759347226669687600,3.4216875,0.012021861705183982,3.0549498804330826,2.149046457619965
1759347226679744500,3.43174462890625,-0.48941199492812154,2.7244541897416115,2.232526120339334
1759347226689802800,3.441802734375,-0.9578989829882979,2.028769680640101,2.3492618637114764
1759347226699859700,3.451859619140625,-1.3732193212673067,0.8579039465367794,2.2166312165930866
1759347226709917400,3.46191748046875,-1.4850900889515877,-0.34067046322524547,2.0621480724982915
1759347226719974400,3.471974365234375,-1.6980770060718058,-1.569689695611596,1.6913307466819882
1759347226730032600,3.48203271484375,-2.0941116291224957,-2.4829975494623184,1.4523242760337889
1759347226740090600,3.492090576171875,-2.454435471844673,-3.164238522669673,1.3462421747535467
1759347226750147600,3.502147705078125,-2.496306528368592,-3.548347730126977,0.3651953212160617
1759347226760205600,3.51220556640625,-2.294679794174433,-3.2510289173722264,-0.005515804279409349
1759347226770262500,3.522262451171875,-2.1887343248859046,-2.7629817810565234,-0.25903138687126337
1759347226780319700,3.53231982421875,-2.0902397561252117,-2.2373346896648405,-0.5386569777535274
1759347226790376700,3.542376708984375,-2.090265182827413,-1.4793255340754985,-0.3489819626377895
1759347226800434700,3.5524345703125,-2.096227013841271,-1.0153460865676402,-0.23635407470958306
1759347226810491600,3.56249169921875,-2.153160907201469,-1.0421101748526096,-0.31441980435512956
1759347226820549400,3.57254931640625,-2.0893875232100485,-1.551022989064455,-0.3879493701420724
1759347226830606600,3.582606689453125,-1.9330311325892804,-2.164215677440166,-0.6567366465479135
1759347226840664600,3.59266455078125,-1.8335346933096646,-2.6002894654124975,-1.2977186746031044
1759347226850721500,3.602721435546875,-1.5482973634928463,-3.279251387771964,-2.1200597248494626
1759347226860779500,3.612779541015625,-1.2378349915266036,-3.6256209394216534,-2.9475957133904096
1759347226870837800,3.622837646484375,-0.9922051572158932,-2.9546172825902697,-3.1008301725983616
1759347226880894700,3.632894775390625,-0.8300409570991992,-1.6334925979584454,-2.5824054336756466
1759347226890952700,3.64295263671875,-0.9872237155415117,-0.6171960787981748,-2.2284201463252304
1759347226901009700,3.653009765625,-1.314074619989842,0.06271276902258396,-1.7730561130799352
1759347226911067400,3.6630673828125,-1.4223551080971955,0.33172435570359227,-1.2245447173207997
1759347226921124600,3.67312451171875,-1.4225842406779527,0.2530576462239027,-0.7589400797639042
1759347226931182600,3.6831826171875,-1.3016653664022684,0.27895313498079777,-0.7532550198648125
1759347226941239600,3.693239501953125,-1.0292162064880133,0.273463889914751,-0.15543350362218916
1759347226951297500,3.703297607421875,-0.382173270958662,0.18943068496584892,0.46972661285772915
1759347226961354500,3.7133544921875,-0.23875088845193385,0.2790034038633108,0.7678437363833188
1759347226971412700,3.723412841796875,-0.43531858569085596,0.5731938554644584,0.596550181132555
1759347226981469700,3.7334697265625,-0.3427484385430813,0.8297282378882169,0.4370671098586172
1759347226991527700,3.743527587890625,0.12440722784809767,0.844226718840003,0.15366897816769778
1759347227001585400,3.75358544921875,0.4519570012807846,0.8555132520079612,-0.02771481313854456
1759347227011642600,3.763642578125,0.5182219098269939,0.903567381080985,-0.15407449022866784
1759347227021700600,3.77370068359375,0.5642470903556793,1.2541226939827204,-0.04266363167371601
1759347227031757600,3.783757568359375,0.4871715225249529,1.6415835499554872,0.04484024506043643
1759347227041815600,3.793815673828125,0.3866618145495653,2.085436739757657,0.12083265729695558
1759347227051872500,3.80387255859375,0.14600648071579633,2.3298317715764045,-0.26282548192460087
1759347227061930800,3.8139306640625,-0.24448614416830242,2.098128463548422,-0.8592511233620345
1759347227071987700,3.82398779296875,-0.8054337545871734,1.7536381497740745,-0.834386512022838
1759347227082045400,3.83404541015625,-0.43198092916812747,1.3668565082371233,0.20670482290973885
1759347227092103400,3.844103515625,0.8299456800311803,0.867138223350048,1.5708075937256216
1759347227102160600,3.85416064453125,2.3654051892608403,0.25709376987218857,2.371131604083627
1759347227112218600,3.864218505859375,2.2374381500393152,-0.004407879570126534,2.723982772837579
1759347227122275600,3.874275634765625,2.202400154405832,0.48162031813859935,2.7870062152445314
1759347227132333600,3.88433349609375,1.9835703564763068,0.4962140761584043,1.2746525640532373
1759347227142390500,3.894390625,1.6732687280297278,0.2603033795684576,-0.4224744112847373
1759347227152448800,3.90444873046875,1.7017641701519488,0.021216391029953954,-1.2902630979001521
1759347227162505700,3.914505615234375,2.3742788160681725,0.09470657465457916,-1.6294827777951955
1759347227172563500,3.9245634765625,2.046741975182295,0.16836802319288252,-1.8146426535740494
1759347227182620400,3.934620361328125,0.5638812527179717,0.2092600055515766,-2.2686279458120464
1759347227192678700,3.9446787109375,-0.6984557273805141,0.5260813911557197,-2.261727226512879
1759347227202736600,3.954736572265625,-1.2908441126585006,0.9042939417898654,-1.660482019431889
1759347227212793600,3.964793701171875,-1.5351730935037136,0.9363175580382347,-1.1476984282013027
1759347227222851600,3.9748515625,-1.3834312109410762,0.5872925234436989,-1.0575180257342756
1759347227232908500,3.984908447265625,-1.3302104928851126,0.5845505312591791,-1.0887291565559805
1759347227242966500,3.994966552734375,0.25945520177390424,-0.44492578746974465,-1.7947788461968301
1759347227253023700,4.005023681640625,1.002278515201807,-0.848051830086112,-1.9682301640033721
1759347227263081500,4.01508154296875,1.2522142300128936,-0.9990104533165692,-1.6495488297462462
1759347227273138400,4.025138427734375,0.9763059426207095,-0.8418103053480386,-0.8102345059324055
1759347227283196700,4.03519677734375,0.5021311912477017,-0.6965589538484811,0.24129407012872398
1759347227293254700,4.045254638671875,0.2239209835886955,-0.8953443271368742,0.8973134352527559
1759347227303311600,4.0553115234375,0.198358745374158,-1.3894126234382391,1.021858391071111
1759347227313369600,4.06536962890625,0.2062381735123694,-1.9596417838782072,0.7360814014196395
1759347227323426600,4.075426513671875,0.2445570174474269,-1.9650421816170214,0.6933339273873717
1759347227333484500,4.085484619140625,0.12647292820625006,-2.254808971557021,0.4552132265977561
1759347227343541500,4.09554150390625,-0.11221651238203048,-2.324482227241993,0.38528453484699127
1759347227353599500,4.105599609375,-0.44330015902929004,-2.558520115697384,0.34023981672301884
1759347227363657700,4.11565771484375,-0.422353378720954,-2.9081390245318413,0.34678711947463453
1759347227373714700,4.125714599609375,-0.11720840238519012,-3.305732567462325,0.46353243439272046
1759347227383772700,4.135772705078125,0.24014716511592268,-3.812958451500535,0.5509449795816094
1759347227393829600,4.14582958984375,0.5491431177914142,-4.438114549392462,0.4816711715430021
1759347227403887600,4.1558876953125,1.6683179737545548,-5.7709875394850965,0.09319003261178731
1759347227413944600,4.165944580078125,1.7144671459890901,-5.783154947140813,0.030136998784169554
1759347227424002600,4.17600244140625,2.663472190034389,-6.138837101536989,-0.26501703715212643
1759347227434060500,4.186060546875,3.356933762389421,-6.0029532978415485,-0.7392853120274842
1759347227444117500,4.196117431640625,3.602529986691475,-5.115460853248834,-0.9817078747294843
1759347227454175700,4.20617578125,3.531802838039398,-4.115940112322568,-1.0572482688821851
1759347227464232700,4.216232666015625,3.2751977284669875,-3.0324013640165326,-1.1649372208371758
1759347227474290700,4.226290771484375,2.920735471254587,-2.114461758711934,-1.3084217087946832
1759347227484347600,4.23634765625,2.688944484943151,-1.3327227679669855,-1.4546711314208804
1759347227494405600,4.246405517578125,2.7332512441813943,-0.7539274392336607,-1.7306319527179002
1759347227504463600,4.256463623046875,3.662422437596321,-0.1827437545478344,-2.201245723673701
1759347227514520600,4.2665205078125,4.121283811438083,-0.39499066695570945,-2.452328270432353
1759347227524578600,4.27657861328125,4.428278215032815,-0.7476321384817362,-2.5228449912041424
1759347227534635500,4.286635498046875,4.474774593269824,-1.1659393836170435,-2.256223660660535
1759347227544693800,4.29669384765625,3.894427358919382,-1.710249674424529,-1.7852590304404496
1759347227554750700,4.306750732421875,2.5621272002786397,-2.1184259861677885,-0.931646935878694
1759347227564808700,4.31680859375,1.9430565597802398,-2.547124861457944,-0.017848522032052276
1759347227574866400,4.326866455078125,0.8532522482734173,-2.984485182109475,0.48102615163773293
1759347227584923400,4.33692333984375,-1.0010383058823644,-2.9380624536305664,0.87672993529886
1759347227594981600,4.346981689453125,-1.6818708444193005,-2.58931857406497,1.0022814378112554
1759347227605038600,4.35703857421875,-1.7207856814861298,-2.174750515457988,1.9939912127256392
1759347227615096600,4.3670966796875,-1.7653817790597677,-1.993704212477803,3.064367112597823
1759347227625153500,4.377153564453125,-2.5810198245361446,-1.799792582705617,3.3908202499002216
1759347227635211800,4.387211669921875,-3.210695445679128,-1.5258704276293515,3.223042009294033
1759347227645269800,4.397269775390625,-3.329336145889759,-0.9989075774639844,3.201620451080799
1759347227655326700,4.40732666015625,-4.357698073635995,-0.5378408025324344,2.2383941355898975
1759347227665384400,4.417384521484375,-5.434779316365718,-0.14240297633111476,0.9250687265321612
1759347227675441400,4.42744140625,-3.534692129740119,0.13425006501376627,0.5510082540761679
1759347227685499600,4.437499755859375,-1.9911507286027073,-0.18469196600615978,0.20996157794967293
1759347227695556600,4.447556640625,-1.3723840394869447,-0.8476911800801753,-0.7966141960546373
1759347227705614600,4.457614501953125,-1.4683385683760046,-0.8770166432857512,-0.5985584522150457
1759347227715672600,4.467672607421875,-1.638475062546134,-1.3816490036994218,-1.1178668421044946
1759347227725729800,4.477729736328125,-1.7806076975032685,-1.7613538387179373,-0.6932653191305697
1759347227735787500,4.48778759765625,-2.290076976554096,-2.2179706485033033,-0.36116069540511814
1759347227745844500,4.497844482421875,-2.6860361962810155,-2.368025600892305,-0.6380342111002654
1759347227755902500,4.50790234375,-3.1828014765813943,-2.2928192609995603,-0.7852073975078762
1759347227765960700,4.517960693359375,-3.6731039906084537,-2.1065999392956494,-0.72851798042804
1759347227776017700,4.528017578125,-3.413488593304157,-1.900532592305541,-0.16421631034091114
1759347227786076000,4.538075927734375,-3.4970419057816264,-1.3642869500100612,-0.006949819137901068
1759347227796132900,4.5481328125,-3.451458550736308,-0.5044757085472346,-0.05817234911397099
1759347227806190800,4.55819091796875,-3.5860885549783705,0.23631109408438206,0.3822689864180982
1759347227816247800,4.568247802734375,-3.852571499964595,0.742511142206192,0.5635743787258863
1759347227826305800,4.578305908203125,-3.821313022869825,1.2245248435765503,0.9111063982836901
1759347227836363800,4.58836376953125,-3.732035487526655,1.6703268293589353,1.5242892959177494
1759347227846420700,4.598420654296875,-3.438744615113735,2.185913714507222,2.166827905765176
1759347227856478700,4.608478759765625,-3.339072527006268,2.599489839467406,2.5591747802138327
1759347227866535700,4.61853564453125,-3.5934997080177067,3.0889170319646597,2.6632167539685963
1759347227876594000,4.628593994140625,-3.687349958103895,3.6431256164520978,2.991721563103795
1759347227886651600,4.638651611328125,-3.637212593016028,3.9348558154195543,2.7695547297060488
1759347227896708600,4.64870849609375,-3.6442800471842287,4.153454142680764,2.744377033829689
1759347227906766600,4.6587666015625,-3.506618127900362,4.571325919008255,2.7156062818974256
1759347227916823800,4.66882373046875,-2.8962580326020717,4.811232407236099,2.554069273768365
1759347227926881800,4.6788818359375,-2.2979864345043897,4.726787698876858,2.317236493897438
1759347227936939800,4.688939697265625,-1.7877081771582364,4.389822519910335,2.08211197924912
1759347227946996700,4.698996826171875,-1.4639111073225737,4.089384698352218,1.770038811085373
1759347227957055000,4.709054931640625,-1.206630874967575,3.8293174656271933,1.3678440579697488
1759347227967112000,4.71911181640625,-1.1188444549649954,3.8600720848530528,0.9618810383617877
1759347227977169700,4.729169677734375,-1.1046347278267143,3.7110569969058034,0.6575535158887506
1759347227987226600,4.7392265625,-0.8795207350611686,3.3961510895341633,0.3117275695964694
1759347227997284600,4.74928466796875,-0.9335966086417437,2.896947183910012,0.018221300867199898
1759347228007342800,4.7593427734375,-1.4220283603608608,2.6640982129782436,-0.1714097289763391
1759347228017399800,4.76939990234375,-1.8145634508579969,2.4424206244021653,-0.37528847988098857
1759347228027457800,4.779457763671875,-1.9305916304826736,2.348771449846029,-0.6192826758138835
1759347228037514800,4.7895146484375,-1.6626894663482903,2.3721710301339627,-0.673914283581078
1759347228047572700,4.79957275390625,-1.1949147182106972,2.4944611927628517,-0.7739717177443206
1759347228057630700,4.809630615234375,-0.6045809273749589,2.4617303050279618,-0.9422663834400474
1759347228067687700,4.819687744140625,-0.21401099947094915,2.5171786360055206,-1.0354403416998683
1759347228077745700,4.82974560546875,0.4111351615488529,2.4075147307157514,-1.3664865058809519
1759347228087802600,4.839802734375,0.4899421562820673,2.4842969416230916,-1.4088362858325243
1759347228097860900,4.84986083984375,3.3233371977359054,2.1657143915653227,-2.393463116748631
1759347228107918800,4.8599189453125,6.777370567396283,0.756767046573758,-2.93333717867434
1759347228117975800,4.869975830078125,4.937552263772488,-1.133134846124053,-1.9944762197636066
1759347228128033800,4.88003369140625,2.6156349185824395,-2.377352816686034,0.4226936435259878
1759347228138090800,4.8900908203125,1.0474380918771027,-3.078146047103405,1.762184444323182
1759347228148148700,4.900148681640625,-1.1463386110901832,-3.3647733699738978,1.8637772713601588
1759347228158206700,4.910206787109375,-0.0027519290566444393,-4.326376175916194,1.982425716485828
1759347228168263700,4.920263671875,0.8617249661296605,-5.088161342912912,1.7901149460390209
1759347228178322000,4.930322021484375,1.8411118505656718,-4.460958249363303,1.7688946094863116
1759347228188379000,4.94037890625,0.5905822126388549,-3.3800966113120317,1.7027448517523704
1759347228198436900,4.950436767578125,-0.23297756574749945,-1.7411381491631268,1.7333529021143912
1759347228208494600,4.96049462890625,0.21171090583503244,-0.06587210983633994,1.9120136251322923
1759347228218551800,4.9705517578125,-0.610371785736084,0.9484130695015192,2.0888702213376757
1759347228228609800,4.98060986328125,-1.117248710206151,1.6534072587400674,2.0071919089518486
1759347228238666800,4.990666748046875,-0.5909650744765996,2.0106676222383975,1.7507424283325672
1759347228248724700,5.000724853515625,-0.42338031061589715,2.040102391037345,1.624907871095091
1759347228258783000,5.010782958984375,-0.498874235278368,1.4785200629115103,1.4555156194210053
1759347228268840000,5.02083984375,-1.4167968894481657,-0.28485212989151476,1.462979671691358
1759347228278897700,5.030897705078125,-1.6140087298095225,-1.2016413961172103,1.4217996661715209
1759347228288954600,5.04095458984375,-1.9818775810837745,-2.071251562538743,1.41484502472803
1759347228299012600,5.0510126953125,-2.086982507894933,-2.6768314378231763,1.574292513231933
1759347228309069800,5.06106982421875,-2.3274708876639605,-2.9357150137215853,1.697764432991296
1759347228319127800,5.0711279296875,-2.5896099582269785,-3.0523218700170514,1.7422418726213276
1759347228329185800,5.081185791015625,-2.3771426810666916,-2.894206360769272,1.6593053768679498
1759347228339242800,5.09124267578125,-2.579823600488901,-2.5440572905808687,1.3866066261067986
1759347228349300700,5.10130078125,-2.8151331163153053,-2.0822604478091002,0.9823420809797943
1759347228359358000,5.11135791015625,-2.3043508549697695,-1.1909563359737396,1.1898850534804164
1759347228369415700,5.121415771484375,-1.7879156824290752,-0.32043139279484745,1.5023856532759963
1759347228379473700,5.1314736328125,-1.578382705155015,0.600101151612401,1.544664121557027
1759347228389530600,5.141530517578125,-1.6266501847177743,0.9524994620323181,1.586121336583048
1759347228399588900,5.1515888671875,-1.5414339074641465,1.0779255845993756,1.4643880771845579
1759347228409645800,5.161645751953125,-1.5601077744044363,0.970496891015768,1.2098305477917193
1759347228419703800,5.171703857421875,-1.4730185428857803,0.32251813594102857,0.501811457774043
1759347228429761500,5.181761474609375,-1.4135180139079688,0.3303822934448719,0.3824162494016811
1759347228439818800,5.19181884765625,-0.9376178269818425,-1.6308289317071436,-0.404268234921433
1759347228449876700,5.201876708984375,-0.7470891176462173,-2.6247826861560344,-0.9367351989284157
1759347228459934700,5.211934814453125,-0.40637320784404873,-3.630509880506992,-1.8370108449876308
1759347228469991700,5.22199169921875,-0.5317572448350489,-3.719987322336435,-2.4518106762990355
1759347228480050000,5.2320498046875,-0.441903809300065,-3.708704296299815,-2.494030984652042
1759347228490107000,5.24210693359375,-0.5255335480146109,-3.0695068135738373,-2.824605293537676
1759347228500164900,5.252164794921875,-0.442184525937587,-1.7913982638478279,-2.901510546302795
1759347228510222600,5.26222265625,0.2552742993600666,-0.2564846980631351,-2.283595797841251
1759347228520279600,5.272279541015625,0.5401888269633054,0.9314736251384019,-1.7198296959355472
1759347228530337800,5.282337890625,0.4251443976789713,1.5435428624421357,-1.6956671684511004
1759347228540394800,5.292394775390625,0.17419336834549903,1.7582190478235482,-1.6782301498293877
1759347228550452700,5.30245263671875,0.06573365121372043,2.0557535491555927,-1.604516971103847
1759347228560511000,5.312510986328125,0.3626923254191875,2.5058587850898504,-1.5084250795707106
1759347228570568000,5.32256787109375,1.0956330907255412,3.082737466546893,-1.0696931052397936
1759347228580625700,5.332625732421875,1.9354308872073889,3.7553228396117686,-0.8322739768482744
1759347228590682600,5.3426826171875,1.4464982002288103,3.5659500223129985,-1.6334025815874338
1759347228600740600,5.35274072265625,-0.08476272479984909,2.5120646539926526,-2.7109306913018223
1759347228610798800,5.362798828125,-0.4040022409290075,1.994444801712036,-2.109821531690657
1759347228620855800,5.372855712890625,0.5737216787308455,1.4171201300531624,-0.7855328300699591
1759347228630913800,5.382913818359375,1.0362491738647222,-0.03674070789813995,-0.08576854084152728
1759347228640970800,5.392970703125,1.322675421205163,-1.0178799889594317,0.7026924881674349
1759347228651029000,5.403029052734375,2.514994277703762,-2.1477841825991866,2.145752676771581
1759347228661086700,5.413086669921875,2.3311387625217437,-1.856982788914442,2.3658675460755823
1759347228671143700,5.423143798828125,2.0433914957106114,-1.2937538626253604,2.007348122426867
1759347228681201700,5.43320166015625,1.6817255907297133,-1.0295072983890772,0.7455885768901557
1759347228691258600,5.443258544921875,1.5498387477159499,-0.640825376188755,-0.15431052747424692
1759347228701316900,5.45331689453125,1.5596061084926127,-0.2802875984549522,-1.043359005869925
1759347228711374800,5.463374755859375,1.0921452486097811,-0.028638649985194206,-1.7023014918990431
1759347228721431800,5.473431884765625,0.5921183361649512,0.3200537916541099,-2.10486873158887
1759347228731489500,5.483489501953125,0.17331426568971947,0.7187474047809839,-2.1640179629109797
1759347228741546800,5.493546630859375,-0.4082113830566406,0.9757575880229472,-1.5698444477818905
1759347228751604700,5.503604736328125,-0.6056488488674163,0.9802940624088048,-0.8756630367197096
1759347228761662700,5.513662841796875,-0.24982352314088493,0.8593710964798926,-0.4360073351399973
1759347228771719700,5.5237197265625,0.17696747270133345,0.8142021674543619,-0.2661350448640063
1759347228781778700,5.53377880859375,0.3114110875258222,0.8214449781894684,-0.3142826243741438
1759347228791835600,5.543835693359375,0.39555301354620603,1.0127455486804247,-0.5847995375841856
1759347228801893600,5.5538935546875,0.16716043750140816,1.6723738250166176,-0.07974263161551207
1759347228811951600,5.56395166015625,-0.12800444862246513,2.3390210402041673,0.5406499051364139
1759347228822008600,5.574008544921875,-0.3535947901954874,2.3171342025667427,0.30812976430021227
1759347228832066600,5.584066650390625,-0.23751458812262863,1.4569137957811356,-0.15514496900439262
1759347228842124800,5.594124755859375,0.17832827619314193,0.17992226738631725,-0.32261881983652707
1759347228852181800,5.604181640625,0.22752624153904616,0.1736228749811649,-0.3698127518836409
1759347228862239500,5.614239501953125,0.5835199461024254,-1.0746411561012268,-0.5312568940974771
1759347228872296400,5.62429638671875,0.18258001535348592,-2.8306097946494817,-0.724972197579965
1759347228882354700,5.634354736328125,0.24641806207895278,-2.84101954498291,-0.7867259123120457
1759347228892412700,5.64441259765625,-0.23703056746535,-3.4924189221560953,-0.960698623644188
1759347228902469600,5.6544697265625,-0.6710474959731102,-3.9521652621388434,-0.9816375859722495
1759347228912527600,5.664527587890625,-0.7504851898252963,-4.105050469517708,-0.7042465126764029
1759347228922584600,5.67458447265625,-0.5867654308296739,-4.036714015394449,-0.46990942207872866
1759347228932642800,5.684642822265625,-0.46135742844119665,-4.32355001257956,-0.6003457740232349
1759347228942700500,5.694700439453125,-0.0026817864298820495,-4.85377040323615,-0.46582047226466233
1759347228952757500,5.704757568359375,0.7656723106283694,-5.636092162305117,-0.22672917287722227
1759347228962815500,5.7148154296875,1.7918388472221791,-6.419347402831912,0.22824060035347937
1759347228972872700,5.724872802734375,2.9545769505798813,-7.1777236381679765,0.9544422666631639
1759347228982930700,5.7349306640625,3.981718688881397,-7.403461315789818,1.323085463310778
1759347228992988700,5.74498876953125,4.4912055035889145,-6.717894296076893,1.0565433354832232
1759347229003045600,5.755045654296875,4.6061154928386205,-5.509340928614139,0.432528370450437
1759347229013103600,5.765103515625,4.473573985308408,-4.1254561286866664,-0.18861863793060182
1759347229023161600,5.77516162109375,4.197588467961549,-2.7516899871915577,-0.6059640522964298
1759347229033218600,5.785218505859375,3.7435973305046555,-0.9578396540164947,-1.6971256966963408
1759347229043276500,5.795276611328125,3.517846793401241,-0.37573943851888175,-2.46671276961565
1759347229053333500,5.80533349609375,3.283814750164747,-0.004561024305224418,-2.8926562087178227
1759347229063391700,5.815391845703125,2.871833200919628,0.02254033311009407,-2.9635394247144458
1759347229073449700,5.82544970703125,2.4805109933435916,-0.4359475312441587,-2.872607107901573
1759347229083506700,5.835506591796875,1.8653467126339673,-1.266145140209794,-2.424729777149856
1759347229093564700,5.845564697265625,1.1928004294704646,-2.1503227611660956,-1.5684081313684581
1759347229103621600,5.85562158203125,0.796508689853549,-2.986078004258871,-1.1447729692086577
1759347229113679600,5.8656796875,0.46314884190261363,-3.657214932081103,-0.3073395637705922
1759347229123737600,5.875737548828125,-0.3761509419292211,-3.7839714264690874,0.4241564095549285
1759347229133794600,5.885794677734375,-1.4246495026446877,-3.1613819641947742,0.585438420009613
1759347229143852800,5.895852783203125,-2.4554396804511547,-2.358339488658309,0.988228508669883
1759347229153909800,5.90590966796875,-3.5784050147384403,-1.6017016214221715,1.4349237900301812
1759347229163967500,5.915967529296875,-3.317532310849428,-1.18681499838531,2.4461145104840396
1759347229174025500,5.926025390625,-2.57336317230314,-1.0454723447620868,3.1815251730352636
1759347229184082700,5.936082763671875,-3.0528359570190307,-0.6417898373067379,3.615080840706825
1759347229194140700,5.946140625,-3.6599519558295603,-0.6131780753284692,3.1336452314853664
1759347229204198700,5.95619873046875,-3.3605347094908353,-0.46233811004161834,2.4077783500880003
1759347229214255600,5.966255615234375,-2.729637437598407,-0.1293517715781927,1.7081240605726837
1759347229224313900,5.97631396484375,-2.8179630790442225,-0.15085691642165183,1.8450947827219961
1759347229234370800,5.986370849609375,-2.6243773202255367,-0.45736850493550296,0.04709120232500136
1759347229244428500,5.996428466796875,-1.3968474496141075,-1.3062562013238668,-1.508979060191661
1759347229254486500,6.006486572265625,-0.2996919716268778,-2.1041250736147163,-0.8583044901616871
1759347229264543500,6.01654345703125,-0.7991235485270619,-2.8359570008963346,0.6890654562879354
1759347229274601700,6.026601806640625,-1.6180954146012663,-2.9784605149924754,1.094354887483269
1759347229284658700,6.03665869140625,-1.9934780025064944,-3.0991859125226733,-0.01273987378142774
1759347229294716700,6.046716552734375,-2.2626690374076364,-2.8993413855701684,-0.15174560888968408
1759347229304774400,6.0567744140625,-3.515759757994115,-2.9533740045309065,-0.3376787340633571
1759347229314831600,6.06683154296875,-3.518710132232308,-1.9207289926379918,0.0443688646890223
1759347229324889600,6.0768896484375,-3.4684722293794152,-0.581046322530508,0.28149463615715503
1759347229334947600,6.086947509765625,-3.1909830294713375,0.7689771243274212,0.7100846442453563
1759347229345004500,6.097004638671875,-2.876866811172664,1.9682570520102978,1.0689891216889023
1759347229355062800,6.107062744140625,-3.500099539786577,2.5127836159169674,1.0926008834227918
1759347229365119700,6.11711962890625,-4.189765811511874,2.7617192137748003,1.486464007653296
1759347229375177700,6.127177734375,-3.9260955858588216,2.909140310528874,2.122186507745087
1759347229385235500,6.1372353515625,-3.1975054169774055,3.087151775857806,2.474742931336164
1759347229395292400,6.14729248046875,-2.7932816422522064,2.8671394901454446,2.4780361276626586
1759347229405350700,6.1573505859375,-3.1035937920928,3.0285727456390856,2.6611484232619405
1759347229415407600,6.16740771484375,-3.487201479768753,3.7416713308781384,2.921242251732945
1759347229425465600,6.177465576171875,-3.620026480415463,4.103115702062845,2.6688246569782494
1759347229435523800,6.18752392578125,-3.7081273731946944,4.473941065055132,2.5995354321748017
1759347229445580800,6.197580810546875,-3.387151205998659,4.305494715929031,2.3575932003356517
1759347229455638500,6.207638427734375,-3.0462656387180087,4.57920644312501,2.0946131489038464
1759347229465695700,6.21769580078125,-2.981130026462674,4.906548053699732,1.8810428789377212
1759347229475753500,6.22775341796875,-2.6462545132517814,4.984276021024584,1.6967133165031671
1759347229485811700,6.237811767578125,-2.2015923451542854,5.106691855859756,1.4350205284029245
1759347229495868700,6.24786865234375,-1.552259252861142,5.117217926049232,1.295259883274138
1759347229505926700,6.2579267578125,-1.387199039041996,4.839713236311078,1.0163020721182225
1759347229515984600,6.267984619140625,-1.2706418671071529,4.304537269073725,0.6445492190174759
1759347229526041900,6.278041748046875,-0.964568085488677,3.5185657553255556,0.46580432484745976
1759347229536099600,6.288099609375,-1.1070710150629282,3.0933056223124265,0.45502048050463195
1759347229546156500,6.298156494140625,-1.250266603076458,2.735221667471528,0.2813857689552009
1759347229556214500,6.308214599609375,-1.253423605802655,2.3415520199865103,-0.007861819416284561
1759347229566272800,6.318272705078125,-1.2092384271174668,2.161695219051838,-0.23811171376556156
1759347229576329700,6.328329833984375,-0.7052823585301637,1.9297692081838844,-0.48723231280148027
1759347229586387700,6.3383876953125,0.31843992671668525,1.7223878559857606,-0.7639943674787879
1759347229596444700,6.348444580078125,0.9670733463078737,1.462225930714607,-0.9401692650303244
1759347229606502700,6.358502685546875,1.0445552299171685,1.5222878929674624,-0.947048210889101
1759347229616560600,6.368560546875,1.44256378338933,1.2812526929706334,-1.2820198779508472
1759347229626617600,6.37861767578125,1.7657441826313733,1.1352969925940035,-1.760739213950932
1759347229636675600,6.388675537109375,2.2924656252563,0.8539332893401383,-2.203601639150083
1759347229646732500,6.398732666015625,2.577175716328621,0.40094986762106416,-2.1183749866329133
1759347229656790800,6.408790771484375,2.6020178966403007,0.07562661113142967,-1.0019012063220143
1759347229666848800,6.418848876953125,2.6123019747674463,-0.40475861225426196,0.42547172993719573
1759347229676905700,6.42890576171875,1.3912334091246128,-1.500984992697835,1.1788304293721914
1759347229686963500,6.43896337890625,-0.630797318649292,-2.3852497074156997,1.5759585467480122
1759347229697021700,6.449021728515625,-0.0876069717824459,-3.9287294414937493,1.3407079215019941
1759347229707078700,6.45907861328125,1.5225895062625407,-4.7427515762060874,0.9118884885720908
1759347229717136600,6.46913671875,1.0954033736228943,-4.6903597101897,0.6902529855720698
1759347229727193600,6.479193603515625,-0.16141279722750185,-3.9113399152755735,0.8638152164071797
1759347229737251600,6.48925146484375,0.10093202504068613,-2.4991338607490063,1.3583067065566778
1759347229747309600,6.4993095703125,0.0655167205274105,-1.5183172357708214,1.6257086660839617
1759347229757366800,6.50936669921875,-0.6593097119063138,-0.9608721535801887,1.829136458350718
1759347229767424500,6.519424560546875,-0.743657974153757,0.026478841602802276,1.9267752870649097
1759347229777481500,6.5294814453125,-0.6075161040440201,0.672274991941452,1.6528816274307667
1759347229787539200,6.539539306640625,-0.6494073265731334,0.9575748656004667,1.7750817736886442
1759347229797597400,6.549597412109375,-1.226562194623053,0.3392383845955133,1.7770938441634176
1759347229807654400,6.559654296875,-1.1742536229759455,0.009736381116509436,1.6883280577346682
1759347229817712400,6.56971240234375,-1.1986182489037513,-0.2474362992107868,1.6683026300549506
1759347229827770000,6.57977001953125,-1.132575458675623,-0.3240431535512209,1.8591300300762057
1759347229837827300,6.589827392578125,-1.2381056251615286,-0.6636433571964502,1.8876736952543258
1759347229847885300,6.59988525390625,-1.3011238068714737,-0.8579787653386592,2.0127339071184394
1759347229857942300,6.6099423828125,-1.2010422611802816,-0.9295517171651124,2.129564927558601
1759347229868000300,6.620000244140625,-1.0976076056689024,-1.3422680104255675,1.9892554163753986
1759347229878058500,6.63005859375,-1.0376081872582434,-1.5972411348819733,1.8624778791993855
1759347229888115500,6.640115478515625,-1.0023667780071497,-1.6165286036759614,1.8254320508748292
1759347229898173400,6.65017333984375,-1.0436131267614661,-1.5545201835304499,1.646665967786312
1759347229908230400,6.66023046875,-0.6845343156643211,-1.1649807677179573,1.790951542993635
1759347229918288100,6.6702880859375,-0.35416590461432934,-0.5430664282262325,2.168512790112197
1759347229928346400,6.680346435546875,-0.3854093302704394,0.07863865242898464,2.205225002568215
1759347229938403300,6.6904033203125,-0.7350707630723714,0.34698329963386054,1.5778116272687912
1759347229948461300,6.70046142578125,-0.8558696642301976,0.17889760051369666,0.878580604666844
1759347229958519600,6.71051953125,-0.45375615965723987,-0.20765841557383535,0.620259119630605
1759347229968576500,6.720576416015625,-0.08983341566026211,-0.5943950489252805,0.3484573542417958
1759347229978634200,6.73063427734375,-0.02359320316389203,-1.1732885773360728,-0.11633983938973397
1759347229988691500,6.74069140625,-0.3683411449611187,-2.0115455741167065,-1.1152117244858295
1759347229998749200,6.750749267578125,-0.35836335630416866,-2.016086724677682,-1.2062720515925436
1759347230008807400,6.760807373046875,-0.8188444403022527,-2.628541746428609,-2.199661815483123
1759347230018864400,6.770864501953125,-0.4842033203691244,-2.774839976632595,-2.3765701418757437
1759347230028922400,6.78092236328125,-0.3771592421889305,-2.5823475660085675,-2.5397797593921423
1759347230038979300,6.790979248046875,-0.6887286986142397,-1.9565724594354628,-2.8044325663417577
1759347230049037600,6.80103759765625,-1.2781290079921483,-1.2023071665495633,-3.208105136924982
1759347230059095300,6.81109521484375,-1.5024657327748834,-0.7632961560815572,-3.6018209616392847
1759347230069152300,6.82115234375,-1.865781596919894,-0.4615373150527477,-3.869736277516186
1759347230079210200,6.831210205078125,-1.8546955547600983,0.10190437720417976,-3.6040465287342665
1759347230089267200,6.84126708984375,-1.057682495580986,0.6638344958543777,-2.70579712780565
1759347230099325400,6.851325439453125,0.42666641961447893,1.0213976416915655,-1.750083526032418
1759347230109383400,6.861383544921875,0.5587497350484133,1.4864911879211664,-1.6065987458139657
1759347230119440400,6.8714404296875,-0.3464928857684135,1.539417306944728,-2.31583364136219
1759347230129498400,6.881498291015625,-1.1562386583358049,1.1852607546806335,-3.4768121877014635
1759347230139556400,6.891556396484375,-1.6929057409137487,1.167689442154765,-3.755887195496261
1759347230149613300,6.90161328125,-0.9533715686917305,1.5393547631025313,-2.9258073676913976
1759347230159671300,6.91167138671875,1.780105300939083,1.970842976850271,-1.116903257769346
1759347230169728300,6.921728271484375,3.8516052852809426,1.9885089819222688,0.9264045051805675
1759347230179786500,6.931786376953125,3.3451626605749127,1.134626545986533,2.663471313251555
1759347230189844500,6.941844482421875,2.5649662230968473,0.9911989027827978,1.6464362506836652
1759347230199901400,6.9519013671875,1.2662708124160766,1.3857020784825085,1.767084929715842
1759347230209959200,6.961959228515625,1.7504045746803283,1.3923784875065088,1.8527115413360296
1759347230220016000,6.97201611328125,2.3745079486489296,0.6834422826439142,0.24194182998035102
1759347230230074400,6.982074462890625,2.8423125074028968,0.23316519727408885,-0.8652768864575773
1759347230240132400,6.99213232421875,2.482822192895412,0.12527122426629067,-1.3217454468786716
1759347230250189300,7.002189208984375,1.346840140646696,0.3513420793652534,-1.303690296358615
1759347230260247300,7.012247314453125,0.6553215190529823,0.9563625672012567,-0.6962516414649784
1759347230270304500,7.022304443359375,0.5276058242440224,1.2565800240069627,-0.1328751964639872
1759347230280362200,7.0323623046875,0.5325988832909614,1.256502867117524,-0.12584686872977763
1759347230290420200,7.042420166015625,0.7162544919867068,0.11628303116858005,-0.03493511978089809
1759347230300477200,7.052477294921875,0.9958500165242701,-0.7287205172628164,-0.5985618497485294
1759347230310535400,7.062535400390625,0.7768564794003963,-1.2371791579663753,-1.1092167949199676
1759347230320593400,7.072593505859375,0.08036006939411162,-1.4039678030133247,-1.371402334973216
1759347230330650400,7.082650390625,-0.38646015449762344,-0.9342752385556697,-1.1409591100089251
1759347230340708400,7.092708251953125,-0.8275005519013852,-0.15735212365984916,-0.6876902224119752
1759347230350765300,7.102765380859375,-1.077556605156511,0.3970622125327587,-0.38360549571886654
1759347230360823300,7.1128232421875,-0.6267371565382928,0.592961801251769,-0.30809516791086644
1759347230370881300,7.12288134765625,-0.6254278275053948,0.5907920559972524,-0.3429497698014602
1759347230380938200,7.132938232421875,-0.11228767792209982,0.3101870621562004,-0.48572673054412
1759347230390996500,7.14299658203125,-0.4210988486152142,-0.12403846760094166,-0.4426496592313051
1759347230401053400,7.153053466796875,-0.7252852821171283,-0.26768589103519913,0.2349640633895993
1759347230411111400,7.163111328125,-0.6966717665731906,-0.4214426205515861,0.9367338837541639
1759347230421169400,7.17316943359375,-0.8635573691885918,-1.0185925211429596,1.376997086240351
1759347230431226400,7.183226318359375,-1.1470762777149677,-2.2271704385250803,1.677523316734284
1759347230441284400,7.193284423828125,-1.2047662501394747,-4.1003772170096635,1.702465304158628
1759347230451342300,7.20334228515625,-1.0350023886740207,-6.285561448198557,1.427308784981817
1759347230461399300,7.2133994140625,-0.5437350482027977,-8.156587375512718,0.9864851721338928
1759347230471457300,7.223457275390625,0.2582581374764442,-8.459595924341679,0.7313624100737274
1759347230481514500,7.233514404296875,1.0801344928205012,-7.938711517307162,-0.06322846345975995
1759347230491572500,7.243572509765625,1.7107716524720191,-7.482837050321698,-1.279966744813323
1759347230501630200,7.253630126953125,1.9361235456466674,-6.766959648019075,-2.160886386886984
1759347230511687200,7.263687255859375,2.0161434233009814,-5.596611800310015,-2.588622993016243
1759347230521745400,7.273745361328125,1.9041361697554586,-4.478525470235944,-2.890095126058161
1759347230531802400,7.28380224609375,1.7361564152278004,-3.618078268957138,-2.964001197007298
1759347230541860400,7.2938603515625,1.7395523412764071,-2.6460598674625158,-2.585939453020692
1759347230551918300,7.30391845703125,1.819445962202549,-1.6454355492085218,-2.102215878992528
1759347230561975300,7.313975341796875,1.8446423627793789,0.0712374362617731,-1.6412582635238766
1759347230572033300,7.324033203125,1.9099907410025596,0.709919955202937,-1.714121255160868
1759347230582090500,7.334090576171875,2.10902395157218,0.8893307659357785,-1.83545031767264
1759347230592148200,7.344148193359375,2.28707516438961,0.6878074921160936,-2.0579379074573514
1759347230602206200,7.354206298828125,2.3981997898817062,0.06787760443985462,-2.093065481070429
1759347230612263400,7.364263427734375,2.3174270480334758,-0.7137550033211708,-2.003701290357113
1759347230622321400,7.3743212890625,1.976553755712509,-1.2057733813554048,-1.8545517623752354
1759347230632379400,7.38437939453125,1.448600725466013,-1.423359316703677,-1.7699267290130256
1759347230642436400,7.394436279296875,0.8366694353282451,-1.5275643720656633,-1.7725233213774858
1759347230652494300,7.404494384765625,0.2117477307140827,-1.3491338045418262,-1.6503728594802318
1759347230662551300,7.41455126953125,-0.29750059906244275,-1.2014508419811725,-1.385629451637715
1759347230672609300,7.424609375,-0.631342166115716,-1.0362485893428326,-1.0525085270091892
1759347230682667300,7.434667236328125,-0.9164169988472014,-0.8790227224111556,-0.36276714422106743
1759347230692724200,7.44472412109375,-1.2366022348612546,-0.651370151078701,0.6099788408957422
1759347230702782500,7.454782470703125,-1.9503449632227419,-0.26194004085958,1.6267274877376854
1759347230712839400,7.46483935546875,-2.8907226103067396,0.2936328177183866,2.7228309724539517
1759347230722897400,7.4748974609375,-3.3083944801479577,0.7631073555111885,3.449021971239149
1759347230732955400,7.484955322265625,-3.753863580714166,1.2436954079926013,3.8065307565405964
1759347230743012400,7.495012451171875,-3.8064503847807645,1.3995517401367426,4.29646005334109
1759347230753070300,7.5050703125,-3.9205665933042764,1.3720306960046291,4.286434918411076
1759347230763127300,7.515127197265625,-3.3061998927131295,1.5232161137282847,4.659854681810736
1759347230773185300,7.525185302734375,-2.456259180140495,1.6170687019020318,4.562665350429714
1759347230783243500,7.535243408203125,-2.297311311721802,1.7661276289910077,4.023467288069427
1759347230793300500,7.545300537109375,-2.977401361328363,2.0111288100093603,3.198915576036274
1759347230803358200,7.555358154296875,-4.598613154384494,2.7488813595116137,2.479074238538742
1759347230813415200,7.565415283203125,-5.331422986787557,3.051789370575547,2.0243520103283226
1759347230823473400,7.575473388671875,-4.1017569809302685,2.8550550845980642,2.0263313475772735
1759347230833531400,7.585531494140625,-3.372989701916277,2.654897253912687,1.5756474349722265
1759347230843588400,7.59558837890625,-2.9262700167670843,2.2161218057662246,0.4697304122500121
1759347230853646300,7.605646240234375,-1.0389335906431079,1.5270909093350171,-0.8044124487154185
1759347230863703300,7.615703369140625,0.30981004553735253,0.8708025910764932,-2.3929195113912223
1759347230873761500,7.625761474609375,0.4909352589726448,0.22896014679968354,-3.668545596651733
1759347230883819300,7.6358193359375,0.22288433401733634,0.39409284133315087,-3.7489705479755995
1759347230893876200,7.645876220703125,-1.0128796964541078,1.4229682715594767,-2.2583426986411212
1759347230903934200,7.655934326171875,-2.311764199966192,1.9843875180780886,-0.8836579079311341
1759347230913992400,7.665992431640625,-2.7471076278373596,1.9325597156852483,0.03834529355056584
1759347230924049400,7.67604931640625,-2.5443130189076064,1.927640379461646,0.6632782502111048
1759347230934107400,7.686107421875,-2.324742924004793,2.0458914958328007,0.903618672876805
1759347230944164400,7.696164306640625,-2.93354234585762,2.2450071239888665,1.0766696662541477
1759347230954222300,7.706222412109375,-2.8113310936838385,2.48277075496912,1.5261737944900988
1759347230964280300,7.7162802734375,-2.6658313203811645,2.7033798375308513,1.7625754894673824
1759347230974337300,7.726337158203125,-2.799589802485704,2.8777158292174336,1.7683453050404787
1759347230984395300,7.736395263671875,-2.8043536558866498,3.082745065331459,1.8112068339064715
1759347230994452200,7.7464521484375,-2.656656372539699,3.257959008896351,1.8165769826374947
1759347231004510500,7.756510498046875,-2.511646428580582,3.3499902268618342,1.5554190320663153
1759347231014568400,7.766568359375,-2.4215005859702825,3.079909549644589,1.2616872840180993
1759347231024625400,7.77662548828125,-2.3054963717430828,2.694480491760373,0.8887756893362849
1759347231034683100,7.78668310546875,-2.1435715333402157,2.0779811630547047,0.5452290861528366
1759347231044740400,7.796740234375,-2.0953169132590292,2.0843635575681922,0.48700610283017154
1759347231054798300,7.80679833984375,-2.0780705949038265,0.5196387908875942,0.10564078725352882
1759347231064856300,7.816856201171875,-2.086225844308734,0.006588146218657494,0.17273527849167583
1759347231074913300,7.826913330078125,-2.0462598907537757,0.02529869190752506,0.6068884736649691
1759347231084971500,7.836971435546875,-1.8146192726984618,0.056875148910284036,0.9200330704525113
1759347231095028500,7.847028564453125,-1.2940516765281558,0.1550531990677118,1.2661601916484535
1759347231105086200,7.857086181640625,-0.5023819511383771,0.21949673740565775,1.515234613455087
1759347231115144200,7.867144287109375,0.5648270091354847,0.17797464044988154,1.5654333533413707
1759347231125201200,7.877201171875,1.8063187696039675,-0.04654606259763241,1.4858350620999932
1759347231135259400,7.88725927734375,1.9209069795534013,-0.026324527823925015,1.4829717816233634
1759347231145316400,7.89731640625,3.1295711139142512,-0.3482943822324276,1.1667074453800916
1759347231155374300,7.907374267578125,4.072562158367037,-0.6216857914328575,0.6886788681231438
1759347231165432600,7.9174326171875,4.50898724399507,-0.7739847233563661,0.1824406799480319
1759347231175489500,7.927489501953125,4.214119916045665,-0.8253425701498985,-0.11841522089168428
1759347231185547300,7.93754736328125,3.33899478559494,-0.7308855863422155,-0.17161460389867425
1759347231195604200,7.947604248046875,2.2666022852033376,-0.19983809721171855,0.19471432445719836
1759347231205662200,7.957662109375,1.2266308759450912,0.3334983796387911,0.7481653685756027
1759347231215720400,7.967720458984375,0.34206513245403763,0.6231985340833663,1.287471713615954
1759347231225777400,7.97777734375,-0.35408889385536313,0.4694073177754879,1.5757533795647323
1759347231235835400,7.98783544921875,-1.0623973222084342,-0.3166115422457456,1.745626985014975
1759347231245893000,7.99789306640625,-1.5949382647670804,-1.2625783876389265,1.6868962713658808
1759347231255950300,8.007950439453126,-1.6273400666780768,-1.8120505912542342,1.4513503164350985
1759347231266008300,8.01800830078125,-1.1438280895739794,-1.9208195935308932,1.2319206529162823
1759347231276065300,8.028065185546875,-0.4224241058696061,-2.1066694974005222,1.3019215331204235
1759347231286123300,8.038123291015625,0.5848894078247249,-2.1959879492759704,1.6042162345916031
1759347231296181500,8.048181396484376,1.9024504086256027,-2.181669501066208,1.6100547314867377
1759347231306238500,8.058238525390625,2.6970979807823894,-1.9668769958287475,1.0988388279642909
1759347231316296400,8.06829638671875,2.4917788218110797,-1.2360545378506183,0.2512530810199678
1759347231326353400,8.078353515625,0.5601250419896096,0.7694429882735013,-1.0261140026889741
1759347231336411100,8.0884111328125,-0.47449017399772997,1.3100450722128152,-1.653146854238212
1759347231346469400,8.098469482421875,-1.5095090754151343,1.329157768961787,-2.1510532673977316
1759347231356526300,8.1085263671875,-2.3224200340151784,1.0066308651924132,-2.4854493265286086
1759347231366584300,8.118584228515624,-2.7561592415601015,0.7745698297679424,-2.4904379285961387
1759347231376641300,8.128641357421875,-2.757756155362725,0.771526808810234,-2.51176157939285
1759347231386699500,8.138699462890624,-2.7477631691366433,0.37900750040411946,-1.9019089952252803
1759347231396757200,8.14875732421875,-2.4641572399139404,-0.12845628404319284,-1.6919301738798618
1759347231406814500,8.158814453125,-2.1261881446018815,-0.6210585994452238,-1.4293683478601276
1759347231416872200,8.1688720703125,-1.6759715572476386,-0.7222726562976837,-0.9801442786745727
1759347231426929200,8.17892919921875,-1.0595142410527914,-0.6546703616678714,-0.5031922446079552
1759347231436987400,8.1889873046875,-0.1782943739235401,-0.6184469556421041,-0.1275958678215742
1759347231447045400,8.19904541015625,1.082540311853215,-0.5575011962920426,0.2668302971191704
1759347231457102300,8.209102294921875,2.3023070741824805,-0.4635235204339027,0.6573499561406672
1759347231467160300,8.219160400390624,2.7051544459879397,-0.2941261541932821,1.0171962444789706
1759347231477217500,8.229217529296875,2.6659651758939025,-0.09584814590513706,1.3559291637703776
1759347231487275300,8.239275146484376,2.1573481297582386,0.11910802546143531,1.6122304680906234
1759347231497333200,8.249333251953125,1.4310931258261204,0.3110819651693105,1.7969765023715794
1759347231507390200,8.25939013671875,0.5538350749999285,0.5050953017503023,1.8098370068579912
1759347231517448400,8.269448486328125,0.5332727274319157,0.5023696761786938,1.7954069149672984
1759347231527505400,8.27950537109375,-0.2310545252630487,0.6108955173492431,1.3773317250221966
1759347231537563400,8.2895634765625,-0.7754834374815225,0.5444657736301421,0.8779062856018542
1759347231547621400,8.299621337890626,-1.1388181524574756,0.42676118522584433,0.42332317360118027
1759347231557678300,8.30967822265625,-1.3901087890088557,0.24705285285115242,0.08983370792120694
1759347231567736300,8.319736328125,-1.619022758579254,0.12889292189478874,-0.08683014219105244
1759347231577793300,8.329793212890625,-1.6855039402246474,0.13806640843152998,-0.1654980207145214
1759347231587851300,8.339851318359376,-1.5595195992529391,0.26605565948486326,-0.1377598267003894
1759347231597909500,8.349909423828125,-1.3320090667396782,0.1653583199828863,-0.09039119567349553
1759347231607966500,8.359966552734376,-1.028608888244629,-0.051772272813320155,0.06958645418435334
1759347231618024400,8.3700244140625,-0.5683955152720213,0.017194295907020568,0.13941519269198177
1759347231628081400,8.380081298828125,-0.0975759926110506,-0.1776326951444149,-0.025160306350141763
1759347231638139100,8.39013916015625,0.316612711289525,-0.480944026312232,-0.3625573008626699
1759347231648197400,8.400197265625,0.5702490341842175,-0.41195583028197286,-0.5476287677057087
1759347231658254300,8.41025439453125,0.705026337942481,-0.21146774472892282,-0.5803603860929608
1759347231668312300,8.420312255859375,0.6913058556258678,-0.1282405954658985,-0.5845894019648432
1759347231678369300,8.430369384765624,0.5048866274356841,-0.11068448050916194,-0.7212960663504898
1759347231688427500,8.440427490234375,0.14736905603958292,-0.2575561266869306,-0.8773319928452372
1759347231698485200,8.4504853515625,-0.09996493357419967,-0.6601876637846231,-0.9227014128789305
1759347231708542500,8.46054248046875,-0.03762509180052438,-0.9468366139650344,-0.5527116239279508
1759347231718600200,8.47060009765625,0.16541151147484778,-0.9607920740813016,-0.3514132449053228
1759347231728657200,8.4806572265625,0.2833995929956436,-0.6547323209881782,-0.2020575268268585
1759347231738715400,8.49071533203125,0.4775578910052776,-0.33572891516983505,0.0029565117180347443
1759347231748773400,8.5007734375,0.5204565370112657,0.06511749207675456,0.11544862617105245
1759347231758830300,8.510830322265624,0.39305940663218497,0.36541853551268577,0.15081643828079103
1759347231768888300,8.520888427734375,0.19282325001358985,0.37802316554188725,0.26972148851603267
1759347231778945500,8.530945556640624,0.1728741024404764,0.37413317236602306,0.25208792440891264
1759347231789003000,8.5410029296875,-0.07355388737744652,0.27237317206859585,0.40379911957234144
1759347231799060700,8.551060791015624,-0.1900456019937992,0.396142175078392,0.2658541455633938
1759347231809117700,8.56111767578125,-0.3207049490392208,0.5037129074811935,0.11203019602969289
1759347231819176000,8.571176025390624,-0.547198413464427,0.48505379971861834,0.09665478611290454
1759347231829233000,8.58123291015625,-0.7710188592880964,0.4337438837200403,0.15757497263029216
1759347231839291000,8.591290771484376,-0.8694979382187128,0.20785130779743194,0.2795901177100837
1759347231849348900,8.601348876953125,-0.8282704402953386,-0.04454290608167648,0.3663233753979206
1759347231859405800,8.61140576171875,-0.7379121239781379,-0.1797363894253969,0.21439298452585934
1759347231869463800,8.6214638671875,-0.5783627825349569,-0.21368658982217312,-0.0752345430739224
1759347231879520800,8.631520751953126,-0.3698994803190231,-0.3008335428774357,-0.25129750468358397
1759347231889578800,8.641578857421875,-0.15627779069291428,-0.4381833274722099,-0.20788053389191627
1759347231899636700,8.65163671875,-0.13588146560788153,-0.4480833747178316,-0.24857363267764448
1759347231909694000,8.66169384765625,0.10802724399864673,-0.3270926042497158,-0.32473815007805823
1759347231919752000,8.671751953125,0.2625952898979187,-0.18782149620354174,-0.36673049489408727
1759347231929809000,8.681808837890625,0.3327309023976326,-0.16488719533979893,-0.2818698992103338
1759347231939867000,8.691866943359376,0.3367506594330072,-0.1556651934862137,-0.20602613819688556
1759347231949923800,8.701923828125,0.22413725668787954,-0.1751309414565563,-0.2474281159043312
1759347231959981800,8.71198193359375,0.07367371436483226,-0.044208559560775754,-0.3591393091127276
1759347231970039800,8.722039794921875,-0.01697394028776325,0.07201075872182845,-0.5253904862821102
1759347231980096800,8.7320966796875,-0.11060441014342941,0.15168693750500678,-0.5256748561814427
1759347231990154800,8.74215478515625,-0.15964871016442775,0.12264438289403914,-0.2314008179500699
1759347232000212000,8.7522119140625,-0.15769521974278614,0.007325812843441963,0.15604045653939247
1759347232010270000,8.76227001953125,-0.11706744127823039,-0.08492869248390197,0.3904161986470222
1759347232020327700,8.77232763671875,-0.04849953475296497,-0.07869125939905643,0.4657102168232202
1759347232030385000,8.782385009765624,-0.006759411132335662,-0.16035948878228665,0.48920595096200703
1759347232040443000,8.79244287109375,0.06307458807229996,-0.27731238203644754,0.6795271550267934
1759347232050499800,8.802499755859374,0.19556874932944773,-0.5681897635668516,1.051990056093037
1759347232060557800,8.812557861328125,0.06776771432459354,-0.2729091786414385,1.156005141840875
1759347232070615800,8.82261572265625,-0.0746925451517105,0.2557061149060726,0.8969614069446921
1759347232080672800,8.8326728515625,-0.08377835340499877,0.25008009171783924,0.7652925905957818
1759347232090731000,8.84273095703125,-0.1588403163909912,0.12341419822275637,0.16178104601800442
1759347232100788000,8.8527880859375,-0.26250878065824507,0.024936872857809066,-0.18316227222085
1759347232110845700,8.862845703125,-0.29369886869192124,0.009734627550840378,-0.22647096033245323
1759347232120903700,8.872903564453125,-0.2326794595837593,-0.19052549446523187,-0.6347022171333432
1759347232130961000,8.8829609375,-0.3086842929104343,-0.2965606878638267,-0.7509963542178273
1759347232141019000,8.893018798828125,-0.3883511558759957,-0.22140169424414632,-0.8335060028612613
1759347232151075800,8.903075927734376,-0.4798877221923321,-0.1887596538364887,-0.8643474235877394
1759347232161133800,8.9131337890625,-0.5314788662850857,-0.21389409509301185,-0.6361138374969363
1759347232171191800,8.92319189453125,-0.39466278670821336,-0.06763210524618625,-0.6173199974387884
1759347232181249000,8.9332490234375,-0.13450491655766963,-0.1504530117958784,-0.5243322094008326
1759347232191306800,8.943306640625,-0.0663146659720689,-0.22634265777766704,-0.385019308039546
1759347232201363700,8.95336376953125,-0.13767010259032247,-0.03510521565079689,-0.623686025339365
1759347232211421700,8.963421630859376,-0.4315244541049003,0.08683774097561836,-0.8978490034341812
1759347232221479000,8.97347900390625,-0.7587970180314034,0.054010407128930085,-1.009921431170404
1759347232231537000,8.983536865234376,-0.9400157549690454,0.17161796489953993,-1.1086816651299596
1759347232241595000,8.993594970703125,-0.7559019541770219,0.21001696139872073,-1.0321385236755012
1759347232251651800,9.00365185546875,-0.5776543420046567,0.21622809099853038,-0.8888371371999383
1759347232261709800,9.013709716796875,-0.47738607810232786,0.2216255661278963,-0.674747811795771
1759347232271766800,9.023766845703125,-0.39131402426958084,0.20995383303463458,-0.43160248777717347
1759347232281824800,9.03382470703125,-0.3935018531700596,0.20807693324685095,-0.4364706783354282
1759347232291882800,9.0438828125,-0.24064532389640805,0.1008306104928255,-0.17098960386812687
1759347232301939700,9.053939697265625,-0.0731073217868805,-0.053124856466054915,0.07411474526375532
1759347232311998000,9.063998046875,0.0053081163454800845,-0.1405237384557724,0.25759675095826384
1759347232322055000,9.074054931640624,-0.02296531705651432,-0.0003074585139751434,0.3298836962729692
1759347232332113000,9.08411279296875,-0.11092479207105933,0.05664835441708564,0.5315817421376705
1759347232342171000,9.0941708984375,-0.28934304810259487,0.1666740787565708,0.7079591765239834
1759347232352227800,9.104227783203125,-0.4070423392772674,0.2512427057564258,0.49701720923483367
1759347232362285800,9.114285888671875,-0.3786445853758603,0.2736480143100023,0.24895664064586162
1759347232372342800,9.1243427734375,-0.24827969123236834,0.22585516652166843,0.1131266129642725
1759347232382400800,9.13440087890625,-0.18183482300937176,0.08975333616137504,0.032416707219183445
1759347232392459000,9.144458984375,-0.11182656321637331,-0.04231003246307373,-0.0767474318549037
1759347232402516000,9.154515869140624,0.10859357264451681,-0.05932663371562957,-0.2681236979305744
1759347232412573700,9.16457373046875,0.2524012281417847,-0.1235439620822668,-0.3417299091503024
1759347232422631000,9.174630859375,0.38778292753398413,-0.21368775886595248,-0.39637802966088054
1759347232432689000,9.18468896484375,0.45265481081921605,-0.28988603240549565,-0.3842436474919319
1759347232442745900,9.194745849609374,0.49849601308312264,-0.2888853309303522,-0.3242749164804816
1759347232452803800,9.204803955078125,0.407592885832116,-0.26401275548040865,-0.2191708664521575
1759347232462861800,9.21486181640625,-0.11500826199240982,-0.2747194429337978,-0.15940174966603515
1759347232472918800,9.224918701171875,-0.2857756744772196,-0.22801439038217067,-0.19628098925203083
1759347232482977000,9.23497705078125,-0.2806353889793157,-0.16536007354855536,-0.17223785036355255
1759347232493034000,9.245033935546875,-0.11938516190238296,-0.08175824575424194,-0.12101122873425484
1759347232503091700,9.255091796875,0.09320084626674652,-0.010413257464766502,0.005092354702949524
1759347232513149700,9.265149658203125,0.2013824040442705,0.05211597168445587,0.12263853767514228
1759347232523207000,9.27520703125,0.20734452731907366,0.09290449366867541,0.19115590132325885
1759347232533265000,9.285264892578125,0.18022673022560773,0.10867898590564727,0.2242787109851837
1759347232543321900,9.29532177734375,0.14150916929654775,0.14010872791409493,0.2094423763811588
1759347232553379800,9.3053798828125,0.09911905733458697,0.1349894852042198,0.17818009989410638
1759347232563437800,9.315437744140626,0.025358897662162778,0.1554027431577444,0.13184855682998894
1759347232573494800,9.325494873046875,-0.055828854727745056,0.14238544067442416,0.08431056058555841
1759347232583552800,9.335552734375,-0.13418693664968012,0.10644961941838264,0.0008954875349998473
1759347232593609700,9.345609619140625,-0.20233049854934215,0.10509235959053038,-0.09332505716830491
1759347232603667700,9.355667724609376,-0.2508440618276596,0.06509235763549805,-0.19997107594162225
1759347232613725000,9.365724853515625,-0.24637013128399848,0.022567221117019653,-0.23218144693374632
1759347232623783000,9.375782958984376,-0.2449790422517806,0.021592823126912117,-0.23510230281651018
1759347232633841000,9.3858408203125,-0.14372633388936518,-0.1741682339042425,-0.14238836328387258
1759347232643897900,9.39589794921875,-0.07752338466346263,-0.2666208921521902,-0.04774111760109663
1759347232653955800,9.405955810546875,-0.032950667965412135,-0.2823977224767208,-0.0007692308068275451
1759347232664012800,9.4160126953125,-0.04025536495558917,-0.28258243139386174,0.00021919570863246916
1759347232674070800,9.42607080078125,-0.07474339855611324,-0.1682908663034439,-0.049744858638942235
1759347232684128800,9.436128662109375,-0.13561901527941225,-0.020336101064085958,-0.11737784066796302
1759347232694185700,9.446185791015624,-0.16458792013227938,0.03745148651599884,-0.11805442475527524
1759347232704244000,9.456243896484375,-0.15409801723472774,-0.054905894663929936,-0.10616817212849855
1759347232714301000,9.466301025390624,-0.09793255096375941,-0.10019289711117745,-0.1009986605361104
1759347232724359000,9.47635888671875,-0.0003238981921225786,-0.06368599796891213,-0.05412409663647413
1759347232734416000,9.486415771484374,0.03820486216656863,0.015126841983199118,0.007492693842947483
1759347232744473900,9.496473876953125,0.015257701821252703,0.09310615372061729,0.05629588771760463
1759347232754531800,9.50653173828125,-0.03363163596689701,0.10582535004019737,0.016345277862250804
1759347232764588800,9.5165888671875,-0.11097915260680019,0.08142799088656902,-0.0706231037557125
1759347232774646800,9.526646728515624,-0.17674539091587066,0.06652852791845798,-0.15000965194255111
1759347232784703700,9.536703857421875,-0.17787877885997294,0.018173370072245596,-0.18593290597796439
1759347232794762200,9.54676220703125,-0.10039755283780395,-0.05322247162163257,-0.18558628449738024
1759347232804820200,9.5568203125,0.006047390405461192,-0.09028291299343108,-0.11238193207681178
1759347232814877200,9.566877197265624,0.06459668307304382,-0.12042203066945076,-0.07428162626326083
1759347232824935200,9.57693505859375,0.09298165055811404,-0.12028817515671253,-0.10483692352473735
1759347232834992000,9.5869921875,0.061743120272830125,-0.12511983309686184,-0.18146335934847593
1759347232845050400,9.59705029296875,0.2637222481012344,-0.11316752949655055,-0.28925679459124803
1759347232855107300,9.607107421875,0.3168360717166215,-0.14294775073230265,-0.24768559779673813
1759347232865165300,9.617165283203125,0.12508593082726002,-0.07488602189719676,-0.27057664404064413
1759347232875223000,9.62722314453125,0.08987367460541426,-0.0763134243518114,-0.26633769129663704
1759347232885280300,9.6372802734375,-0.3404775710016489,-0.02080839475095272,-0.07933744834810495
1759347232895338200,9.647338134765626,-0.20477796476669607,-0.1062637414574623,0.13675503357201813
1759347232905395200,9.657395263671875,0.017570728003978728,-0.17248773347139357,0.3014645342573523
1759347232915453200,9.667453125,0.14071838424503802,-0.10337561880052089,0.33883360318690536
1759347232925511200,9.67751123046875,0.23948972412049768,-0.008553893333673476,0.29577070652991533
1759347232935568400,9.687568359375,0.37152730071656404,-0.017047580912709234,0.2185810838654637
1759347232945626400,9.69762646484375,0.48945934120118617,-0.05481354020535945,0.11676789207607507
