time,seconds_elapsed,z,y,x
1759441134725269800,0.079269775390625,0.016685009002685547,0.008609235286712646,-0.12398052215576172
1759441134735269600,0.08926953125,0.03902173042297363,-0.013326704502105713,-0.13092708587646484
1759441134765269800,0.119269775390625,0.05332469940185547,-0.02398306131362915,-0.1278219223022461
1759441134775269600,0.12926953125,0.058808088302612305,-0.031541287899017334,-0.13240623474121094
1759441134785269800,0.139269775390625,0.04230642318725586,-0.019395530223846436,-0.12750816345214844
1759441134795269600,0.14926953125,0.006399631500244141,-0.026499152183532715,-0.13228225708007812
1759441134805269800,0.159269775390625,0.008902549743652344,-0.017039895057678223,-0.13944435119628906
1759441134815269600,0.16926953125,-0.005484580993652344,0.016621649265289307,-0.12506771087646484
1759441134825269800,0.179269775390625,0.02188873291015625,0.021154344081878662,-0.11276531219482422
1759441134835269600,0.18926953125,0.03167581558227539,0.011762440204620361,-0.1318206787109375
1759441134845269800,0.199269775390625,0.029656171798706055,0.011738359928131104,-0.1245107650756836
1759441134855269600,0.20926953125,0.02523493766784668,-0.012085795402526855,-0.1530933380126953
1759441134865269800,0.219269775390625,0.028095245361328125,-0.0047566890716552734,-0.15531349182128906
1759441134875269600,0.22926953125,0.02402019500732422,-0.012057602405548096,-0.1718301773071289
1759441134885269800,0.239269775390625,0.007368803024291992,-0.0046599507331848145,-0.17177677154541016
1759441134895269600,0.24926953125,0.0077326297760009766,-0.004636287689208984,-0.15967178344726562
1759441134905269500,0.25926953125,0.0032045841217041016,0.0003858208656311035,-0.12843990325927734
1759441134915269600,0.26926953125,-0.008541584014892578,-0.030480563640594482,-0.14029312133789062
1759441134925269800,0.279269775390625,0.0010166168212890625,-0.027523696422576904,-0.1258831024169922
1759441134935269600,0.28926953125,0.008408546447753906,-0.055885910987854004,-0.11379241943359375
1759441134945269800,0.299269775390625,0.018103361129760742,-0.031665802001953125,-0.1185140609741211
1759441134955269600,0.30926953125,0.023009538650512695,-0.021877586841583252,-0.12085914611816406
1759441134965269800,0.319269775390625,0.030289649963378906,-0.02655315399169922,-0.1423473358154297
1759441134975269600,0.32926953125,0.030586719512939453,-0.009742200374603271,-0.1709756851196289
1759441134985269800,0.339269775390625,0.03301191329956055,-0.007183074951171875,-0.17094802856445312
1759441134995362000,0.349362060546875,0.014094114303588867,-0.009476780891418457,-0.1660623550415039
1759441135005362000,0.35936181640625,0.024247407913208008,-0.019152462482452393,-0.16586971282958984
1759441135015362000,0.369362060546875,0.01998114585876465,-0.02184438705444336,-0.14417743682861328
1759441135025362000,0.37936181640625,0.048909664154052734,-0.04107105731964111,-0.1345367431640625
1759441135035362000,0.389362060546875,0.04674553871154785,-0.02686142921447754,-0.13686275482177734
1759441135045362000,0.39936181640625,0.04931068420410156,-0.036646246910095215,-0.12245464324951172
1759441135055362000,0.409362060546875,0.0300750732421875,-0.0392453670501709,-0.08899211883544922
1759441135065362000,0.41936181640625,0.03689002990722656,-0.044281959533691406,-0.09153366088867188
1759441135075362000,0.429362060546875,0.04593610763549805,-0.03700375556945801,-0.10608196258544922
1759441135085362000,0.43936181640625,0.028369903564453125,-0.014999568462371826,-0.1063079833984375
1759441135095362000,0.449362060546875,0.033120155334472656,0.00673598051071167,-0.11109161376953125
1759441135105362000,0.45936181640625,0.04947257041931152,0.03812694549560547,-0.11600112915039062
1759441135115362000,0.469362060546875,0.05876588821411133,0.035817861557006836,-0.08496570587158203
1759441135125362000,0.47936181640625,0.07264423370361328,0.01938188076019287,-0.11143970489501953
1759441135135362000,0.489362060546875,0.06265878677368164,0.0006675124168395996,-0.10913848876953125
1759441135145362000,0.49936181640625,0.06733417510986328,0.010478317737579346,-0.14267635345458984
1759441135155362000,0.509362060546875,0.06708693504333496,0.003424227237701416,-0.15950393676757812
1759441135165362000,0.51936181640625,0.05655360221862793,0.016203105449676514,-0.14061260223388672
1759441135175362000,0.529362060546875,0.03167724609375,0.06498724222183228,-0.1360607147216797
1759441135185362000,0.53936181640625,0.016293764114379883,0.03492480516433716,-0.1099700927734375
1759441135195362000,0.549362060546875,-0.018198013305664062,0.04561150074005127,-0.1149911880493164
1759441135205362000,0.55936181640625,-0.01929950714111328,0.005867183208465576,-0.13922786712646484
1759441135215362000,0.569362060546875,-0.017356157302856445,-0.02706509828567505,-0.16325759887695312
1759441135225362000,0.57936181640625,-0.015137910842895508,-0.04327094554901123,-0.18242168426513672
1759441135235362000,0.589362060546875,0.012051820755004883,-0.07669997215270996,-0.19648075103759766
1759441135245362000,0.59936181640625,0.01818990707397461,-0.08623766899108887,-0.21036624908447266
1759441135255362000,0.609362060546875,0.03452444076538086,-0.08398771286010742,-0.19052886962890625
1759441135265362000,0.61936181640625,0.03602242469787598,-0.07652699947357178,-0.21152687072753906
1759441135275362000,0.629362060546875,0.039887428283691406,-0.05698317289352417,-0.15829753875732422
1759441135285362000,0.63936181640625,0.04081463813781738,-0.01792275905609131,-0.10761833190917969
1759441135295362000,0.649362060546875,0.003085613250732422,-0.031486332416534424,-0.09535503387451172
1759441135305362000,0.65936181640625,-0.0017325878143310547,-0.025862574577331543,-0.07373046875
1759441135315362000,0.669362060546875,0.014950037002563477,-0.027521610260009766,-0.1048116683959961
1759441135325362000,0.67936181640625,0.024996042251586914,-0.029412686824798584,-0.11417388916015625
1759441135335362000,0.689362060546875,0.05173015594482422,-0.031299591064453125,-0.1475067138671875
1759441135345362000,0.69936181640625,0.0595552921295166,-0.02857053279876709,-0.1400613784790039
1759441135355362000,0.709362060546875,0.08373093605041504,-0.023507535457611084,-0.14713001251220703
1759441135365362000,0.71936181640625,0.0668952465057373,0.010161101818084717,-0.1303844451904297
1759441135375362000,0.729362060546875,0.042664527893066406,-0.006818950176239014,-0.12093067169189453
1759441135385362000,0.73936181640625,0.029631376266479492,-0.035894691944122314,-0.13092422485351562
1759441135395362000,0.749362060546875,0.009640693664550781,-0.012328684329986572,-0.1360340118408203
1759441135405362000,0.75936181640625,0.03017711639404297,-0.029204964637756348,-0.13161849975585938
1759441135415362000,0.769362060546875,0.018006324768066406,-0.0011180639266967773,-0.12216663360595703
1759441135425362000,0.77936181640625,0.03217339515686035,-0.032795071601867676,-0.13666629791259766
1759441135435362000,0.789362060546875,0.027067184448242188,0.005177974700927734,-0.12005043029785156
1759441135445362000,0.79936181640625,0.043961286544799805,0.004683554172515869,-0.1296377182006836
1759441135455362000,0.809362060546875,0.05583047866821289,0.018802344799041748,-0.13208961486816406
1759441135465362000,0.81936181640625,0.03407573699951172,-0.005309879779815674,-0.09865379333496094
1759441135475362000,0.829362060546875,0.060146331787109375,-0.007689297199249268,-0.0867767333984375
1759441135485362000,0.83936181640625,0.035637855529785156,0.00464785099029541,-0.09891510009765625
1759441135495362000,0.849362060546875,0.0286102294921875,-0.016817450523376465,-0.10124683380126953
1759441135505362000,0.85936181640625,0.03351616859436035,-0.0046122074127197266,-0.13230228424072266
1759441135515362000,0.869362060546875,0.041176557540893555,-0.018795013427734375,-0.141693115234375
1759441135525362000,0.87936181640625,0.048932790756225586,0.00033211708068847656,-0.16064834594726562
1759441135535362000,0.889362060546875,0.05652904510498047,0.002729177474975586,-0.16050338745117188
1759441135545362000,0.89936181640625,0.05428290367126465,0.007455348968505859,-0.14370250701904297
1759441135555362000,0.909362060546875,0.049295902252197266,0.028939664363861084,-0.13179779052734375
1759441135565362000,0.91936181640625,0.02751016616821289,0.024053454399108887,-0.0792236328125
1759441135575362000,0.929362060546875,0.04427695274353027,0.009429335594177246,-0.07206249237060547
1759441135585362000,0.93936181640625,0.05423378944396973,-0.009945869445800781,-0.09589195251464844
1759441135595362000,0.949362060546875,0.06442594528198242,-0.017312169075012207,-0.10527420043945312
1759441135605362000,0.95936181640625,0.07210922241210938,-0.0316847562789917,-0.12425518035888672
1759441135615362000,0.969362060546875,0.07256007194519043,-0.029288291931152344,-0.1408519744873047
1759441135635362000,0.989362060546875,0.04214978218078613,-0.007449805736541748,-0.16212940216064453
1759441135645362000,0.99936181640625,0.035153865814208984,-0.014441072940826416,-0.1500720977783203
1759441135655362000,1.009362060546875,0.01614665985107422,-0.02848505973815918,-0.14997482299804688
1759441135665362000,1.01936181640625,0.023390769958496094,0.000535428524017334,-0.13556861877441406
1759441135675362000,1.029362060546875,0.023296594619750977,-0.008811116218566895,-0.1355743408203125
1759441135685362000,1.03936181640625,0.0016927719116210938,-0.02066701650619507,-0.12361335754394531
1759441135695362000,1.049362060546875,0.03508257865905762,-0.02523261308670044,-0.11167335510253906
1759441135705362000,1.05936181640625,0.02055644989013672,-0.03241097927093506,-0.12128734588623047
1759441135715362000,1.069362060546875,0.04923224449157715,-0.03230130672454834,-0.12608814239501953
1759441135725362000,1.07936181640625,0.0397641658782959,-0.029742002487182617,-0.16195106506347656
1759441135735362000,1.089362060546875,0.02085089683532715,-0.0056722164154052734,-0.18579578399658203
1759441135745362000,1.09936181640625,0.013853788375854492,0.0016922950744628906,-0.1593761444091797
1759441135755362000,1.109362060546875,0.011638402938842773,0.006604254245758057,-0.1401500701904297
1759441135765362000,1.11936181640625,0.02872490882873535,0.013722896575927734,-0.13764476776123047
1759441135775362000,1.129362060546875,0.019604206085205078,0.008912324905395508,-0.12551212310791016
1759441135785362000,1.13936181640625,0.012621641159057617,0.01368647813796997,-0.10150909423828125
1759441135795362000,1.149362060546875,0.0032088756561279297,0.00898069143295288,-0.06792259216308594
1759441135805362000,1.15936181640625,0.02739405632019043,0.01873558759689331,-0.0893707275390625
1759441135815362000,1.169362060546875,0.03948330879211426,0.00463491678237915,-0.115631103515625
1759441135825362000,1.17936181640625,0.05166339874267578,-0.009453892707824707,-0.1346883773803711
1759441135835362000,1.189362060546875,0.018388986587524414,-0.011514127254486084,-0.16808032989501953
1759441135845362000,1.19936181640625,0.004466533660888672,-0.016245663166046143,-0.17510509490966797
1759441135855362000,1.209362060546875,0.021858692169189453,-0.0016437172889709473,-0.1916217803955078
1759441135865362000,1.21936181640625,0.03704833984375,-0.0038262009620666504,-0.12667274475097656
1759441135875362000,1.229362060546875,0.018708467483520508,-0.006211459636688232,-0.15032577514648438
1759441135885362000,1.23936181640625,0.04312944412231445,0.010768711566925049,-0.12619400024414062
1759441135895362000,1.249362060546875,0.03133726119995117,0.0013602375984191895,-0.10456085205078125
1759441135905362000,1.25936181640625,0.03841233253479004,-0.01290827989578247,-0.11177539825439453
1759441135915362000,1.269362060546875,0.03350472450256348,-0.0177573561668396,-0.10703182220458984
1759441135925362000,1.27936181640625,0.0405888557434082,-0.027411460876464844,-0.1142568588256836
1759441135935362000,1.289362060546875,0.0310513973236084,-0.02268850803375244,-0.1501598358154297
1759441135945362000,1.29936181640625,0.028637170791625977,-0.05136841535568237,-0.13339805603027344
1759441135955362000,1.309362060546875,0.03831219673156738,-0.02489703893661499,-0.1285715103149414
1759441135965362000,1.31936181640625,0.05055546760559082,-0.029562056064605713,-0.1212759017944336
1759441135975362000,1.329362060546875,0.05070805549621582,-0.00779491662979126,-0.13317203521728516
1759441135985362000,1.33936181640625,0.04120135307312012,-0.01956343650817871,-0.12595272064208984
1759441135995362000,1.349362060546875,0.060433149337768555,-0.021747887134552002,-0.1258983612060547
1759441136005362000,1.35936181640625,0.06544637680053711,-0.04311400651931763,-0.14495277404785156
1759441136015362000,1.369362060546875,0.04895424842834473,-0.05501049757003784,-0.1592121124267578
1759441136025362000,1.37936181640625,0.02995467185974121,-0.045392751693725586,-0.13043594360351562
1759441136035362000,1.389362060546875,0.04424476623535156,-0.011782288551330566,-0.1424245834350586
1759441136045362000,1.39936181640625,0.024659156799316406,0.01709568500518799,-0.11621856689453125
1759441136055362000,1.409362060546875,0.007565021514892578,-0.004541277885437012,-0.10916614532470703
1759441136065362000,1.41936181640625,0.023876190185546875,0.0026630759239196777,-0.10213470458984375
1759441136075362000,1.429362060546875,0.04052162170410156,-0.011557400226593018,-0.09018135070800781
1759441136085362000,1.43936181640625,0.0504612922668457,-0.004327178001403809,-0.13315105438232422
1759441136095362000,1.449362060546875,0.06295371055603027,-0.04261511564254761,-0.14253997802734375
1759441136105362000,1.45936181640625,0.037180423736572266,-0.04009270668029785,-0.18542957305908203
1759441136115362000,1.469362060546875,0.025561094284057617,-0.013596117496490479,-0.14937591552734375
1759441136125362000,1.47936181640625,0.02087712287902832,-0.02546703815460205,-0.1565074920654297
1759441136135362000,1.489362060546875,0.006537199020385742,0.01308530569076538,-0.13253307342529297
1759441136145362000,1.49936181640625,0.01859879493713379,0.0300295352935791,-0.09657096862792969
1759441136155362000,1.509362060546875,0.011767148971557617,0.03727072477340698,-0.08446979522705078
1759441136165362000,1.51936181640625,0.031232357025146484,0.02059084177017212,-0.09154701232910156
1759441136175362000,1.529362060546875,0.04345583915710449,0.011018097400665283,-0.12258243560791016
1759441136185362000,1.53936181640625,0.05070066452026367,0.0014122724533081055,-0.12016868591308594
1759441136195361800,1.54936181640625,0.043448686599731445,-0.005900979042053223,-0.16807937622070312
1759441136205362000,1.55936181640625,0.03387594223022461,0.0034102201461791992,-0.18487167358398438
1759441136215361800,1.56936181640625,0.03618025779724121,0.00312727689743042,-0.14901256561279297
1759441136225362000,1.57936181640625,0.03606986999511719,-0.02826160192489624,-0.13711071014404297
1759441136235361800,1.58936181640625,0.04570174217224121,-0.014103591442108154,-0.1083841323852539
1759441136245362000,1.59936181640625,0.04362988471984863,-0.011752545833587646,-0.12503433227539062
1759441136255361800,1.60936181640625,0.04177069664001465,-0.03580385446548462,-0.11288833618164062
1759441136265362000,1.61936181640625,0.04459333419799805,-0.02149653434753418,-0.12472248077392578
1759441136275361800,1.62936181640625,0.011413097381591797,-0.02877599000930786,-0.11981964111328125
1759441136285362000,1.63936181640625,0.004498720169067383,-0.05512970685958862,-0.13170433044433594
1759441136295361800,1.64936181640625,0.019124269485473633,-0.03592127561569214,-0.11724090576171875
1759441136305362000,1.65936181640625,0.012326955795288086,-0.00706326961517334,-0.1410236358642578
1759441136315361800,1.66936181640625,0.02715778350830078,0.0026067495346069336,-0.13127803802490234
1759441136325362000,1.67936181640625,0.03248023986816406,-0.028509438037872314,-0.11194705963134766
1759441136335361800,1.68936181640625,0.03769111633300781,-0.011683762073516846,-0.1405191421508789
1759441136345362000,1.69936181640625,0.04538297653198242,0.017147719860076904,-0.1355295181274414
1759441136355362000,1.709362060546875,0.05307340621948242,-0.016324102878570557,-0.1353597640991211
1759441136365362000,1.71936181640625,0.06050896644592285,-0.021006643772125244,-0.15202045440673828
1759441136375362000,1.729362060546875,0.03668713569641113,-0.00410914421081543,-0.1567544937133789
1759441136385362000,1.73936181640625,0.03684377670288086,-0.006335437297821045,-0.13274002075195312
1759441136395361800,1.74936181640625,0.027420520782470703,-0.008689701557159424,-0.12549686431884766
1759441136405362000,1.75936181640625,0.022649049758911133,0.008117258548736572,-0.12549209594726562
1759441136415361800,1.76936181640625,0.01088261604309082,-0.01586383581161499,-0.11823654174804688
1759441136425362000,1.77936181640625,0.042357683181762695,-0.030291438102722168,-0.0965719223022461
1759441136435361800,1.78936181640625,0.04504036903381348,-0.025536954402923584,-0.12281036376953125
1759441136445362000,1.79936181640625,0.04296159744262695,-0.006398022174835205,-0.12509536743164062
1759441136455361800,1.80936181640625,0.05506014823913574,-0.03760051727294922,-0.14899921417236328
1759441136465362000,1.81936181640625,0.021631240844726562,-0.006346583366394043,-0.1393747329711914
1759441136475361800,1.82936181640625,0.04793500900268555,0.010558903217315674,-0.1298046112060547
1759441136485362000,1.83936181640625,0.024124860763549805,-0.008358657360076904,-0.10100173950195312
1759441136495362000,1.849362060546875,0.0268707275390625,-0.02255195379257202,-0.1295909881591797
1759441136505362000,1.85936181640625,0.02006387710571289,-0.0008130073547363281,-0.1318368911743164
1759441136515362000,1.869362060546875,0.034705162048339844,-0.02459120750427246,-0.14609146118164062
1759441136525362000,1.87936181640625,0.01572585105895996,0.006755948066711426,-0.13881874084472656
1759441136535362000,1.889362060546875,0.011131525039672852,-0.012220799922943115,-0.14591407775878906
1759441136545362000,1.89936181640625,0.020974397659301758,-0.02175307273864746,-0.12666702270507812
1759441136555362000,1.909362060546875,0.03327655792236328,-0.02167642116546631,-0.12894344329833984
1759441136565362000,1.91936181640625,0.043297767639160156,-0.023944735527038574,-0.13356399536132812
1759441136575362000,1.929362060546875,0.029414653778076172,-0.01655292510986328,-0.09267234802246094
1759441136585362000,1.93936181640625,0.04673004150390625,-0.03077375888824463,-0.1020345687866211
1759441136595362000,1.949362060546875,0.044600486755371094,-0.023284196853637695,-0.11628246307373047
1759441136605362000,1.95936181640625,0.0495760440826416,-0.0011529326438903809,-0.11137008666992188
1759441136615362000,1.969362060546875,0.033176422119140625,-0.007910609245300293,-0.12556934356689453
1759441136625362000,1.97936181640625,0.05247092247009277,-0.005090653896331787,-0.10152816772460938
1759441136635362000,1.989362060546875,0.06926965713500977,0.004976451396942139,-0.11343097686767578
1759441136645362000,1.99936181640625,0.04983782768249512,-0.0038874149322509766,-0.11585617065429688
1759441136655362000,2.009362060546875,0.04445290565490723,0.02559143304824829,-0.1159811019897461
1759441136665362000,2.01936181640625,0.041291236877441406,0.028822124004364014,-0.10659313201904297
1759441136675362000,2.029362060546875,0.03551054000854492,0.022641360759735107,-0.0948638916015625
1759441136685362000,2.03936181640625,0.017819643020629883,0.00464177131652832,-0.11422443389892578
1759441136695362000,2.049362060546875,0.02414417266845703,0.0035091638565063477,-0.1000375747680664
1759441136705362000,2.05936181640625,0.03512978553771973,0.012058258056640625,-0.10264110565185547
1759441136715362000,2.069362060546875,0.02431178092956543,0.027925074100494385,-0.06700420379638672
1759441136725362000,2.07936181640625,0.05169510841369629,0.02022719383239746,-0.11517810821533203
1759441136735362000,2.089362060546875,0.05514168739318848,0.01522815227508545,-0.08190345764160156
1759441136745362000,2.09936181640625,0.04455161094665527,0.005528509616851807,-0.1299266815185547
1759441136755362000,2.109362060546875,0.034108877182006836,0.012562394142150879,-0.1754922866821289
1759441136765362000,2.11936181640625,0.0045413970947265625,0.02438652515411377,-0.22344493865966797
1759441136775362000,2.129362060546875,-0.01778435707092285,0.005018949508666992,-0.22350311279296875
1759441136785362000,2.13936181640625,-0.016012907028198242,0.002420663833618164,-0.2522401809692383
1759441136795362000,2.149362060546875,-0.04246950149536133,0.004509985446929932,-0.23292255401611328
1759441136805362000,2.15936181640625,-0.02749347686767578,-0.003279447555541992,-0.23253250122070312
1759441136815362000,2.169362060546875,-0.05240130424499512,-0.012117385864257812,-0.2199859619140625
1759441136825362000,2.17936181640625,-0.03376293182373047,-0.04053843021392822,-0.23126888275146484
1759441136835362000,2.189362060546875,-0.009950399398803711,-0.06700432300567627,-0.18021869659423828
1759441136845362000,2.19936181640625,-0.003152608871459961,-0.07431203126907349,-0.1364297866821289
1759441136855362000,2.209362060546875,0.005908489227294922,-0.0768386721611023,-0.1046590805053711
1759441136865362000,2.21936181640625,0.050530195236206055,-0.043148577213287354,-0.07060050964355469
1759441136875362000,2.229362060546875,0.05185198783874512,-0.04270976781845093,-0.07009696960449219
1759441136885362000,2.23936181640625,0.04832148551940918,-0.06833004951477051,-0.040859222412109375
1759441136895362000,2.249362060546875,0.049550533294677734,-0.055351078510284424,-0.054696083068847656
1759441136905362000,2.25936181640625,0.05779695510864258,-0.03734779357910156,-0.07575321197509766
1759441136915362000,2.269362060546875,0.06371545791625977,-0.04083287715911865,-0.11833763122558594
1759441136925362000,2.27936181640625,0.08432769775390625,-0.037085652351379395,-0.12008857727050781
1759441136935362000,2.289362060546875,0.11173439025878906,-0.021137475967407227,-0.14828777313232422
1759441136945362000,2.29936181640625,0.10552716255187988,-0.0006462931632995605,-0.154998779296875
1759441136955362000,2.309362060546875,0.09638762474060059,-0.00412750244140625,-0.16430282592773438
1759441136965362000,2.31936181640625,0.09389543533325195,-0.014988899230957031,-0.18817424774169922
1759441136975362000,2.329362060546875,0.08871078491210938,-0.028487324714660645,-0.19541645050048828
1759441136985362000,2.33936181640625,0.06431388854980469,-0.05430549383163452,-0.19312191009521484
1759441136995362000,2.349362060546875,0.03989696502685547,-0.08516865968704224,-0.1549530029296875
1759441137005362000,2.35936181640625,0.04456281661987305,-0.0900762677192688,-0.1095266342163086
1759441137015362000,2.369362060546875,0.05700945854187012,-0.06859207153320312,-0.10696125030517578
1759441137025362000,2.37936181640625,0.05331683158874512,-0.07828843593597412,-0.0826559066772461
1759441137035362000,2.389362060546875,0.08870267868041992,-0.04975062608718872,-0.07005882263183594
1759441137045362000,2.39936181640625,0.10042524337768555,-0.08582538366317749,-0.03580474853515625
1759441137055362000,2.409362060546875,0.12887811660766602,-0.09751379489898682,-0.05180549621582031
1759441137065362000,2.41936181640625,0.1520061492919922,-0.093899667263031,-0.06071758270263672
1759441137075362000,2.429362060546875,0.14833927154541016,-0.09671550989151001,-0.08887195587158203
1759441137085362000,2.43936181640625,0.10846638679504395,-0.0846477746963501,-0.09552860260009766
1759441137095362000,2.449362060546875,0.09892678260803223,-0.09140598773956299,-0.08567619323730469
1759441137105362000,2.45936181640625,0.1003122329711914,-0.12416183948516846,-0.03065013885498047
1759441137115362000,2.469362060546875,0.10010051727294922,-0.14140784740447998,0.0598297119140625
1759441137125362000,2.47936181640625,0.09824514389038086,-0.14240342378616333,0.1259765625
1759441137135362000,2.489362060546875,0.11182188987731934,-0.12426948547363281,0.16314125061035156
1759441137145362000,2.49936181640625,0.09262728691101074,-0.09820103645324707,0.1790914535522461
1759441137155362000,2.509362060546875,0.05178189277648926,-0.03372395038604736,0.1497182846069336
1759441137165362000,2.51936181640625,0.02610158920288086,0.04826325178146362,0.11827373504638672
1759441137175362000,2.529362060546875,-0.03455662727355957,0.16833418607711792,-0.011029243469238281
1759441137185362000,2.53936181640625,-0.06303238868713379,0.22516584396362305,-0.1400775909423828
1759441137195362000,2.549362060546875,-0.09556818008422852,0.24692481756210327,-0.20916366577148438
1759441137205362000,2.55936181640625,-0.14648866653442383,0.24973386526107788,-0.32605743408203125
1759441137215362000,2.569362060546875,-0.15047168731689453,0.26255500316619873,-0.38036155700683594
1759441137225362000,2.57936181640625,-0.15487885475158691,0.21330255270004272,-0.4198026657104492
1759441137235362000,2.589362060546875,-0.11437058448791504,0.15286564826965332,-0.4300212860107422
1759441137245362000,2.59936181640625,-0.04818439483642578,0.06289547681808472,-0.38223934173583984
1759441137255362000,2.609362060546875,0.057039737701416016,-0.00005161762237548828,-0.27909183502197266
1759441137265362000,2.61936181640625,0.14964699745178223,-0.013490855693817139,-0.18800067901611328
1759441137275362000,2.629362060546875,0.2194969654083252,-0.017486989498138428,-0.07800960540771484
1759441137285362000,2.63936181640625,0.24032950401306152,-0.02232491970062256,-0.004185676574707031
1759441137295362000,2.649362060546875,0.23343515396118164,-0.009418010711669922,0.03809547424316406
1759441137305362000,2.65936181640625,0.21776533126831055,-0.015418052673339844,0.05590343475341797
1759441137315362000,2.669362060546875,0.1768665313720703,-0.021578848361968994,0.061270713806152344
1759441137325362000,2.67936181640625,0.09920787811279297,-0.020916283130645752,0.0375823974609375
1759441137335362000,2.689362060546875,0.08172941207885742,-0.015925586223602295,0.00439453125
1759441137345362000,2.69936181640625,0.04851555824279785,0.019934117794036865,-0.02608013153076172
1759441137355362000,2.709362060546875,0.036368370056152344,0.06255823373794556,-0.05832862854003906
1759441137365362000,2.71936181640625,0.03611493110656738,0.10222703218460083,-0.11615848541259766
1759441137375362000,2.729362060546875,0.06664299964904785,0.09347003698348999,-0.11827373504638672
1759441137385362000,2.73936181640625,0.09413456916809082,0.07976371049880981,-0.10782909393310547
1759441137395362000,2.749362060546875,0.1049497127532959,0.11927288770675659,-0.14520645141601562
1759441137405362000,2.75936181640625,0.08565139770507812,0.12584072351455688,-0.14951705932617188
1759441137415362000,2.769362060546875,0.04553866386413574,0.15469872951507568,-0.13520050048828125
1759441137425362000,2.77936181640625,-0.0003266334533691406,0.16480737924575806,-0.10921096801757812
1759441137435362000,2.789362060546875,-0.04124307632446289,0.17499524354934692,-0.11190128326416016
1759441137445362000,2.79936181640625,-0.0561833381652832,0.15600675344467163,-0.0612640380859375
1759441137455362000,2.809362060546875,-0.07078242301940918,0.14644140005111694,-0.026498794555664062
1759441137465362000,2.81936181640625,-0.04417252540588379,0.15846091508865356,-0.0051403045654296875
1759441137475362000,2.829362060546875,-0.01554727554321289,0.14679396152496338,0.03842639923095703
1759441137495361800,2.84936181640625,0.0634300708770752,0.230404794216156,-0.017223358154296875
1759441137505362000,2.85936181640625,0.08881640434265137,0.2749277949333191,-0.06175041198730469
1759441137515361800,2.86936181640625,0.11315584182739258,0.33038008213043213,-0.15940189361572266
1759441137525362000,2.87936181640625,0.0847618579864502,0.35556066036224365,-0.2675504684448242
1759441137535361800,2.88936181640625,0.03423786163330078,0.41035276651382446,-0.4031200408935547
1759441137545362000,2.89936181640625,-0.04912972450256348,0.46682870388031006,-0.48661231994628906
1759441137555361800,2.90936181640625,-0.16524362564086914,0.47212767601013184,-0.5268440246582031
1759441137565362000,2.91936181640625,-0.28978896141052246,0.5152093768119812,-0.5492000579833984
1759441137575361800,2.92936181640625,-0.3125736713409424,0.5160902142524719,-0.5552577972412109
1759441137585362000,2.93936181640625,-0.2942361831665039,0.5060088634490967,-0.5086326599121094
1759441137595361800,2.94936181640625,-0.29732418060302734,0.37238162755966187,-0.40706443786621094
1759441137605362000,2.95936181640625,-0.2802088260650635,0.2855977416038513,-0.3564443588256836
1759441137615361800,2.96936181640625,-0.3260972499847412,0.28177517652511597,-0.39649295806884766
1759441137625362000,2.97936181640625,-0.4925835132598877,0.23939937353134155,-0.4272899627685547
1759441137635361800,2.98936181640625,-0.8032116889953613,0.055842071771621704,-0.3064565658569336
1759441137645362000,2.99936181640625,-1.1014643907546997,-0.07520925998687744,-0.1957416534423828
1759441137655361800,3.00936181640625,-1.3428393602371216,0.14454621076583862,-0.44262123107910156
1759441137665362000,3.01936181640625,-1.3370189666748047,0.5806082487106323,-1.0246515274047852
1759441137675361800,3.02936181640625,-1.240680456161499,0.8270636796951294,-1.5213899612426758
1759441137685362000,3.03936181640625,-0.7473362684249878,0.7027509212493896,-1.8977699279785156
1759441137695361800,3.04936181640625,0.24743413925170898,0.7336427569389343,-2.2622547149658203
1759441137705362000,3.05936181640625,1.4709926843643188,0.7483967542648315,-2.52163028717041
1759441137715361800,3.06936181640625,2.5631749629974365,0.5262901186943054,-2.6844587326049805
1759441137725362000,3.07936181640625,3.0236260890960693,0.1152224913239479,-2.489320755004883
1759441137735361800,3.08936181640625,2.88643217086792,-0.31070640683174133,-1.988987922668457
1759441137745362000,3.09936181640625,2.1649107933044434,-0.535356879234314,-1.5273370742797852
1759441137755361800,3.10936181640625,1.3741189241409302,-0.7170699834823608,-1.4076480865478516
1759441137765362000,3.11936181640625,0.7939728498458862,-1.1370701789855957,-1.5276899337768555
1759441137775361800,3.12936181640625,0.23722779750823975,-1.8057708740234375,-1.8114242553710938
1759441137785362000,3.13936181640625,-0.09171450138092041,-2.3248562812805176,-2.1021242141723633
1759441137795361800,3.14936181640625,-0.3336746096611023,-2.623518228530884,-2.260293960571289
1759441137805362000,3.15936181640625,-0.5500719547271729,-2.7200331687927246,-2.352628707885742
1759441137815361800,3.16936181640625,-0.6529085040092468,-2.5706048011779785,-2.3382835388183594
1759441137835361800,3.18936181640625,-0.7067736387252808,-2.017587184906006,-1.8774700164794922
1759441137845362000,3.19936181640625,-0.6171522736549377,-1.7160001993179321,-1.674372673034668
1759441137855362000,3.209362060546875,-0.587273895740509,-1.441133737564087,-1.6111822128295898
1759441137865362000,3.21936181640625,-0.5648563504219055,-1.2399393320083618,-1.607177734375
1759441137875362000,3.229362060546875,-0.5580050349235535,-1.1445931196212769,-1.6526317596435547
1759441137885362000,3.23936181640625,-0.6155074834823608,-1.125226378440857,-1.6734275817871094
1759441137895362000,3.249362060546875,-0.6200122237205505,-1.0979505777359009,-1.7873334884643555
1759441137905362000,3.25936181640625,-0.5800833106040955,-1.141926646232605,-1.8818025588989258
1759441137915362000,3.269362060546875,-0.43320590257644653,-1.2338995933532715,-1.8729829788208008
1759441137925362000,3.27936181640625,-0.291877806186676,-1.293104887008667,-1.8829870223999023
1759441137935362000,3.289362060546875,-0.1677004098892212,-1.2499825954437256,-1.8642768859863281
1759441137945362000,3.29936181640625,-0.06424665451049805,-1.2214407920837402,-1.857870101928711
1759441137955362000,3.309362060546875,0.03358328342437744,-1.330204963684082,-1.7409191131591797
1759441137965362000,3.31936181640625,0.09793329238891602,-1.2711153030395508,-1.611419677734375
1759441137975362000,3.329362060546875,0.12601715326309204,-1.248551607131958,-1.4595718383789062
1759441137985362000,3.33936181640625,0.1099928617477417,-1.3408546447753906,-1.3066825866699219
1759441137995362000,3.349362060546875,0.06536120176315308,-1.480241298675537,-1.121382713317871
1759441138005362000,3.35936181640625,0.10389602184295654,-1.390519380569458,-0.8059482574462891
1759441138015362000,3.369362060546875,0.1822473406791687,-1.1163780689239502,-0.5571928024291992
1759441138025362000,3.37936181640625,0.37209415435791016,-0.8433797359466553,-0.3482837677001953
1759441138035361800,3.38936181640625,0.6260730028152466,-0.5991466045379639,-0.13781452178955078
1759441138045362000,3.39936181640625,0.8449680209159851,-0.380723237991333,-0.0015592575073242188
1759441138055361800,3.40936181640625,0.8944365382194519,-0.1702275276184082,0.2047872543334961
1759441138065362000,3.41936181640625,0.7734900712966919,0.08366727828979492,0.38100719451904297
1759441138075361800,3.42936181640625,0.5301548838615417,0.3241305351257324,0.4989356994628906
1759441138085362000,3.43936181640625,0.3202786445617676,0.5527558326721191,0.6351814270019531
1759441138095362000,3.449362060546875,0.18453848361968994,0.8180480003356934,0.6486530303955078
1759441138105362000,3.45936181640625,0.13263928890228271,1.0535938739776611,0.6205697059631348
1759441138115362000,3.469362060546875,0.09795272350311279,1.1525590419769287,0.6186504364013672
1759441138125362000,3.47936181640625,0.05272352695465088,1.1596674919128418,0.5808429718017578
1759441138135362000,3.489362060546875,-0.03176987171173096,1.0456228256225586,0.5146780014038086
1759441138145362000,3.49936181640625,-0.05630052089691162,0.886260986328125,0.4614715576171875
1759441138155361800,3.50936181640625,-0.043551087379455566,0.7310104370117188,0.3526167869567871
1759441138165362000,3.51936181640625,-0.0048503875732421875,0.5884881019592285,0.31329870223999023
1759441138175361800,3.52936181640625,-0.02378237247467041,0.4343137741088867,0.2821922302246094
1759441138185362000,3.53936181640625,0.014436483383178711,0.318575382232666,0.34462785720825195
1759441138195361800,3.54936181640625,0.07579183578491211,0.16475152969360352,0.4631462097167969
1759441138205362000,3.55936181640625,0.14698505401611328,0.16011476516723633,0.5874285697937012
1759441138215361800,3.56936181640625,0.05100393295288086,0.1690220832824707,0.7429709434509277
1759441138225362000,3.57936181640625,-0.18637406826019287,0.2930760383605957,0.8998308181762695
1759441138235361800,3.58936181640625,-0.30225276947021484,0.530663013458252,1.0624909400939941
1759441138245362000,3.59936181640625,-0.4114852547645569,0.7598772048950195,1.1737170219421387
1759441138255361800,3.60936181640625,-0.573541522026062,0.9869751930236816,1.2751059532165527
1759441138265362000,3.61936181640625,-0.7219947576522827,1.1989102363586426,1.2866239547729492
1759441138275361800,3.62936181640625,-0.7893497943878174,1.4650969505310059,1.347834587097168
1759441138285362000,3.63936181640625,-0.6059010624885559,1.644815444946289,1.5019898414611816
1759441138295361800,3.64936181640625,-0.16531729698181152,1.7588295936584473,1.7072196006774902
1759441138305362000,3.65936181640625,0.43843400478363037,1.950606346130371,1.914186954498291
1759441138315361800,3.66936181640625,0.6261821985244751,2.093914031982422,1.9119811058044434
1759441138325362000,3.67936181640625,0.6108410358428955,2.2267603874206543,1.7962698936462402
1759441138335362000,3.689362060546875,0.46737682819366455,2.3492579460144043,1.6481809616088867
1759441138345362000,3.69936181640625,0.31594157218933105,2.346958637237549,1.5799708366394043
1759441138355362000,3.709362060546875,0.26316404342651367,2.3034400939941406,1.5783042907714844
1759441138365362000,3.71936181640625,0.1934448480606079,2.2658438682556152,1.477327823638916
1759441138375362000,3.729362060546875,0.002774477005004883,2.250436305999756,1.2158265113830566
1759441138385362000,3.73936181640625,-0.07205450534820557,2.0984277725219727,1.1170768737792969
1759441138395362000,3.749362060546875,-0.08043622970581055,1.9081754684448242,0.9922270774841309
1759441138405362000,3.75936181640625,-0.2080169916152954,1.696352481842041,0.6498656272888184
1759441138415362000,3.769362060546875,-0.42959296703338623,1.499208927154541,0.3722877502441406
1759441138425362000,3.77936181640625,-0.6141724586486816,1.2399187088012695,0.1468796730041504
1759441138435361800,3.78936181640625,-0.8223081231117249,0.9139194488525391,-0.19379520416259766
1759441138445362000,3.79936181640625,-1.0359306335449219,0.6084089279174805,-0.46616077423095703
1759441138455361800,3.80936181640625,-1.2232526540756226,0.2879347801208496,-0.7346515655517578
1759441138465362000,3.81936181640625,-1.3248425722122192,-0.05394315719604492,-0.7812027931213379
1759441138475361800,3.82936181640625,-1.3386529684066772,-0.2805037498474121,-0.7080082893371582
1759441138485362000,3.83936181640625,-1.1951539516448975,-0.4490976333618164,-0.43752288818359375
1759441138495361800,3.84936181640625,-1.0195577144622803,-0.45412683486938477,-0.09198427200317383
1759441138505362000,3.85936181640625,-0.7318066358566284,-0.5941591262817383,0.47319746017456055
1759441138515361800,3.86936181640625,-0.2945694923400879,-0.6644430160522461,0.9538369178771973
1759441138525362000,3.87936181640625,0.20963263511657715,-0.6932659149169922,1.273921012878418
1759441138535361800,3.88936181640625,0.6311311721801758,-0.8739185333251953,1.5552377700805664
1759441138545362000,3.89936181640625,0.8637347221374512,-1.0069661140441895,1.598860740661621
1759441138555361800,3.90936181640625,0.8702269792556763,-1.0636787414550781,1.5694398880004883
1759441138565362000,3.91936181640625,0.6468029618263245,-1.1334080696105957,1.544262409210205
1759441138575361800,3.92936181640625,0.33956825733184814,-1.1888694763183594,1.547034740447998
1759441138585362000,3.93936181640625,0.15232694149017334,-1.1479415893554688,1.5832014083862305
1759441138595362000,3.949362060546875,-0.014963746070861816,-1.0340218544006348,1.598496437072754
1759441138605362000,3.95936181640625,-0.20813977718353271,-0.8310422897338867,1.5919709205627441
1759441138615362000,3.969362060546875,-0.2917962670326233,-0.666050910949707,1.588301658630371
1759441138625362000,3.97936181640625,-0.3786656856536865,-0.4910612106323242,1.564887523651123
1759441138635362000,3.989362060546875,-0.5007248520851135,-0.37758302688598633,1.4168167114257812
1759441138645362000,3.99936181640625,-0.5955810546875,-0.28829431533813477,1.1781892776489258
1759441138655361800,4.00936181640625,-0.6759864091873169,-0.14711904525756836,0.760530948638916
1759441138665362000,4.01936181640625,-0.7494741082191467,-0.025970458984375,0.41767072677612305
1759441138675361800,4.02936181640625,-0.801144540309906,-0.004939556121826172,0.07192564010620117
1759441138685362000,4.03936181640625,-0.7628282308578491,0.0347437858581543,-0.32335519790649414
1759441138695361800,4.04936181640625,-0.7243949174880981,0.04227161407470703,-0.592597484588623
1759441138705362000,4.05936181640625,-0.6084771752357483,0.03636598587036133,-0.7687187194824219
1759441138715361800,4.06936181640625,-0.38416755199432373,0.03337812423706055,-0.8198013305664062
1759441138725362000,4.07936181640625,-0.07971429824829102,0.07864141464233398,-0.6857447624206543
1759441138735362000,4.089362060546875,0.2635408043861389,0.10036325454711914,-0.4145784378051758
1759441138745362000,4.09936181640625,0.5342676639556885,0.03188323974609375,-0.1294546127319336
1759441138755362000,4.109362060546875,0.7334399819374084,-0.05472517013549805,0.07098627090454102
1759441138765362000,4.11936181640625,0.7861224412918091,-0.1815047264099121,0.2847862243652344
1759441138775362000,4.129362060546875,0.6515142321586609,-0.3469052314758301,0.36858272552490234
1759441138785362000,4.13936181640625,0.4202679991722107,-0.49477100372314453,0.4073367118835449
1759441138795362000,4.149362060546875,0.20544642210006714,-0.5765070915222168,0.36949729919433594
1759441138805362000,4.15936181640625,0.027638256549835205,-0.6062684059143066,0.264894962310791
1759441138815362000,4.169362060546875,-0.1071818470954895,-0.5624685287475586,0.1798110008239746
1759441138825362000,4.17936181640625,-0.23940354585647583,-0.43545961380004883,0.09744453430175781
1759441138835362000,4.189362060546875,-0.37711232900619507,-0.29245471954345703,0.0968928337097168
1759441138845362000,4.19936181640625,-0.474721223115921,-0.14861583709716797,0.04738569259643555
1759441138855362000,4.209362060546875,-0.5452008247375488,-0.033257484436035156,0.02161121368408203
1759441138865362000,4.21936181640625,-0.5506839752197266,0.03397655487060547,-0.003540515899658203
1759441138875362000,4.229362060546875,-0.4930999279022217,0.12436962127685547,0.008817672729492188
1759441138885362000,4.23936181640625,-0.4129725992679596,0.1327037811279297,0.019964218139648438
1759441138895362000,4.249362060546875,-0.27311772108078003,0.13824892044067383,0.010280132293701172
1759441138905362000,4.25936181640625,-0.11257410049438477,0.10010957717895508,0.039755821228027344
1759441138915362000,4.269362060546875,0.022256433963775635,0.029954910278320312,0.05356931686401367
1759441138925362000,4.27936181640625,0.15972983837127686,-0.04349327087402344,0.046840667724609375
1759441138935362000,4.289362060546875,0.20532935857772827,-0.12460136413574219,0.07169294357299805
1759441138945362000,4.29936181640625,0.14738178253173828,-0.21525001525878906,0.06259536743164062
1759441138955362000,4.309362060546875,0.04970228672027588,-0.21944332122802734,0.10781478881835938
1759441138965362000,4.31936181640625,0.000004947185516357422,-0.15639352798461914,0.11900758743286133
1759441138975362000,4.329362060546875,-0.06473392248153687,-0.0690155029296875,0.11529016494750977
1759441138985362000,4.33936181640625,-0.07104909420013428,0.047272682189941406,0.05878400802612305
1759441138995362000,4.349362060546875,-0.07459712028503418,0.1510753631591797,-0.025806427001953125
1759441139005362000,4.35936181640625,-0.0979388952255249,0.1942133903503418,-0.08319234848022461
1759441139015362000,4.369362060546875,-0.13667887449264526,0.2243032455444336,-0.15137243270874023
1759441139025362000,4.37936181640625,-0.13248670101165771,0.17404603958129883,-0.21799755096435547
1759441139035362000,4.389362060546875,-0.09373396635055542,0.11501407623291016,-0.23234272003173828
1759441139045362000,4.39936181640625,-0.07012945413589478,0.10017061233520508,-0.1970658302307129
1759441139055362000,4.409362060546875,-0.08950960636138916,0.07483863830566406,-0.12723636627197266
1759441139065362000,4.41936181640625,-0.12441033124923706,-0.04677152633666992,-0.06409168243408203
1759441139075362000,4.429362060546875,-0.09286242723464966,-0.11795520782470703,-0.013172626495361328
1759441139085362000,4.43936181640625,-0.06357264518737793,-0.19329023361206055,0.025043010711669922
1759441139095362000,4.449362060546875,-0.017369210720062256,-0.15050506591796875,0.007212638854980469
1759441139105362000,4.45936181640625,0.01902472972869873,-0.17397451400756836,0.009991645812988281
1759441139115362000,4.469362060546875,0.023763060569763184,-0.15889644622802734,-0.016281604766845703
1759441139125362000,4.47936181640625,-0.029640793800354004,-0.17488670349121094,-0.004392147064208984
1759441139135362000,4.489362060546875,-0.07924407720565796,-0.15726661682128906,0.00008630752563476562
1759441139145362000,4.49936181640625,-0.119540274143219,-0.15144968032836914,0.025902271270751953
1759441139155362000,4.509362060546875,-0.16686290502548218,-0.18852472305297852,0.08021879196166992
1759441139165362000,4.51936181640625,-0.23802155256271362,-0.21575498580932617,0.10550975799560547
1759441139175362000,4.529362060546875,-0.32365545630455017,-0.263944149017334,0.15883111953735352
1759441139185362000,4.53936181640625,-0.357479989528656,-0.27970266342163086,0.2131342887878418
1759441139195362000,4.549362060546875,-0.32325509190559387,-0.2868351936340332,0.2397317886352539
1759441139205362000,4.55936181640625,-0.2976822555065155,-0.26848411560058594,0.22650861740112305
1759441139215362000,4.569362060546875,-0.2947169840335846,-0.248687744140625,0.19011211395263672
1759441139225362000,4.57936181640625,-0.28754881024360657,-0.24944734573364258,0.14050769805908203
1759441139235362000,4.589362060546875,-0.24651992321014404,-0.24970149993896484,0.06872940063476562
1759441139245362000,4.59936181640625,-0.17622968554496765,-0.20918798446655273,0.004093170166015625
1759441139255362000,4.609362060546875,-0.11054405570030212,-0.20748138427734375,-0.05281400680541992
1759441139265362000,4.61936181640625,0.006749629974365234,-0.12993860244750977,-0.11370468139648438
1759441139275362000,4.629362060546875,-0.0009077787399291992,-0.1231389045715332,-0.18765592575073242
1759441139285362000,4.63936181640625,0.04601430892944336,-0.0695953369140625,-0.19585275650024414
1759441139295362000,4.649362060546875,0.06759542226791382,-0.02907085418701172,-0.20772027969360352
1759441139305362000,4.65936181640625,0.08091726899147034,-0.008582115173339844,-0.16832256317138672
1759441139315362000,4.669362060546875,0.016701847314834595,0.023014545440673828,-0.10163354873657227
1759441139325362000,4.67936181640625,-0.06046527624130249,0.006163120269775391,-0.031946659088134766
1759441139335362000,4.689362060546875,-0.11659121513366699,-0.0612645149230957,0.0691843032836914
1759441139345362000,4.69936181640625,-0.14019480347633362,-0.10720109939575195,0.1106114387512207
1759441139355362000,4.709362060546875,-0.18892917037010193,-0.10956001281738281,0.14678287506103516
1759441139365362000,4.71936181640625,-0.2514228820800781,-0.14710283279418945,0.12466669082641602
1759441139375362000,4.729362060546875,-0.3017088770866394,-0.15262746810913086,0.09907770156860352
1759441139385362000,4.73936181640625,-0.3272375762462616,-0.1645956039428711,0.0415654182434082
1759441139395362000,4.749362060546875,-0.3250260353088379,-0.16407299041748047,-0.004521846771240234
1759441139405362000,4.75936181640625,-0.3218247592449188,-0.09608268737792969,-0.06063270568847656
1759441139415362000,4.769362060546875,-0.27027007937431335,-0.0332036018371582,-0.07802963256835938
1759441139425362000,4.77936181640625,-0.2045268416404724,-0.006973743438720703,-0.06345939636230469
1759441139435362000,4.789362060546875,-0.11266803741455078,-0.012797355651855469,-0.059772491455078125
1759441139445362000,4.79936181640625,-0.030237168073654175,-0.019518375396728516,-0.09331035614013672
1759441139455362000,4.809362060546875,0.06106090545654297,-0.03415250778198242,-0.05658769607543945
1759441139465362000,4.81936181640625,0.05437749624252319,-0.08032751083374023,-0.03629446029663086
1759441139475362000,4.829362060546875,0.024052470922470093,-0.07862186431884766,-0.023283004760742188
1759441139485362000,4.83936181640625,0.01662614941596985,-0.1151123046875,-0.01290130615234375
1759441139495362000,4.849362060546875,0.0094623863697052,-0.10835838317871094,-0.048134803771972656
1759441139505362000,4.85936181640625,-0.02359408140182495,-0.0703425407409668,-0.04043388366699219
1759441139515362000,4.869362060546875,-0.11205694079399109,0.013234615325927734,-0.06635665893554688
1759441139525362000,4.87936181640625,-0.14891482889652252,0.03683280944824219,-0.0706324577331543
1759441139535362000,4.889362060546875,-0.2419276088476181,0.05535125732421875,-0.07226753234863281
1759441139545362000,4.89936181640625,-0.29735785722732544,0.05688810348510742,-0.09998035430908203
1759441139555362000,4.909362060546875,-0.25832098722457886,0.07234954833984375,-0.07445001602172852
1759441139565362000,4.91936181640625,-0.17288799583911896,0.07989931106567383,-0.10289859771728516
1759441139575362000,4.929362060546875,-0.11740925908088684,0.05092573165893555,-0.1377701759338379
1759441139585362000,4.93936181640625,-0.07202523946762085,-0.03352642059326172,-0.15060091018676758
1759441139595362000,4.949362060546875,-0.010472595691680908,-0.1156768798828125,-0.16817522048950195
1759441139605362000,4.95936181640625,0.055634647607803345,-0.16412830352783203,-0.1668248176574707
1759441139615362000,4.969362060546875,-0.5279871225357056,-0.027667999267578125,-0.07761526107788086
1759441139625362000,4.97936181640625,-0.7613739967346191,-0.2883181571960449,-0.04381370544433594
1759441139635362000,4.989362060546875,-0.9238250255584717,-0.31021547317504883,0.04273557662963867
1759441139645362000,4.99936181640625,-0.6123532056808472,-0.20343637466430664,-0.004414081573486328
1759441139655362000,5.009362060546875,0.01721709966659546,0.03230762481689453,-0.0734715461730957
1759441139665362000,5.01936181640625,0.9759664535522461,0.30190324783325195,-0.20662641525268555
1759441139675362000,5.029362060546875,1.4950538873672485,0.32204341888427734,-0.2827167510986328
