seconds_elapsed,acc_z,acc_y,acc_x,grav_z,grav_y,grav_x,gyro_z,gyro_y,gyro_x
0.1000,0.2322,-0.2311,1.2564,9.5165,2.1967,0.8832,0.2589,0.0903,0.5811
0.1100,-0.7341,-0.2579,1.2128,9.5031,2.2541,0.8803,0.2589,0.0903,0.5811
0.1200,-0.9102,-0.3317,1.2298,9.4937,2.2938,0.8783,0.2589,0.0903,0.5811
0.1300,-1.0864,-0.4055,1.2467,9.4843,2.3334,0.8763,0.2589,0.0903,0.5811
0.1400,-1.4798,-0.4529,1.3375,9.4684,2.3994,0.8735,0.2589,0.0903,0.5811
0.1500,-1.7644,-0.1315,1.3103,9.4573,2.4427,0.8732,0.0634,-0.0783,0.5909
0.1600,-1.8537,0.6086,0.9890,9.4428,2.4951,0.8817,-0.0584,-0.1757,0.4381
0.1700,-1.6440,0.8597,0.6880,9.4278,2.5433,0.9042,-0.0671,-0.1675,0.2135
0.1800,-1.2527,0.5635,0.6287,9.4181,2.5713,0.9267,-0.0525,-0.1586,0.0071
0.1900,-0.8429,0.0966,0.8107,9.4137,2.5801,0.9466,-0.0427,-0.1740,-0.1595
0.2000,-0.5344,-0.0329,0.8440,9.4140,2.5716,0.9668,-0.0280,-0.1647,-0.2505
0.2100,-0.3285,-0.0018,0.7096,9.4172,2.5516,0.9879,0.0188,-0.0781,-0.2605
0.2200,-0.1695,0.0777,0.6643,9.4218,2.5280,1.0045,0.0569,-0.0140,-0.2161
0.2300,0.1786,0.2225,0.5844,9.4264,2.5069,1.0142,0.0569,0.0088,-0.1591
0.2400,0.1833,0.2908,0.5068,9.4298,2.4913,1.0215,0.0218,0.0062,-0.0968
0.2500,0.0705,0.3386,0.3880,9.4316,2.4817,1.0278,-0.0280,-0.0201,-0.0306
0.2600,-0.1050,0.4546,0.2888,9.4316,2.4791,1.0344,-0.0743,-0.0724,-0.0080
0.2700,-0.3556,0.7554,0.1874,9.4299,2.4816,1.0432,-0.0993,-0.0983,0.0085
0.2800,-0.3269,0.7199,0.1273,9.4275,2.4859,1.0546,-0.1229,-0.1180,0.0195
0.2900,-0.2887,0.6509,0.0051,9.4245,2.4927,1.0659,-0.1480,-0.1413,0.0099
0.3000,-0.3197,0.6485,-0.0798,9.4212,2.4998,1.0782,-0.1543,-0.1311,-0.0082
0.3100,-0.3080,0.6346,-0.2096,9.4183,2.5058,1.0899,-0.1327,-0.0857,-0.0361
0.3200,-0.2909,0.5717,-0.2772,9.4163,2.5097,1.0977,-0.0828,0.0214,-0.1100
0.3300,-0.2114,0.4973,-0.3153,9.4166,2.5082,1.0982,-0.0492,0.1285,-0.1913
0.3400,-0.0222,0.3806,-0.3411,9.4205,2.4980,1.0881,-0.0370,0.2047,-0.2515
0.3500,0.1469,0.2089,-0.3134,9.4270,2.4814,1.0699,-0.0311,0.2666,-0.2863
0.3600,0.3893,0.1239,-0.3385,9.4353,2.4602,1.0456,-0.0421,0.2656,-0.2819
0.3700,0.4610,0.0651,-0.3222,9.4441,2.4376,1.0182,-0.0826,0.1884,-0.2391
0.3800,0.4014,-0.0743,-0.3261,9.4518,2.4174,0.9949,-0.1307,0.1004,-0.1595
0.3900,0.3427,-0.1494,-0.3495,9.4571,2.4031,0.9792,-0.1628,0.0503,-0.0681
0.4000,0.1796,-0.2406,-0.3622,9.4597,2.3969,0.9687,-0.1569,0.0483,0.0079
0.4100,0.0233,-0.4268,-0.4976,9.4604,2.3980,0.9597,-0.0830,0.1678,-0.0076
0.4200,0.2245,-0.2035,-0.6787,9.4612,2.4006,0.9453,-0.0073,0.1393,-0.0108
0.4300,-0.0189,-0.0536,-0.3717,9.4635,2.3992,0.9256,0.0571,0.1110,0.0105
0.4400,0.0136,-0.1870,-0.2922,9.4645,2.3993,0.9147,0.1137,0.1114,0.0059
0.4500,-0.1119,-0.1416,-0.1468,9.4655,2.3994,0.9042,0.1381,0.1100,-0.0060
0.4600,-0.0317,0.0133,0.0541,9.4668,2.3977,0.8956,0.1363,0.0882,-0.0106
0.4700,0.0237,0.0627,0.2033,9.4680,2.3954,0.8885,0.1173,0.0373,0.0081
0.4800,0.0040,0.1310,0.2771,9.4686,2.3941,0.8857,0.0819,-0.0280,0.0268
0.4900,-0.0274,0.2183,0.3016,9.4680,2.3953,0.8883,0.0463,-0.0871,0.0460
0.5000,-0.0617,0.2726,0.2777,9.4665,2.3986,0.8962,0.0267,-0.1309,0.0594
0.5100,-0.1008,0.2586,0.2274,9.4640,2.4038,0.9082,0.0290,-0.1535,0.0592
0.5200,-0.1162,0.2296,0.2190,9.4611,2.4096,0.9230,0.0538,-0.1453,0.0409
0.5300,-0.0967,0.2138,0.2385,9.4584,2.4142,0.9386,0.0951,-0.1005,0.0325
0.5400,-0.0516,0.1750,0.2521,9.4563,2.4171,0.9522,0.1316,-0.0557,0.0162
0.5500,-0.0206,0.1629,0.3428,9.4548,2.4189,0.9620,0.1389,0.0011,0.0126
0.5600,0.0272,0.1960,0.4062,9.4541,2.4192,0.9680,0.1161,0.0434,0.0278
0.5700,0.0429,0.2191,0.3558,9.4536,2.4209,0.9690,0.0795,0.0471,0.0441
0.5800,-0.0568,0.2640,0.1822,9.4528,2.4247,0.9678,0.0514,-0.0877,0.0910
0.5900,-0.3977,0.3391,0.0713,9.4504,2.4318,0.9726,0.0222,-0.2211,0.1494
0.6000,-0.3690,0.2739,0.0588,9.4450,2.4451,0.9922,0.0074,-0.3502,0.1633
0.6100,-0.4421,0.2635,-0.0513,9.4374,2.4619,1.0218,0.0078,-0.4157,0.1136
0.6200,-0.5539,0.3005,-0.0303,9.4295,2.4760,1.0606,0.0224,-0.3632,0.0232
0.6300,-0.4481,0.2253,0.0446,9.4234,2.4825,1.0982,0.0467,-0.2526,-0.0660
0.6400,-0.2147,0.1943,0.1223,9.4207,2.4801,1.1267,0.0664,-0.1321,-0.1330
0.6500,0.0722,0.2239,0.1955,9.4211,2.4703,1.1445,0.0695,-0.0344,-0.1754
0.6600,0.2665,0.2176,0.2308,9.4240,2.4559,1.1523,0.0524,0.0347,-0.1803
0.6700,0.3980,0.2090,0.2327,9.4281,2.4398,1.1528,0.0155,0.0805,-0.1265
0.6800,0.4555,0.1659,0.1604,9.4320,2.4270,1.1477,-0.0144,0.0868,-0.0605
0.6900,0.4170,0.1147,0.0320,9.4346,2.4208,1.1395,-0.0295,0.0660,-0.0068
0.7000,0.2691,0.0614,-0.1434,9.4357,2.4198,1.1323,-0.0311,0.0377,0.0283
0.7100,0.1072,0.0028,-0.2724,9.4356,2.4226,1.1272,-0.0191,0.0068,0.0382
0.7200,-0.0237,-0.0677,-0.2957,9.4348,2.4268,1.1249,0.0051,-0.0205,0.0395
0.7300,-0.1032,-0.1140,-0.2487,9.4337,2.4307,1.1258,0.0296,-0.0415,0.0289
0.7400,-0.0987,-0.1075,-0.1247,9.4324,2.4339,1.1294,0.0461,-0.0470,0.0283
0.7500,-0.1056,-0.0577,0.0098,9.4313,2.4360,1.1347,0.0518,-0.0425,0.0335
0.7600,-0.0771,0.0028,0.1290,9.4300,2.4385,1.1399,0.0434,-0.0360,0.0358
0.7700,-0.0639,0.1141,0.1730,9.4287,2.4413,1.1446,0.0292,-0.0285,0.0390
0.7800,-0.0379,0.1907,0.1693,9.4274,2.4445,1.1483,0.0129,-0.0340,0.0331
0.7900,-0.0581,0.2337,0.1508,9.4261,2.4478,1.1516,-0.0006,-0.0470,0.0246
0.8000,-0.0849,0.2373,0.0972,9.4249,2.4506,1.1558,-0.0101,-0.0629,0.0185
0.8100,-0.0884,0.2031,0.0312,9.4237,2.4529,1.1611,-0.0138,-0.0804,0.0065
0.8200,-0.0600,0.1384,0.0005,9.4224,2.4546,1.1678,-0.0122,-0.0851,-0.0068
0.8300,-0.0342,0.1069,-0.0049,9.4213,2.4549,1.1756,-0.0079,-0.0686,-0.0157
0.8400,0.0208,0.0900,0.0512,9.4206,2.4542,1.1826,-0.0083,-0.0472,-0.0190
0.8500,0.0865,0.0953,0.1452,9.4204,2.4529,1.1876,-0.0126,-0.0266,-0.0137
0.8600,0.0754,0.1307,0.1646,9.4203,2.4519,1.1905,-0.0207,0.0072,0.0046
0.8700,0.0851,0.1775,0.1148,9.4202,2.4521,1.1908,-0.0293,0.0296,0.0189
0.8800,0.0478,0.2200,0.0889,9.4200,2.4543,1.1880,-0.0348,0.0296,0.0262
0.8900,-0.0460,0.2169,0.0518,9.4196,2.4574,1.1844,-0.0358,0.0294,0.0384
0.9000,-0.1235,0.2080,-0.0335,9.4189,2.4615,1.1811,-0.0299,0.0194,0.0504
0.9100,-0.2087,0.2241,-0.1151,9.4179,2.4670,1.1782,-0.0197,-0.0085,0.0498
0.9200,-0.2644,0.1821,-0.1544,9.4161,2.4739,1.1775,-0.0107,-0.0462,0.0384
0.9300,-0.3377,0.1189,-0.1381,9.4137,2.4820,1.1803,-0.0044,-0.0733,0.0105
0.9400,-0.2932,0.0939,-0.0726,9.4114,2.4879,1.1859,-0.0026,-0.0863,-0.0157
0.9500,-0.2293,0.0966,-0.0135,9.4098,2.4907,1.1930,-0.0038,-0.0869,-0.0393
0.9600,-0.1101,0.0754,0.0245,9.4087,2.4912,1.2005,-0.0024,-0.0686,-0.0495
0.9700,0.0324,0.0840,0.0690,9.4082,2.4898,1.2071,0.0015,-0.0454,-0.0530
0.9800,0.1322,0.1053,0.0987,9.4082,2.4876,1.2117,0.0058,-0.0250,-0.0457
0.9900,0.1942,0.1203,0.1181,9.4084,2.4853,1.2146,0.0088,-0.0059,-0.0300
1.0000,0.1805,0.1264,0.1414,9.4086,2.4840,1.2161,0.0080,0.0131,-0.0092
1.0100,0.1518,0.1238,0.1286,9.4085,2.4842,1.2161,0.0039,0.0308,0.0158
1.0200,0.1027,0.1160,0.0728,9.4081,2.4865,1.2145,0.0007,0.0398,0.0295
1.0300,0.0499,0.0961,0.0230,9.4074,2.4904,1.2116,-0.0026,0.0373,0.0348
1.0400,0.0044,0.0861,0.0173,9.4067,2.4948,1.2085,-0.0075,0.0275,0.0342
1.0500,-0.0418,0.0761,0.0335,9.4058,2.4993,1.2059,-0.0093,0.0298,0.0466
1.0600,-0.0640,0.0697,0.0253,9.4048,2.5041,1.2037,-0.0065,0.0259,0.0460
1.0700,-0.0891,0.0704,0.0237,9.4036,2.5098,1.2013,-0.0030,0.0253,0.0382
1.0800,-0.0857,0.0761,0.0663,9.4026,2.5145,1.1995,-0.0024,0.0316,0.0293
1.0900,-0.1088,0.0665,0.0836,9.4018,2.5185,1.1973,-0.0038,0.0475,0.0246
1.1000,-0.0900,0.0639,0.0324,9.4013,2.5218,1.1942,-0.0057,0.0587,0.0146
1.1100,-0.0834,0.0699,-0.0213,9.4011,2.5246,1.1897,-0.0083,0.0609,0.0063
1.1200,-0.0501,0.0625,-0.0169,9.4013,2.5264,1.1845,-0.0089,0.0508,-0.0021
1.1300,-0.0695,0.0287,-0.0344,9.4016,2.5275,1.1796,-0.0059,0.0367,-0.0131
1.1400,-0.0460,0.0288,-0.0532,9.4021,2.5275,1.1760,-0.0024,0.0269,-0.0170
1.1500,0.0244,0.0528,-0.0442,9.4027,2.5265,1.1735,-0.0006,0.0170,-0.0113
1.1600,0.0439,0.0496,-0.0169,9.4031,2.5258,1.1717,-0.0006,0.0092,0.0059
1.1700,0.0511,0.0484,0.0016,9.4031,2.5262,1.1707,0.0005,-0.0010,0.0223
1.1800,0.0508,0.0823,-0.0085,9.4026,2.5282,1.1705,0.0039,-0.0124,0.0384
1.1900,-0.0032,0.1156,0.0105,9.4015,2.5316,1.1714,0.0090,-0.0164,0.0462
1.2000,-0.0632,0.1365,0.0240,9.4001,2.5362,1.1731,0.0145,-0.0134,0.0488
1.2100,-0.1263,0.1667,0.0230,9.3985,2.5412,1.1749,0.0176,-0.0122,0.0354
1.2200,-0.1567,0.1739,0.0453,9.3970,2.5459,1.1766,0.0174,-0.0050,0.0189
1.2300,-0.1476,0.1601,0.0685,9.3959,2.5493,1.1781,0.0153,0.0060,0.0020
1.2400,-0.1134,0.1698,0.0536,9.3952,2.5516,1.1786,0.0084,0.0235,-0.0131
1.2500,-0.0645,0.1726,0.0247,9.3950,2.5528,1.1779,0.0009,0.0296,-0.0139
1.2600,-0.0198,0.1548,0.0324,9.3950,2.5538,1.1759,-0.0075,0.0182,-0.0100
1.2700,-0.0100,0.1300,0.0484,9.3947,2.5555,1.1742,-0.0171,0.0094,-0.0025
1.2800,0.0376,0.1056,0.0188,9.3942,2.5576,1.1735,-0.0240,-0.0057,0.0109
1.2900,0.0352,0.0658,0.0149,9.3934,2.5606,1.1735,-0.0295,-0.0209,0.0156
1.3000,0.0435,0.0256,0.0152,9.3923,2.5641,1.1748,-0.0321,-0.0256,0.0179
1.3100,0.0294,0.0018,-0.0186,9.3912,2.5672,1.1766,-0.0297,-0.0209,0.0215
1.3200,-0.0047,-0.0188,-0.0545,9.3902,2.5702,1.1782,-0.0230,-0.0177,0.0179
1.3300,-0.0349,-0.0469,-0.0723,9.3894,2.5728,1.1792,-0.0126,-0.0177,0.0004
1.3400,-0.0369,-0.0641,-0.0583,9.3889,2.5740,1.1804,-0.0010,-0.0183,-0.0104
1.3500,-0.0297,-0.0530,-0.0143,9.3889,2.5733,1.1819,0.0094,-0.0173,-0.0121
1.3600,-0.0090,-0.0279,0.0254,9.3890,2.5722,1.1837,0.0172,-0.0122,-0.0031
1.3700,0.0213,0.0216,0.0477,9.3890,2.5713,1.1854,0.0161,-0.0164,0.0010
1.3800,0.0223,0.0640,0.0939,9.3888,2.5712,1.1870,0.0076,-0.0177,0.0114
1.3900,0.0195,0.0986,0.1181,9.3884,2.5717,1.1891,-0.0040,-0.0162,0.0207
1.4000,-0.0149,0.1414,0.0790,9.3877,2.5736,1.1908,-0.0122,-0.0168,0.0232
1.4100,-0.0507,0.1604,0.0360,9.3868,2.5762,1.1922,-0.0142,-0.0136,0.0230
1.4200,-0.0737,0.1519,-0.0069,9.3858,2.5791,1.1936,-0.0122,-0.0097,0.0191
1.4300,-0.0632,0.1131,-0.0381,9.3849,2.5820,1.1945,-0.0063,-0.0050,0.0111
1.4400,-0.0186,0.0741,-0.0371,9.3842,2.5843,1.1951,-0.0006,0.0037,0.0044
1.4500,0.0321,0.0630,-0.0020,9.3838,2.5858,1.1951,0.0035,0.0088,0.0022
1.4600,0.0937,0.0788,0.0242,9.3836,2.5867,1.1944,0.0047,0.0019,-0.0037
1.4700,0.2303,0.0943,0.0254,9.3835,2.5872,1.1940,0.0007,-0.0370,-0.0265
1.4800,0.4106,0.0578,0.0402,9.3836,2.5861,1.1960,-0.0063,-0.0851,-0.0308
1.4900,0.5279,-0.0048,0.0769,9.3835,2.5833,1.2024,-0.0140,-0.1223,0.0083
1.5000,0.5849,-0.0232,0.0923,9.3824,2.5826,1.2125,-0.0134,-0.1455,0.0757
1.5100,0.4922,0.0469,0.1204,9.3794,2.5876,1.2251,0.0037,-0.1496,0.1480
1.5200,0.2290,0.2300,0.2230,9.3744,2.5992,1.2391,0.0302,-0.1372,0.1999
1.5300,0.0561,0.3254,0.3264,9.3678,2.6163,1.2530,0.0526,-0.1262,0.2127
1.5400,0.0530,0.3626,0.4127,9.3605,2.6358,1.2665,0.0558,-0.1427,0.1706
1.5500,0.2252,0.3266,0.4068,9.3535,2.6534,1.2811,0.0387,-0.1828,0.1209
1.5600,0.5433,0.1511,0.3607,9.3474,2.6661,1.2993,0.0119,-0.2311,0.1060
1.5700,1.0675,-0.0861,0.1593,9.3404,2.6779,1.3251,-0.0164,-0.3017,0.1225
1.5800,1.4348,-0.0228,-0.0916,9.3334,2.6888,1.3522,-0.0344,-0.3679,0.1608
1.5900,1.5602,0.0950,-0.1801,9.3241,2.7039,1.3856,-0.0252,-0.4287,0.2430
1.6000,1.4327,0.0028,-0.1019,9.3116,2.7266,1.4247,0.0139,-0.4412,0.3514
1.6100,1.1900,-0.0665,-0.0653,9.2957,2.7588,1.4659,0.0484,-0.4275,0.4662
1.6200,0.6609,-0.0873,-0.0618,9.2765,2.8011,1.5067,0.0692,-0.4103,0.5649
1.6300,-0.0712,-0.1835,-0.0259,9.2545,2.8519,1.5462,0.0771,-0.3560,0.6223
1.6400,-0.7413,-0.2339,-0.0100,9.2315,2.9071,1.5806,0.0686,-0.2613,0.6092
1.6500,-1.3151,-0.2524,0.0118,9.2103,2.9602,1.6055,0.0487,-0.1407,0.5075
1.6600,-1.5778,-0.3422,0.0059,9.1940,3.0034,1.6185,0.0310,-0.0124,0.3545
1.6700,-1.5200,-0.4269,-0.1078,9.1841,3.0330,1.6197,0.0224,0.0805,0.2017
1.6800,-1.3624,-0.3994,-0.2432,9.1798,3.0498,1.6126,0.0191,0.1269,0.0765
1.6900,-1.1350,-0.3108,-0.2966,9.1798,3.0557,1.6014,0.0148,0.1529,-0.0093
1.7000,-0.8409,-0.1956,-0.2638,9.1826,3.0543,1.5878,0.0020,0.1593,-0.0594
1.7100,-0.5676,-0.0235,-0.1737,9.1870,3.0486,1.5731,-0.0118,0.1358,-0.0747
1.7200,-0.3398,0.1400,-0.0376,9.1915,3.0419,1.5603,-0.0093,0.0854,-0.0567
1.7300,-0.2040,0.2469,0.1477,9.1945,3.0368,1.5521,0.0060,0.0191,-0.0130
1.7400,-0.1759,0.3558,0.2977,9.1952,3.0355,1.5506,0.0200,-0.0444,0.0478
1.7500,-0.2587,0.4857,0.3540,9.1930,3.0398,1.5554,0.0176,-0.0930,0.0958
1.7600,-0.4109,0.5664,0.3362,9.1884,3.0488,1.5648,-0.0060,-0.1074,0.1049
1.7700,-0.5049,0.5759,0.2983,9.1830,3.0596,1.5752,-0.0389,-0.0793,0.0698
1.7800,-0.4936,0.5480,0.2266,9.1789,3.0684,1.5823,-0.0673,-0.0206,0.0041
1.7900,-0.4299,0.4904,0.0938,9.1774,3.0722,1.5833,-0.0890,0.0478,-0.0701
1.8000,-0.3384,0.4078,-0.0727,9.1793,3.0698,1.5774,-0.1055,0.1116,-0.1370
1.8100,-0.2007,0.2973,-0.2386,9.1841,3.0617,1.5650,-0.1141,0.1672,-0.1856
1.8200,0.0436,0.1803,-0.3882,9.1912,3.0494,1.5470,-0.1122,0.2072,-0.2042
1.8300,0.3548,0.1298,-0.5122,9.1995,3.0354,1.5249,-0.1025,0.2036,-0.1898
1.8400,0.5504,0.0470,-0.5739,9.2075,3.0223,1.5029,-0.0845,0.1501,-0.1416
1.8500,0.5457,-0.1507,-0.5063,9.2133,3.0130,1.4856,-0.0557,0.0805,-0.0527
1.8600,0.3218,-0.3073,-0.3703,9.2158,3.0104,1.4752,-0.0273,0.0234,0.0655
1.8700,-0.0357,-0.3395,-0.2308,9.2142,3.0174,1.4710,-0.0050,-0.0014,0.1794
1.8800,-0.4530,-0.3048,-0.0991,9.2089,3.0341,1.4698,0.0136,0.0093,0.2537
1.8900,-0.8562,-0.2643,-0.0248,9.2015,3.0572,1.4685,0.0255,0.0533,0.2665
1.9000,-1.1590,-0.2225,0.0144,9.1942,3.0812,1.4640,0.0283,0.1229,0.2072
1.9100,-1.2861,-0.2004,0.0358,9.1896,3.0997,1.4534,0.0191,0.2030,0.0814
1.9200,-1.0938,-0.1405,-0.0276,9.1900,3.1069,1.4354,-0.0035,0.2848,-0.0848
1.9300,-0.6132,-0.0203,-0.1270,9.1967,3.0992,1.4091,-0.0356,0.3459,-0.2711
1.9400,-0.0517,0.0771,-0.1013,9.2098,3.0749,1.3762,-0.0560,0.3551,-0.3804
1.9500,0.4060,0.1458,-0.0108,9.2262,3.0409,1.3420,-0.0579,0.3245,-0.3621
1.9600,0.6519,0.1601,0.0231,9.2412,3.0086,1.3105,-0.0545,0.2928,-0.2790
1.9700,0.6854,0.1440,-0.0251,9.2532,2.9841,1.2821,-0.0432,0.2778,-0.1681
1.9800,0.5430,0.1358,-0.0786,9.2615,2.9695,1.2554,-0.0237,0.2656,-0.0615
1.9900,0.2866,0.1002,-0.0859,9.2665,2.9644,1.2303,-0.0069,0.2512,0.0136
2.0000,0.1248,0.0651,-0.0817,9.2691,2.9660,1.2070,0.0020,0.2509,0.0463
2.0100,0.1041,0.0942,-0.0646,9.2707,2.9704,1.1839,0.0041,0.2390,0.0432
2.0200,0.1362,0.1427,-0.0284,9.2721,2.9745,1.1620,-0.0002,0.1834,0.0133
2.0300,0.1860,0.1545,0.0795,9.2738,2.9759,1.1452,-0.0072,0.0948,-0.0301
2.0400,0.2093,0.1271,0.2583,9.2757,2.9734,1.1363,-0.0072,0.0053,-0.0667
2.0500,0.2073,0.0947,0.4431,9.2776,2.9675,1.1359,0.0057,-0.0680,-0.0735
2.0600,0.1785,0.0917,0.5857,9.2789,2.9609,1.1429,0.0197,-0.1040,-0.0521
2.0700,0.1138,0.1192,0.7194,9.2790,2.9561,1.1540,0.0267,-0.0942,-0.0234
2.0800,-0.0663,0.1440,0.8770,9.2783,2.9541,1.1652,0.0289,-0.0444,0.0078
2.0900,-0.3296,0.1539,0.9304,9.2770,2.9550,1.1729,0.0224,0.0432,0.0258
2.1000,-0.5716,0.1402,0.8102,9.2760,2.9579,1.1734,0.0032,0.1471,0.0166
2.1100,-0.7311,0.0670,0.5591,9.2763,2.9605,1.1647,-0.0264,0.2417,-0.0166
2.1200,-0.8374,-0.0121,0.2466,9.2785,2.9606,1.1468,-0.0582,0.3038,-0.0722
2.1300,-0.8564,-0.0780,-0.0861,9.2831,2.9559,1.1216,-0.0835,0.3315,-0.1397
2.1400,-0.7197,-0.1462,-0.4169,9.2900,2.9451,1.0920,-0.0994,0.3239,-0.2103
2.1500,-0.4665,-0.1840,-0.6582,9.2990,2.9277,1.0616,-0.1064,0.2793,-0.2802
2.1600,-0.1156,-0.2282,-0.8676,9.3096,2.9037,1.0340,-0.1061,0.1962,-0.3377
2.1700,0.1937,-0.2451,-0.9485,9.3212,2.8739,1.0132,-0.1013,0.1132,-0.3618
2.1800,0.5187,-0.1912,-0.9241,9.3326,2.8415,0.9995,-0.0973,0.0835,-0.3511
2.1900,0.8419,-0.0747,-0.9089,9.3433,2.8101,0.9879,-0.1006,0.0765,-0.3111
2.2000,0.9772,0.0451,-0.8438,9.3529,2.7824,0.9754,-0.1080,0.0606,-0.2433
2.2100,0.9528,0.0988,-0.7849,9.3605,2.7610,0.9633,-0.1077,0.0509,-0.1562
2.2200,0.7981,0.1242,-0.7103,9.3656,2.7476,0.9521,-0.0991,0.0600,-0.0609
2.2300,0.5226,0.1373,-0.6447,9.3682,2.7429,0.9404,-0.0884,0.0750,0.0237
2.2400,0.1739,0.1103,-0.5722,9.3685,2.7460,0.9277,-0.0762,0.0783,0.0835
2.2500,-0.1685,0.0383,-0.4635,9.3673,2.7545,0.9148,-0.0615,0.0716,0.1083
2.2600,-0.4035,-0.0263,-0.3832,9.3653,2.7653,0.9027,-0.0451,0.0548,0.0921
2.2700,-0.4904,-0.0953,-0.2903,9.3636,2.7744,0.8924,-0.0252,0.0255,0.0270
2.2800,-0.3621,-0.1928,-0.1228,9.3634,2.7774,0.8854,-0.0041,-0.0047,-0.0509
2.2900,-0.1076,-0.2456,0.0586,9.3650,2.7727,0.8823,0.0130,-0.0341,-0.1025
2.3000,0.1243,-0.2813,0.2024,9.3678,2.7629,0.8834,0.0273,-0.0619,-0.1297
2.3100,0.3473,-0.3344,0.3409,9.3711,2.7502,0.8885,0.0386,-0.0820,-0.1263
2.3200,0.4712,-0.3445,0.4957,9.3740,2.7375,0.8965,0.0484,-0.0893,-0.0896
2.3300,0.4634,-0.2824,0.6527,9.3759,2.7280,0.9060,0.0570,-0.0771,-0.0310
2.3400,0.3684,-0.1368,0.7406,9.3763,2.7237,0.9150,0.0591,-0.0573,0.0286
2.3500,0.2246,0.0669,0.7077,9.3752,2.7248,0.9228,0.0548,-0.0356,0.0728
2.3600,0.0987,0.2555,0.5698,9.3731,2.7300,0.9290,0.0490,-0.0191,0.0924
2.3700,0.0164,0.3642,0.3781,9.3704,2.7374,0.9339,0.0487,-0.0142,0.0866
2.3800,-0.0196,0.3794,0.2380,9.3677,2.7450,0.9391,0.0573,-0.0162,0.0517
2.3900,-0.0270,0.3662,0.1935,9.3663,2.7486,0.9421,0.0634,-0.0189,0.0250
2.4000,-0.0331,0.3054,0.0854,9.3648,2.7520,0.9477,0.0655,-0.0286,-0.0224
2.4100,-0.0607,0.2346,-0.0027,9.3649,2.7498,0.9532,0.0542,-0.0460,-0.0564
2.4200,-0.0268,0.1429,-0.0045,9.3657,2.7445,0.9598,0.0392,-0.0799,-0.0845
2.4300,0.1263,0.0440,0.0019,9.3670,2.7369,0.9690,0.0212,-0.1260,-0.0997
2.4400,0.3620,0.0148,-0.0851,9.3683,2.7278,0.9817,0.0069,-0.1688,-0.0881
2.4500,0.6690,0.0001,-0.2006,9.3690,2.7197,0.9978,0.0157,-0.2182,-0.0573
2.4600,0.8612,-0.0292,-0.2537,9.3683,2.7143,1.0186,0.0515,-0.2833,-0.0060
2.4700,0.9035,-0.0341,-0.2443,9.3656,2.7132,1.0463,0.1013,-0.3474,0.0628
2.4800,0.8489,-0.0028,-0.1629,9.3603,2.7179,1.0811,0.1523,-0.4042,0.1358
2.4900,0.5899,0.0822,-0.0041,9.3523,2.7286,1.1222,0.1941,-0.4546,0.2051
2.5000,0.1648,0.1877,0.2184,9.3417,2.7452,1.1690,0.2149,-0.4675,0.2527
2.5100,-0.0611,0.2197,0.3218,9.3294,2.7659,1.2177,0.2030,-0.4406,0.2301
2.5200,-0.4648,0.3481,0.3344,9.3176,2.7847,1.2638,0.1666,-0.4049,0.1263
2.5300,-0.9253,0.4975,0.2613,9.3089,2.7945,1.3057,0.1272,-0.3691,-0.0255
2.5400,-0.7138,0.4469,0.0430,9.3045,2.7913,1.3433,0.0961,-0.3526,-0.2005
2.5500,-0.1312,0.3704,-0.0146,9.3048,2.7732,1.3781,0.0710,-0.3691,-0.3450
2.5600,0.4039,0.3384,0.1117,9.3085,2.7429,1.4134,0.0496,-0.3584,-0.3871
2.5700,0.6158,0.3387,0.1715,9.3133,2.7091,1.4470,0.0322,-0.2637,-0.3147
2.5800,0.5375,0.3326,0.2821,9.3174,2.6817,1.4716,0.0154,-0.1034,-0.1791
2.5900,0.4604,0.3143,0.4076,9.3202,2.6665,1.4814,0.0072,0.0903,-0.0331
2.6000,0.1403,0.5062,0.2303,9.3219,2.6650,1.4732,0.0084,0.2732,0.0664
2.6100,-0.1797,0.6882,0.0697,9.3234,2.6733,1.4482,0.0163,0.3932,0.0845
2.6200,-0.8021,0.8760,0.0371,9.3257,2.6842,1.4126,0.0014,0.4751,0.0221
2.6300,-1.5895,1.1289,-0.0381,9.3302,2.6911,1.3693,-0.0420,0.5279,-0.0680
2.6400,-1.8791,1.2834,-0.1232,9.3373,2.6909,1.3203,-0.0774,0.5301,-0.1538
2.6500,-2.0930,1.4373,-0.2919,9.3465,2.6832,1.2700,-0.0893,0.5032,-0.2595
2.6600,-2.1382,1.5215,-0.5008,9.3582,2.6648,1.2215,-0.0732,0.4638,-0.3984
2.6700,-2.1018,1.5676,-0.5780,9.3733,2.6318,1.1766,-0.0399,0.4250,-0.5585
2.6800,-1.9028,1.4474,-0.6379,9.3921,2.5820,1.1358,-0.0032,0.4146,-0.6975
2.6900,-1.4567,1.1465,-0.7856,9.4142,2.5178,1.0968,0.0255,0.4467,-0.7918
2.7000,-0.8177,0.9739,-0.9811,9.4383,2.4438,1.0553,0.0512,0.5350,-0.8392
2.7100,-0.3055,0.8343,-1.1124,9.4636,2.3655,1.0058,0.0765,0.5909,-0.8355
2.7200,-0.0009,0.9929,-0.9512,9.4882,2.2884,0.9512,0.0753,0.5368,-0.7790
2.7300,0.9603,1.5527,-0.8088,9.5098,2.2182,0.9010,0.0875,0.3184,-0.6391
2.7400,1.4180,1.6722,-0.7749,9.5250,2.1645,0.8707,0.1520,-0.1019,-0.4611
2.7500,0.9847,1.5974,-0.7717,9.5321,2.1292,0.8807,0.1831,-0.4525,-0.2479
2.7600,0.9971,1.8406,-0.7474,9.5317,2.1123,0.9246,0.1431,-0.6242,-0.0212
2.7700,0.8984,2.1168,-0.4935,9.5251,2.1150,0.9844,0.1116,-0.7503,0.1003
2.7800,0.4899,2.0048,-0.2217,9.5145,2.1276,1.0561,0.1431,-0.7931,0.1290
2.7900,0.3727,1.5297,0.1109,9.5025,2.1418,1.1329,0.2060,-0.7359,0.0967
2.8000,0.5455,1.0013,0.5588,9.4913,2.1518,1.2057,0.2494,-0.6712,-0.0111
2.8100,0.9851,0.3894,0.9759,9.4827,2.1508,1.2734,0.2262,-0.6504,-0.2133
2.8200,1.7245,-0.2028,1.4993,9.4783,2.1302,1.3390,0.1235,-0.6715,-0.4852
2.8300,2.7197,-0.7080,2.0450,9.4791,2.0835,1.4050,-0.0502,-0.6437,-0.7295
2.8400,3.5962,-1.1376,1.7683,9.4848,2.0151,1.4650,-0.2824,-0.5136,-0.8737
2.8500,3.9062,-1.4300,1.1218,9.4944,1.9364,1.5082,-0.4895,-0.2469,-0.9354
2.8600,3.9162,-1.4443,0.6275,9.5084,1.8549,1.5224,-0.5741,0.1541,-0.9186
2.8700,3.7140,-1.3751,0.3043,9.5274,1.7762,1.4973,-0.5212,0.5744,-0.8654
2.8800,3.5350,-1.3852,0.1838,9.5508,1.7013,1.4334,-0.3841,0.9494,-0.8273
2.8900,3.4004,-1.1463,0.1051,9.5777,1.6275,1.3362,-0.2311,1.1446,-0.7647
2.9000,3.1629,-0.6390,0.4485,9.6045,1.5572,1.2227,-0.1324,1.0450,-0.6403
2.9100,3.2868,-0.0104,1.0801,9.6266,1.4972,1.1202,-0.1358,0.6770,-0.4717
2.9200,3.4891,0.3520,1.4633,9.6410,1.4532,1.0530,-0.2250,0.1290,-0.2937
2.9300,3.7732,0.7862,1.4958,9.6466,1.4272,1.0373,-0.3276,-0.4067,-0.1254
2.9400,4.1528,1.1971,1.1667,9.6441,1.4186,1.0719,-0.3838,-0.7457,0.0050
2.9500,4.1815,1.1432,0.4503,9.6357,1.4233,1.1383,-0.3713,-0.8395,0.0628
2.9600,4.1252,1.0898,0.0360,9.6250,1.4337,1.2138,-0.2485,-0.6813,0.0075
2.9700,3.6597,0.8394,-0.1649,9.6164,1.4375,1.2758,-0.0982,-0.3816,-0.1153
2.9800,3.0249,0.3931,-0.3067,9.6132,1.4277,1.3111,0.0002,-0.0780,-0.2448
2.9900,2.8968,-0.0023,-0.1263,9.6156,1.4042,1.3186,0.0890,0.1846,-0.3761
3.0000,3.0400,-0.2475,0.1381,9.6232,1.3668,1.3020,0.1532,0.3523,-0.4873
3.0100,3.1415,-0.2717,0.2621,9.6343,1.3179,1.2702,0.1578,0.3984,-0.5567
3.0200,3.3628,-0.2136,0.2698,9.6464,1.2623,1.2338,0.1061,0.3202,-0.5734
3.0300,3.7564,-0.1151,0.1533,9.6574,1.2056,1.2042,0.0338,0.1504,-0.5362
3.0400,3.7722,0.0102,0.0801,9.6656,1.1534,1.1901,-0.0228,-0.0224,-0.4614
3.0500,3.3518,0.1251,0.2840,9.6705,1.1091,1.1920,-0.0493,-0.0988,-0.3893
3.0600,2.7155,0.2831,0.5779,9.6736,1.0720,1.2010,-0.0628,-0.0402,-0.3517
3.0700,2.1401,0.4995,0.7004,9.6768,1.0388,1.2042,-0.0814,0.1364,-0.3505
3.0800,1.9720,0.7132,0.5205,9.6820,1.0058,1.1902,-0.1220,0.4198,-0.3942
3.0900,2.0686,0.8721,0.2846,9.6908,0.9690,1.1483,-0.1437,0.6626,-0.4339
3.1000,2.1302,0.9640,0.2832,9.7023,0.9286,1.0827,-0.1037,0.7848,-0.3920
3.1100,2.1064,1.0237,0.3699,9.7140,0.8916,1.0055,-0.0310,0.8535,-0.2647
3.1200,1.9403,1.1521,0.3813,9.7246,0.8662,0.9223,0.0426,0.8493,-0.0732
3.1300,1.6293,1.3176,0.3367,9.7327,0.8587,0.8401,0.1058,0.7598,0.1544
3.1400,1.2175,1.3800,0.1823,9.7375,0.8729,0.7670,0.1532,0.6031,0.3722
3.1500,0.7435,1.2838,-0.0752,9.7386,0.9081,0.7096,0.1834,0.4232,0.5200
3.1600,0.3288,1.0717,-0.3170,9.7367,0.9574,0.6701,0.1981,0.2674,0.5698
3.1700,0.1303,0.8319,-0.5802,9.7329,1.0116,0.6461,0.1917,0.1602,0.5441
3.1800,0.1613,0.5731,-0.7785,9.7283,1.0633,0.6324,0.1541,0.0878,0.4830
3.1900,0.2570,0.2793,-0.7572,9.7236,1.1093,0.6256,0.0848,0.0619,0.4522
3.2000,0.2952,-0.0610,-0.5475,9.7188,1.1528,0.6205,0.0237,0.0878,0.4931
3.2100,0.1832,-0.3231,-0.2938,9.7136,1.2006,0.6122,-0.0179,0.1202,0.5793
3.2200,0.0016,-0.4310,-0.1561,9.7072,1.2570,0.6002,-0.0612,0.1367,0.6858
3.2300,-0.1867,-0.4847,-0.2066,9.6991,1.3239,0.5860,-0.0991,0.1278,0.8077
3.2400,-0.2938,-0.5500,-0.2727,9.6889,1.4023,0.5720,-0.1205,0.0997,0.9424
3.2500,-0.6640,-0.5925,-0.2366,9.6761,1.4927,0.5598,-0.1242,0.0719,1.0722
3.2600,-1.2757,-0.5965,-0.1344,9.6605,1.5937,0.5498,-0.1235,0.0530,1.1660
3.2700,-1.6825,-0.6299,-0.0173,9.6424,1.7025,0.5416,-0.1348,0.0619,1.1981
3.2800,-1.8505,-0.7433,0.0479,9.6224,1.8147,0.5327,-0.1626,0.0982,1.1544
3.2900,-1.8312,-0.8918,0.1097,9.6019,1.9237,0.5200,-0.2005,0.1290,1.0585
3.3000,-1.8639,-1.0624,0.2002,9.5820,2.0249,0.5037,-0.2341,0.1565,0.9601
3.3100,-1.9419,-1.2856,0.2200,9.5629,2.1176,0.4839,-0.2524,0.2262,0.9061
3.3200,-2.0287,-1.4560,0.1525,9.5444,2.2054,0.4568,-0.2531,0.2912,0.9183
3.3300,-2.1637,-1.5602,0.1489,9.5250,2.2941,0.4233,-0.2399,0.2879,0.9733
3.3400,-2.3708,-1.6359,0.2693,9.5034,2.3876,0.3903,-0.2201,0.2411,1.0395
3.3500,-2.5905,-1.6515,0.3777,9.4790,2.4871,0.3621,-0.2005,0.1739,1.1046
3.3600,-2.7929,-1.6239,0.4053,9.4515,2.5924,0.3405,-0.1868,0.0927,1.1519
3.3700,-2.9459,-1.6423,0.3795,9.4213,2.7017,0.3268,-0.1779,0.0041,1.1663
3.3800,-2.9437,-1.7430,0.2627,9.3892,2.8120,0.3215,-0.1758,-0.0881,1.1474
3.3900,-2.8315,-1.8283,0.1122,9.3560,2.9201,0.3247,-0.1822,-0.1825,1.1150
3.4000,-2.7307,-1.9283,0.1210,9.3223,3.0248,0.3363,-0.1831,-0.2515,1.1113
3.4100,-2.6813,-2.0586,0.1846,9.2872,3.1288,0.3541,-0.1764,-0.2634,1.1507
3.4200,-2.9011,-2.1204,0.3382,9.2496,3.2361,0.3729,-0.1822,-0.1578,1.1941
3.4300,-3.2718,-2.0793,0.5307,9.2097,3.3470,0.3815,-0.2008,0.0026,1.1889
3.4400,-3.4840,-2.0050,0.5246,9.1693,3.4570,0.3744,-0.2243,0.1287,1.1309
3.4500,-3.5824,-1.9500,0.3683,9.1301,3.5613,0.3548,-0.2485,0.2280,1.0377
3.4600,-3.5482,-1.8946,0.0736,9.0934,3.6567,0.3250,-0.2616,0.2750,0.9143
3.4700,-3.3799,-1.8372,-0.2341,9.0605,3.7406,0.2904,-0.2579,0.2634,0.7796
3.4800,-3.0891,-1.7899,-0.3621,9.0318,3.8118,0.2568,-0.2350,0.2030,0.6562
3.4900,-2.6382,-1.7934,-0.2797,9.0071,3.8716,0.2295,-0.1999,0.1104,0.5664
3.5000,-2.3040,-1.7730,-0.0573,8.9853,3.9230,0.2117,-0.1742,-0.0005,0.5261
3.5100,-2.2341,-1.7583,0.0896,8.9645,3.9705,0.2049,-0.1739,-0.0863,0.5337
3.5200,-2.1970,-1.7466,0.0972,8.9430,4.0187,0.2057,-0.1938,-0.1193,0.5686
3.5300,-2.2061,-1.6625,0.0848,8.9198,4.0699,0.2085,-0.2149,-0.1309,0.5985
3.5400,-2.3154,-1.5858,0.0365,8.8950,4.1236,0.2113,-0.2329,-0.1416,0.5957
3.5500,-2.3754,-1.5279,0.0168,8.8699,4.1771,0.2142,-0.2442,-0.1431,0.5499
3.5600,-2.2742,-1.4718,0.0384,8.8465,4.2263,0.2166,-0.2488,-0.1382,0.4580
3.5700,-2.0126,-1.4230,0.0415,8.8268,4.2673,0.2183,-0.2546,-0.1184,0.3297
3.5800,-1.6461,-1.3561,0.0200,8.8140,4.2938,0.2164,-0.2634,-0.0719,0.1877
3.5900,-1.2608,-1.2678,-0.0049,8.8058,4.3109,0.2114,-0.2818,-0.0267,0.0502
3.6000,-0.9379,-1.1994,-0.0282,8.8020,4.3191,0.2030,-0.3053,0.0069,-0.0622
3.6100,-0.5947,-1.1251,-0.0527,8.8047,4.3142,0.1892,-0.3224,0.0396,-0.1336
3.6200,-0.2545,-1.0194,-0.0282,8.8105,4.3030,0.1718,-0.3236,0.0438,-0.1623
3.6300,-0.1239,-0.9337,0.0578,8.8175,4.2892,0.1540,-0.3117,0.0060,-0.1538
3.6400,-0.0682,-0.9051,0.1316,8.8241,4.2761,0.1402,-0.2989,-0.0380,-0.1168
3.6500,0.0142,-0.8796,0.1314,8.8291,4.2662,0.1308,-0.2854,-0.0942,-0.0579
3.6600,-0.0348,-0.8186,0.0814,8.8314,4.2615,0.1269,-0.2689,-0.1596,-0.0053
3.6700,-0.1139,-0.7849,0.0548,8.8315,4.2613,0.1295,-0.2479,-0.2030,0.0283
3.6800,-0.1483,-0.7758,0.1109,8.8300,4.2642,0.1369,-0.2222,-0.2204,0.0576
3.6900,-0.2522,-0.7211,0.2362,8.8273,4.2693,0.1469,-0.1953,-0.2082,0.0796
3.7000,-0.4332,-0.6547,0.3445,8.8239,4.2760,0.1571,-0.1721,-0.1730,0.0912
3.7100,-0.6664,-0.6239,0.3747,8.8202,4.2834,0.1652,-0.1599,-0.1211,0.0896
3.7200,-0.8603,-0.5762,0.3108,8.8165,4.2908,0.1692,-0.1562,-0.0786,0.0942
3.7300,-1.0215,-0.6034,0.2900,8.8126,4.2988,0.1697,-0.1468,-0.0890,0.1345
3.7400,-1.2037,-0.5625,0.1866,8.8068,4.3107,0.1713,-0.1294,-0.1248,0.1565
3.7500,-1.2889,-0.3730,0.0674,8.7998,4.3246,0.1768,-0.1135,-0.1226,0.1205
3.7600,-1.2571,-0.2270,0.0580,8.7944,4.3354,0.1826,-0.0997,-0.0680,0.0179
3.7700,-1.1162,-0.2060,0.0527,8.7935,4.3372,0.1843,-0.0799,0.0783,-0.2390
3.7800,-0.6562,-0.2174,0.0044,8.8039,4.3163,0.1739,-0.0515,0.2659,-0.4992
3.7900,0.0881,-0.1531,-0.0657,8.8258,4.2724,0.1483,-0.0414,0.3370,-0.5881
3.8000,0.5835,-0.1682,-0.0438,8.8512,4.2204,0.1168,-0.0673,0.2378,-0.5551
3.8100,0.5958,-0.2639,-0.0597,8.8748,4.1713,0.0932,-0.1016,0.0744,-0.4406
3.8200,0.4812,-0.2884,-0.1417,8.8940,4.1303,0.0843,-0.1077,-0.0368,-0.3049
3.8300,0.4480,-0.2661,-0.1841,8.9025,4.1120,0.0836,-0.1003,-0.0747,-0.2409
3.8400,0.4721,-0.1843,-0.1878,8.9146,4.0856,0.0860,-0.0790,-0.0936,-0.1736
3.8500,0.5703,-0.0702,-0.0983,8.9219,4.0697,0.0911,-0.0564,-0.0405,-0.1804
3.8600,0.6537,0.0015,0.0094,8.9294,4.0531,0.0923,-0.0457,0.0157,-0.1987
3.8700,0.7064,0.0413,0.0642,8.9377,4.0348,0.0890,-0.0454,0.0435,-0.2097
3.8800,0.7121,0.0545,0.0280,8.9464,4.0156,0.0833,-0.0557,0.0405,-0.2121
3.8900,0.7573,0.0212,0.0063,8.9551,3.9963,0.0775,-0.0634,0.0414,-0.2103
3.9000,0.7762,0.0212,0.0245,8.9637,3.9771,0.0713,-0.0582,0.0670,-0.1972
3.9100,0.7120,0.0739,0.0208,8.9717,3.9592,0.0630,-0.0521,0.0973,-0.1611
3.9200,0.6443,0.1197,-0.0224,8.9782,3.9444,0.0523,-0.0484,0.1083,-0.1040
3.9300,0.5371,0.1472,-0.0611,8.9825,3.9349,0.0407,-0.0392,0.0854,-0.0374
3.9400,0.3512,0.1759,-0.0663,8.9841,3.9314,0.0316,-0.0249,0.0353,0.0279
3.9500,0.0985,0.2106,-0.0454,8.9831,3.9337,0.0274,-0.0121,-0.0264,0.0829
3.9600,-0.0707,0.2104,-0.0114,8.9798,3.9411,0.0294,-0.0023,-0.0863,0.1165
3.9700,-0.1810,0.1868,0.0600,8.9752,3.9516,0.0370,0.0084,-0.1339,0.1208
3.9800,-0.3521,0.2143,0.1602,8.9704,3.9624,0.0493,0.0182,-0.1526,0.1031
3.9900,-0.4736,0.2182,0.2224,8.9662,3.9717,0.0638,0.0191,-0.1452,0.0762
4.0000,-0.5171,0.1656,0.2336,8.9629,3.9787,0.0776,0.0105,-0.1287,0.0347
4.0100,-0.5286,0.1429,0.2191,8.9612,3.9823,0.0897,0.0038,-0.1046,-0.0151
4.0200,-0.4150,0.0586,0.1937,8.9614,3.9816,0.0996,0.0063,-0.0655,-0.0502
4.0300,-0.2036,-0.0357,0.1704,8.9631,3.9778,0.1061,0.0105,-0.0215,-0.0673
4.0400,-0.0814,-0.0567,0.1437,8.9654,3.9724,0.1089,0.0090,0.0041,-0.0762
4.0500,-0.0495,-0.0982,0.0535,8.9682,3.9661,0.1093,0.0041,0.0093,-0.0826
4.0600,0.0491,-0.1570,-0.0875,8.9713,3.9590,0.1090,0.0050,-0.0020,-0.0909
4.0700,0.1905,-0.2089,-0.1431,8.9748,3.9510,0.1096,0.0136,-0.0362,-0.0994
4.0800,0.2177,-0.2263,-0.0907,8.9787,3.9421,0.1134,0.0267,-0.0747,-0.0924
4.0900,0.2010,-0.2120,-0.0517,8.9823,3.9338,0.1211,0.0396,-0.0875,-0.0625
4.1000,0.1759,-0.1727,-0.0443,8.9846,3.9281,0.1305,0.0521,-0.0838,-0.0231
4.1100,0.0397,-0.1070,-0.0263,8.9855,3.9257,0.1400,0.0722,-0.0835,0.0176
4.1200,-0.1607,-0.0496,-0.0054,8.9848,3.9270,0.1503,0.0924,-0.0826,0.0472
4.1300,-0.3048,-0.0152,0.0148,8.9829,3.9309,0.1612,0.1049,-0.0780,0.0560
4.1400,-0.4138,0.0171,0.0157,8.9806,3.9357,0.1723,0.1135,-0.0814,0.0426
4.1500,-0.4826,0.0351,0.0040,8.9788,3.9393,0.1840,0.1177,-0.0933,0.0084
4.1600,-0.4318,0.0177,0.0317,8.9782,3.9399,0.1969,0.1193,-0.1034,-0.0356
4.1700,-0.2234,-0.0222,0.0623,8.9793,3.9367,0.2106,0.1159,-0.1077,-0.0841
4.1800,-0.0144,-0.0437,0.0796,8.9822,3.9295,0.2244,0.1025,-0.1034,-0.1287
4.1900,0.0804,-0.0659,0.0631,8.9868,3.9182,0.2374,0.0805,-0.0805,-0.1538
4.2000,0.1070,-0.0797,-0.0033,8.9924,3.9045,0.2475,0.0588,-0.0438,-0.1535
4.2100,0.0761,-0.0696,-0.1087,8.9982,3.8908,0.2535,0.0438,-0.0163,-0.1388
4.2200,0.0050,-0.0740,-0.2372,9.0035,3.8784,0.2563,0.0368,-0.0075,-0.1202
4.2300,-0.0726,-0.0658,-0.3197,9.0080,3.8678,0.2574,0.0420,-0.0185,-0.0985
4.2400,-0.0762,-0.0440,-0.3544,9.0117,3.8592,0.2586,0.0564,-0.0417,-0.0799
4.2500,-0.0335,-0.0098,-0.3339,9.0145,3.8525,0.2609,0.0710,-0.0728,-0.0689
4.2600,-0.0047,0.0197,-0.2949,9.0167,3.8469,0.2649,0.0811,-0.1162,-0.0631
4.2700,-0.0353,0.0222,-0.3328,9.0186,3.8420,0.2718,0.0845,-0.1666,-0.0576
4.2800,-0.1097,0.0107,-0.3638,9.0200,3.8380,0.2812,0.0884,-0.2121,-0.0564
4.2900,-0.1348,-0.0372,-0.3907,9.0212,3.8344,0.2925,0.0976,-0.2479,-0.0701
4.3000,-0.1495,-0.1009,-0.4221,9.0227,3.8299,0.3048,0.1034,-0.2842,-0.0878
4.3100,-0.2200,-0.1568,-0.3748,9.0249,3.8235,0.3185,0.1019,-0.3096,-0.0924
4.3200,-0.2990,-0.2215,-0.3340,9.0274,3.8164,0.3340,0.0921,-0.3209,-0.0866
4.3300,-0.2655,-0.2491,-0.3048,9.0298,3.8093,0.3503,0.0747,-0.3413,-0.0735
4.3400,-0.0135,-0.2402,-0.1924,9.0316,3.8027,0.3744,0.0622,-0.3758,-0.0551
4.3500,0.3532,-0.1713,0.0378,9.0324,3.7974,0.4075,0.0628,-0.4134,-0.0313
4.3600,0.5868,0.0118,0.3448,9.0322,3.7938,0.4440,0.0735,-0.4513,0.0145
4.3700,0.4646,0.2174,0.6461,9.0299,3.7941,0.4851,0.0805,-0.4837,0.0747
4.3800,0.1009,0.3156,0.7586,9.0249,3.8000,0.5307,0.0722,-0.4931,0.1229
4.3900,-0.2628,0.2811,0.6302,9.0175,3.8106,0.5776,0.0570,-0.4785,0.1370
4.4000,-0.5133,0.1614,0.4485,9.0094,3.8226,0.6229,0.0484,-0.4326,0.1086
4.4100,-0.5853,0.0381,0.2879,9.0025,3.8321,0.6638,0.0496,-0.3532,0.0512
4.4200,-0.5438,-0.0609,0.1739,8.9980,3.8366,0.6975,0.0594,-0.2634,-0.0206
4.4300,-0.4181,-0.1163,0.2137,8.9968,3.8345,0.7236,0.0762,-0.1877,-0.0817
4.4400,-0.2378,-0.0631,0.4667,8.9985,3.8268,0.7436,0.0878,-0.1431,-0.1144
4.4500,-0.0781,0.0708,0.7673,9.0016,3.8162,0.7602,0.0774,-0.1269,-0.1180
4.4600,0.0527,0.1988,0.8559,9.0048,3.8055,0.7757,0.0261,-0.1315,-0.1013
4.4700,0.1211,0.2084,0.6456,9.0071,3.7971,0.7909,-0.0347,-0.1495,-0.0869
4.4800,0.1413,0.0593,0.2724,9.0084,3.7906,0.8062,-0.0603,-0.1648,-0.0841
4.4900,0.2742,-0.1572,-0.0493,9.0096,3.7844,0.8214,-0.0447,-0.1709,-0.0841
4.5000,0.3781,-0.2929,-0.1699,9.0111,3.7777,0.8367,0.0038,-0.1761,-0.0790
4.5100,0.3060,-0.3001,-0.1267,9.0125,3.7705,0.8533,0.0631,-0.1565,-0.0634
4.5200,0.2116,-0.2781,0.0374,9.0136,3.7641,0.8700,0.1138,-0.0936,-0.0454
4.5300,0.1759,-0.2213,0.2675,9.0146,3.7587,0.8829,0.1394,-0.0231,-0.0383
4.5400,0.1517,-0.1084,0.4550,9.0160,3.7536,0.8906,0.1327,0.0267,-0.0396
4.5500,0.1127,0.0322,0.5152,9.0179,3.7483,0.8938,0.0951,0.0518,-0.0417
4.5600,0.1190,0.1403,0.4350,9.0200,3.7431,0.8938,0.0435,0.0502,-0.0451
4.5700,0.1731,0.1787,0.3096,9.0222,3.7383,0.8923,-0.0032,0.0029,-0.0518
4.5800,0.2035,0.1799,0.2224,9.0241,3.7334,0.8933,-0.0228,-0.0542,-0.0524
4.5900,0.1829,0.1343,0.1848,9.0255,3.7288,0.8986,-0.0130,-0.0811,-0.0365
4.6000,0.1130,0.0656,0.1302,9.0260,3.7256,0.9065,0.0047,-0.0948,-0.0118
4.6100,0.0129,0.0093,0.0848,9.0255,3.7245,0.9160,0.0224,-0.0945,0.0127
4.6200,-0.0515,-0.0252,0.0963,9.0241,3.7254,0.9260,0.0353,-0.0768,0.0283
4.6300,-0.0198,0.0121,0.2217,9.0223,3.7276,0.9347,0.0399,-0.0472,0.0264
4.6400,0.0392,0.1370,0.4260,9.0208,3.7296,0.9410,0.0325,-0.0130,0.0099
4.6500,0.0422,0.2537,0.5353,9.0202,3.7303,0.9443,0.0096,0.0166,-0.0136
4.6600,0.0202,0.2847,0.5170,9.0206,3.7292,0.9447,-0.0200,0.0356,-0.0356
4.6700,0.0262,0.2357,0.4027,9.0218,3.7267,0.9428,-0.0402,0.0414,-0.0475
4.6800,0.0713,0.1347,0.1841,9.0234,3.7235,0.9400,-0.0463,0.0264,-0.0530
4.6900,0.0911,0.0235,0.0017,9.0251,3.7199,0.9381,-0.0365,-0.0218,-0.0441
4.7000,0.0876,-0.0859,-0.0747,9.0262,3.7167,0.9402,-0.0163,-0.0707,-0.0182
4.7100,0.1204,-0.1903,-0.0933,9.0258,3.7158,0.9480,0.0017,-0.0930,0.0121
4.7200,0.1532,-0.2432,-0.0764,9.0241,3.7171,0.9586,0.0118,-0.1009,0.0368
4.7300,0.1578,-0.2507,-0.0713,9.0218,3.7199,0.9692,0.0099,-0.0884,0.0447
4.7400,0.2151,-0.2154,-0.0205,9.0196,3.7229,0.9782,-0.0005,-0.0594,0.0417
4.7500,0.2681,-0.1457,0.0741,9.0181,3.7250,0.9841,-0.0105,-0.0270,0.0338
4.7600,0.2353,-0.0712,0.1384,9.0174,3.7259,0.9868,-0.0221,-0.0023,0.0249
4.7700,0.1025,-0.0258,0.1453,9.0174,3.7260,0.9872,-0.0432,0.0115,0.0228
4.7800,-0.0424,-0.0453,0.1276,9.0174,3.7263,0.9857,-0.0619,0.0170,0.0182
4.7900,-0.1096,-0.0755,0.1049,9.0175,3.7267,0.9833,-0.0658,0.0118,0.0093
4.8000,-0.1350,-0.0826,0.0817,9.0178,3.7265,0.9813,-0.0539,-0.0105,0.0063
4.8100,-0.1470,-0.0906,0.0191,9.0179,3.7262,0.9817,-0.0325,-0.0451,0.0102
4.8200,-0.1118,-0.1004,-0.0410,9.0174,3.7264,0.9855,-0.0078,-0.0799,0.0185
4.8300,-0.0580,-0.0870,-0.0101,9.0162,3.7273,0.9929,0.0218,-0.1129,0.0331
4.8400,-0.0822,-0.0985,0.0780,9.0141,3.7294,1.0041,0.0475,-0.1364,0.0539
4.8500,-0.1558,-0.1261,0.1583,9.0110,3.7329,1.0184,0.0594,-0.1455,0.0744
4.8600,-0.2344,-0.1217,0.1929,9.0071,3.7382,1.0341,0.0573,-0.1486,0.0835
4.8700,-0.2815,-0.1134,0.2391,9.0027,3.7442,1.0501,0.0435,-0.1443,0.0741
4.8800,-0.2691,-0.0852,0.2943,8.9986,3.7496,1.0656,0.0212,-0.1202,0.0499
4.8900,-0.2194,-0.0743,0.2730,8.9957,3.7530,1.0786,0.0002,-0.0793,0.0160
4.9000,-0.1531,-0.1133,0.1714,8.9957,3.7506,1.0870,-0.0061,-0.0507,-0.0101
4.9100,-0.1130,-0.1381,0.1149,8.9968,3.7471,1.0899,-0.0042,-0.0451,-0.0179
4.9200,-0.0729,-0.1629,0.0584,8.9978,3.7436,1.0928,-0.0022,-0.0395,-0.0257
4.9300,-0.0328,-0.1877,0.0019,8.9989,3.7402,1.0956,-0.0003,-0.0339,-0.0336
4.9400,-0.0067,-0.2063,-0.0696,9.0009,3.7342,1.1003,0.0035,-0.0405,-0.0328
4.9500,-0.0439,-0.1924,-0.0850,9.0021,3.7299,1.1049,0.0084,-0.0597,-0.0255
4.9600,-0.0531,-0.1743,-0.0899,9.0029,3.7261,1.1110,0.0197,-0.0701,-0.0292
4.9700,-0.4011,-0.1199,-0.0479,9.0037,3.7219,1.1181,0.0356,-0.0738,-0.0341
4.9800,-0.4461,-0.0474,0.1764,9.0045,3.7177,1.1260,0.0451,-0.0466,-0.0451
4.9900,-0.3348,-0.0102,0.4780,9.0057,3.7129,1.1321,0.0341,-0.0518,-0.0881
5.0000,-0.2153,0.0592,0.5629,9.0083,3.7045,1.1394,0.0069,-0.0478,-0.1434
5.0100,0.2942,0.1136,0.4614,9.0124,3.6920,1.1475,-0.0170,0.0218,-0.1810
5.0200,0.4548,0.1373,0.4078,9.0182,3.6767,1.1508,-0.0310,0.0796,-0.1923
5.0300,0.5260,0.1173,0.4156,9.0247,3.6608,1.1503,-0.0338,0.1321,-0.1474
