time,seconds_elapsed,z,y,x
1759348060892973000,0.04297314453125,-0.010136524215340614,-0.025241874158382416,0.02917153388261795
1759348060903032000,0.053031982421875,-0.009846588596701622,-0.016771581023931503,-0.0012445845641195774
1759348060913091000,0.063091064453125,-0.0036853658966720104,-0.006760758347809315,-0.026207726448774338
1759348060923148800,0.073148681640625,0.0016071866266429424,-0.004750821739435196,-0.035388749092817307
1759348060933208000,0.0832080078125,0.006645354442298412,-0.008858215063810349,-0.026234131306409836
1759348060943265800,0.093265869140625,0.011533176526427269,-0.011132392100989819,-0.0072625852189958096
1759348060953325000,0.103324951171875,0.013541998341679573,-0.00912676565349102,0.008993083611130714
1759348060963383000,0.113383056640625,0.013069606386125088,-0.004681367892771959,0.023601016029715538
1759348060973441800,0.12344189453125,0.008112665265798569,0.00006758110976079479,0.024141371250152588
1759348060983501000,0.1335009765625,0.002922491170465946,-0.003276602830737829,0.018292926251888275
1759348060993558800,0.143558837890625,-0.0008354955352842808,-0.005843624006956816,0.010221951641142368
1759348061003618000,0.1536181640625,-0.00472261430695653,-0.006314097438007593,0.0004880274645984173
1759348061013676000,0.163676025390625,-0.0042134178802371025,-0.0006588749238289893,-0.007248987909406424
1759348061023735000,0.173735107421875,0.002329702489078045,0.0047406842932105064,-0.008152065798640251
1759348061033794000,0.1837939453125,0.004056557081639767,0.004741963930428028,-0.005615812260657549
1759348061043851800,0.193851806640625,0.008248311467468739,0.004499934613704681,-0.0028451853431761265
1759348061053911000,0.2039111328125,0.007088771089911461,0.006982000544667244,-0.004374905023723841
1759348061063969000,0.213968994140625,0.003155035898089409,0.010001704096794128,-0.005197257734835148
1759348061074028000,0.224028076171875,-0.00017604557797312737,0.009719409048557281,-0.007658285088837147
1759348061084086800,0.234086669921875,-0.001784379594027996,0.006621567998081446,-0.006366346031427383
1759348061094145000,0.24414501953125,-0.0018850471824407578,0.001430534408427775,-0.001803819090127945
1759348061104204000,0.2542041015625,-0.005093863233923912,-0.00251211691647768,0.0015062042511999607
1759348061114261800,0.26426171875,-0.0031297816894948483,-0.004653831012547016,0.006574998609721661
1759348061124321000,0.274321044921875,-0.004776231478899717,-0.005819121841341257,0.01377043779939413
1759348061134379800,0.2843798828125,-0.00637439452111721,-0.005891026929020882,0.02210693061351776
1759348061144438000,0.29443798828125,-0.010463647544384003,-0.010271287523210049,0.038085028529167175
1759348061154497000,0.3044970703125,-0.010139008052647114,-0.013299301266670227,0.04738212376832962
1759348061164554800,0.3145546875,-0.0075466870330274105,-0.016182439401745796,0.048184268176555634
1759348061174614000,0.324614013671875,0.0010649105533957481,-0.022632881999015808,0.04110585153102875
1759348061184672000,0.334672119140625,0.010944351553916931,-0.029604878276586533,0.027086332440376282
1759348061194731000,0.34473095703125,0.020942391827702522,-0.028581159189343452,0.013823791407048702
1759348061204789800,0.354789794921875,0.025267597287893295,-0.01871207170188427,0.0032500973902642727
1759348061214848000,0.364847900390625,0.02103317156434059,-0.003887319238856435,0.0031821869779378176
1759348061224907000,0.374906982421875,0.0193161740899086,0.010801613330841064,0.005395364016294479
1759348061234964700,0.38496484375,0.0149813462048769,0.016356701031327248,0.01199094858020544
1759348061245024000,0.39502392578125,0.013511133380234241,0.018233908340334892,0.01734846457839012
1759348061255082800,0.405082763671875,0.015095979906618595,0.01996336691081524,0.017176691442728043
1759348061265141000,0.41514111328125,0.019055886194109917,0.021581821143627167,0.012503070756793022
1759348061275200000,0.425199951171875,0.023210683837532997,0.02623835764825344,0.0015910342335700989
1759348061285258000,0.435258056640625,0.030388470739126205,0.030595876276493073,-0.013600822538137436
1759348061295317000,0.44531689453125,0.03691188246011734,0.032587919384241104,-0.02861519157886505
1759348061305376000,0.4553759765625,0.040195029228925705,0.038078028708696365,-0.04038796201348305
1759348061315434000,0.46543408203125,0.04092952981591225,0.04738923907279968,-0.04563199356198311
1759348061325492700,0.47549267578125,0.038360267877578735,0.05521009489893913,-0.04813816025853157
1759348061335551000,0.485551025390625,0.031682658940553665,0.05724554881453514,-0.04506407678127289
1759348061345610000,0.49560986328125,0.02524767816066742,0.05669906362891197,-0.049118392169475555
1759348061355668000,0.50566796875,0.019271278753876686,0.05163000151515007,-0.055372294038534164
1759348061365727000,0.51572705078125,0.011034484021365643,0.04791435971856117,-0.05936143919825554
1759348061375786000,0.525785888671875,0.005372337996959686,0.041966188699007034,-0.05835822597146034
1759348061385844000,0.535843994140625,-0.0020075563807040453,0.03660934790968895,-0.0469944141805172
1759348061395903000,0.545903076171875,-0.012720388360321522,0.02764727734029293,-0.0260222889482975
1759348061405961000,0.5559609375,-0.01647266373038292,0.010886885225772858,0.0012900615110993385
1759348061416020000,0.56602001953125,-0.014423894695937634,-0.007933407090604305,0.030140884220600128
1759348061426079000,0.576078857421875,-0.013270840048789978,-0.025063445791602135,0.059348780661821365
1759348061436137000,0.586136962890625,-0.014378980733454227,-0.0326707661151886,0.07948281615972519
1759348061446196000,0.596196044921875,-0.006424788851290941,-0.03664116561412811,0.08645729720592499
1759348061456254000,0.60625390625,0.007923257537186146,-0.03919833153486252,0.08467697352170944
1759348061466313000,0.61631298828125,0.022477488964796066,-0.04779954254627228,0.07086972892284393
1759348061476372000,0.6263720703125,0.03435572236776352,-0.05840691179037094,0.0551924966275692
1759348061486430000,0.636429931640625,0.04396342858672142,-0.058596957474946976,0.03812094032764435
1759348061496489000,0.646489013671875,0.04558023065328598,-0.050094813108444214,0.01731099933385849
1759348061506547000,0.656546875,0.049019381403923035,-0.0289439894258976,-0.0033313375897705555
1759348061516606000,0.66660595703125,0.05464637279510498,0.0011675733840093017,-0.02055400051176548
1759348061526664000,0.676663818359375,0.05668984726071358,0.03407875820994377,-0.032903414219617844
1759348061536723000,0.686722900390625,0.055307935923337936,0.06280840933322906,-0.043504394590854645
1759348061546782000,0.696781982421875,0.046632688492536545,0.0815727710723877,-0.05544228106737137
1759348061556840000,0.70683984375,0.04514824226498604,0.09780766814947128,-0.07387907803058624
1759348061566899000,0.71689892578125,0.04289437085390091,0.11084271967411041,-0.0977075919508934
1759348061576956700,0.726956787109375,0.03423723578453064,0.12052677571773529,-0.1207018494606018
1759348061587016000,0.737015869140625,0.03575625270605087,0.126779243350029,-0.14232060313224792
1759348061597074700,0.74707470703125,0.0384625568985939,0.14180053770542145,-0.15614454448223114
1759348061607133000,0.7571328125,0.04095799848437309,0.1579589992761612,-0.15806850790977478
1759348061617191700,0.767191650390625,0.04967692121863365,0.16564328968524933,-0.15237733721733093
1759348061627249700,0.777249755859375,0.06129936873912811,0.16401326656341553,-0.13627158105373383
1759348061637309000,0.787308837890625,0.07726794481277466,0.1477930098772049,-0.11100057512521744
1759348061647366700,0.79736669921875,0.08096885681152344,0.12614567577838898,-0.07678278535604477
1759348061657426000,0.807426025390625,0.08023648709058762,0.09840378910303116,-0.04624965041875839
1759348061667484700,0.817484619140625,0.06752977520227432,0.06668325513601303,-0.021887656301259995
1759348061677543000,0.82754296875,0.05411490052938461,0.04137922823429108,-0.0066258786246180534
1759348061687602000,0.837601806640625,0.03269050270318985,0.043923716992139816,0.0007118536159396172
1759348061697659600,0.84765966796875,0.03177570551633835,0.036218926310539246,-0.011862527579069138
1759348061707719000,0.857718994140625,0.03536083176732063,0.034795258194208145,-0.0335601307451725
1759348061717777700,0.867777587890625,0.05887015536427498,0.06833430379629135,-0.05455276370048523
1759348061727836000,0.8778359375,0.061018332839012146,0.12371309101581573,-0.0752652958035469
1759348061737894700,0.887894775390625,0.05262485146522522,0.11317656189203262,-0.0813351720571518
1759348061747953000,0.897952880859375,0.04322517290711403,0.07355932146310806,-0.0928032323718071
1759348061758012000,0.908011962890625,0.03720429912209511,0.025433072820305824,-0.09108709543943405
1759348061768071000,0.91807080078125,0.03817072883248329,-0.01745671033859253,-0.07694031298160553
1759348061778129000,0.92812890625,0.034942176192998886,-0.054858945310115814,-0.05610746517777443
1759348061788187600,0.938187744140625,0.02502770721912384,-0.09411473572254181,-0.026787305250763893
1759348061798246000,0.948245849609375,0.017034228891134262,-0.10273352265357971,-0.002791957464069128
1759348061808305000,0.958304931640625,-0.0024906606413424015,-0.06145245209336281,0.005798542872071266
1759348061818362600,0.968362548828125,-0.019575905054807663,-0.004831783473491669,0.003967086784541607
1759348061828422000,0.978421875,-0.0362013578414917,0.03851686418056488,-0.008707495406270027
1759348061838480600,0.988480712890625,-0.048746977001428604,0.04109560325741768,-0.0194858405739069
1759348061848539000,0.998538818359375,-0.05008938908576965,0.014679281041026115,-0.027138061821460724
1759348061858597600,1.00859765625,-0.0481460802257061,-0.024515526369214058,-0.03300287574529648
1759348061868655900,1.01865576171875,-0.04038824141025543,-0.061492934823036194,-0.029481681063771248
1759348061878715000,1.02871484375,-0.026630353182554245,-0.07910788059234619,-0.030625244602560997
1759348061888774000,1.03877392578125,-0.01849048025906086,-0.07783398032188416,-0.03084644302725792
1759348061898832000,1.048831787109375,-0.012038439512252808,-0.05281464755535126,-0.029749222099781036
1759348061908890600,1.058890625,-0.012850506231188774,-0.023962387815117836,-0.033471595495939255
1759348061918948900,1.068948974609375,-0.02011880651116371,-0.009583448991179466,-0.03697578236460686
1759348061929007900,1.0790078125,-0.0343121774494648,-0.009720602072775364,-0.04242318868637085
1759348061939065900,1.08906591796875,-0.05672294273972511,-0.023664912208914757,-0.047688521444797516
1759348061949124900,1.099124755859375,-0.08656715601682663,-0.03910336270928383,-0.051010482013225555
1759348061959184000,1.109183837890625,-0.10559677332639694,-0.05894923955202103,-0.060397591441869736
1759348061969241900,1.119241943359375,-0.12089116871356964,-0.06032252311706543,-0.08139606565237045
1759348061979300900,1.12930078125,-0.13594521582126617,-0.03192230686545372,-0.11356119066476822
1759348061989358800,1.13935888671875,-0.13729619979858398,0.03468233719468117,-0.15664726495742798
1759348061999417900,1.14941796875,-0.1376599818468094,0.10365607589483261,-0.19370009005069733
1759348062009476900,1.159476806640625,-0.136904776096344,0.14529694616794586,-0.21123430132865906
1759348062019534800,1.169534912109375,-0.13307645916938782,0.15676158666610718,-0.21347668766975403
1759348062029593900,1.17959375,-0.1270800232887268,0.13342580199241638,-0.19454225897789001
1759348062039651800,1.18965185546875,-0.12202906608581543,0.1096070185303688,-0.1694749891757965
1759348062049710800,1.1997109375,-0.11555368453264236,0.10882079601287842,-0.14973010122776031
1759348062059768800,1.209768798828125,-0.10192149877548218,0.13648304343223572,-0.14314809441566467
1759348062069827800,1.219827880859375,-0.08038546144962311,0.17014935612678528,-0.1578148752450943
1759348062079886800,1.229886962890625,-0.05529315769672394,0.18977685272693634,-0.18530988693237305
1759348062089944800,1.23994482421875,-0.04527296870946884,0.22826005518436432,-0.22206328809261322
1759348062100003800,1.25000390625,-0.039933331310749054,0.2683164179325104,-0.2542949914932251
1759348062110061800,1.260061767578125,-0.03730553388595581,0.298685759305954,-0.27531808614730835
1759348062120120800,1.270120849609375,-0.05411141365766525,0.31251290440559387,-0.2846817672252655
1759348062130179800,1.280179931640625,-0.08124484121799469,0.307572603225708,-0.2872227132320404
1759348062140237800,1.29023779296875,-0.0995388925075531,0.2951052784919739,-0.28291556239128113
1759348062150296800,1.300296875,-0.10930023342370987,0.2736852765083313,-0.2855927050113678
1759348062160354800,1.310354736328125,-0.12470448762178421,0.26178306341171265,-0.30070561170578003
1759348062170413800,1.320413818359375,-0.1270458996295929,0.3021739721298218,-0.32491785287857056
1759348062180471800,1.330471923828125,-0.12755483388900757,0.3857865631580353,-0.3407929539680481
1759348062190530800,1.34053076171875,-0.12118034809827805,0.4859427511692047,-0.3449660539627075
1759348062200589800,1.35058984375,-0.11539676040410995,0.527434229850769,-0.34679457545280457
1759348062210647800,1.360647705078125,-0.1262093037366867,0.5166114568710327,-0.340838223695755
1759348062220706800,1.370706787109375,-0.13751868903636932,0.46429577469825745,-0.3102254569530487
1759348062230764800,1.380764892578125,-0.16235387325286865,0.37819597125053406,-0.2551558017730713
1759348062240823800,1.39082373046875,-0.2197769582271576,0.3746081590652466,-0.21615512669086456
1759348062250882800,1.4008828125,-0.25920507311820984,0.43547311425209045,-0.19420801103115082
1759348062260940800,1.41094091796875,-0.27555713057518005,0.4969782829284668,-0.21319608390331268
1759348062270999800,1.420999755859375,-0.29124554991722107,0.5414600968360901,-0.26171156764030457
1759348062281057800,1.431057861328125,-0.32953619956970215,0.5337156653404236,-0.31444376707077026
1759348062291116800,1.44111669921875,-0.3976469337940216,0.451122522354126,-0.3769010603427887
1759348062301174800,1.4511748046875,-0.45933106541633606,0.3454267084598541,-0.4343497157096863
1759348062311233800,1.46123388671875,-0.4725635349750519,0.2252233624458313,-0.4857812225818634
1759348062321292800,1.471292724609375,-0.37717708945274353,0.010304132476449013,-0.4901061952114105
1759348062331350800,1.481350830078125,-0.32364004850387573,-0.0476640947163105,-0.5348646640777588
1759348062341410000,1.49141015625,-0.27471724152565,0.07912154495716095,-0.6200016736984253
1759348062351467800,1.5014677734375,-0.26319876313209534,0.36886826157569885,-0.7391625046730042
1759348062361526800,1.51152685546875,-0.23671284317970276,0.5808111429214478,-0.857902467250824
1759348062371584800,1.521584716796875,-0.19890554249286652,0.6297011971473694,-0.9551893472671509
1759348062381643800,1.531643798828125,-0.1428113877773285,0.5167440176010132,-0.995006263256073
1759348062391702800,1.541702880859375,-0.12211572378873825,0.3767114281654358,-0.9985840916633606
1759348062401760800,1.5517607421875,-0.11192194372415543,0.2323683500289917,-0.9676288962364197
1759348062411820000,1.561820068359375,-0.1472746878862381,0.09695817530155182,-0.9331480264663696
1759348062421877800,1.571877685546875,-0.19447575509548187,-0.006778074894100428,-0.8890231847763062
1759348062431936800,1.581936767578125,-0.23844066262245178,-0.06781501322984695,-0.8495341539382935
1759348062441995000,1.5919951171875,-0.2870739996433258,-0.1490214616060257,-0.809600293636322
1759348062452053800,1.6020537109375,-0.3484686613082886,-0.25108101963996887,-0.796032726764679
1759348062462113000,1.612113037109375,-0.41542959213256836,-0.36224162578582764,-0.7878666520118713
1759348062472170800,1.622170654296875,-0.48387622833251953,-0.4188498556613922,-0.8003841638565063
1759348062482229800,1.632229736328125,-0.5703139305114746,-0.37663236260414124,-0.8240567445755005
1759348062492288000,1.6422880859375,-0.6489043235778809,-0.3200637102127075,-0.8239341974258423
1759348062502346800,1.6523466796875,-0.694385826587677,-0.31574299931526184,-0.8055381178855896
1759348062512405800,1.66240576171875,-0.7196915745735168,-0.3280586898326874,-0.7896715998649597
1759348062522463700,1.672463623046875,-0.7621898055076599,-0.3346361517906189,-0.791810154914856
1759348062532523000,1.68252294921875,-0.8025407791137695,-0.33772245049476624,-0.8110901117324829
1759348062542580700,1.692580810546875,-0.8335444927215576,-0.3317737281322479,-0.835747480392456
1759348062552640300,1.70264013671875,-0.8392900824546814,-0.3235686421394348,-0.8596935868263245
1759348062562698200,1.7126982421875,-0.8360764384269714,-0.3033115565776825,-0.8732983469963074
1759348062572757200,1.72275732421875,-0.8298543691635132,-0.30854085087776184,-0.8741461038589478
1759348062582816000,1.73281591796875,-0.8166970014572144,-0.3517826199531555,-0.8706320524215698
1759348062592874000,1.7428740234375,-0.8020007610321045,-0.3923281133174896,-0.8589345812797546
1759348062602933200,1.752933349609375,-0.7866087555885315,-0.4279726445674896,-0.8486694097518921
1759348062612991000,1.762990966796875,-0.7868126630783081,-0.4476035535335541,-0.8377225399017334
1759348062623050200,1.77305029296875,-0.8218755722045898,-0.48074233531951904,-0.8236983418464661
1759348062633108200,1.783108154296875,-0.8636744618415833,-0.5338779091835022,-0.805158257484436
1759348062643167200,1.793167236328125,-0.8831464648246765,-0.5928200483322144,-0.8009076118469238
1759348062653226200,1.803226318359375,-0.8832662105560303,-0.6080148816108704,-0.7956796884536743
1759348062663284000,1.813283935546875,-0.8814270496368408,-0.5879367589950562,-0.7968022227287292
1759348062673343200,1.82334326171875,-0.8900282979011536,-0.5645047426223755,-0.8021174669265747
1759348062683401200,1.833401123046875,-0.9205433130264282,-0.566858172416687,-0.8026189208030701
1759348062693460200,1.843460205078125,-0.9990502595901489,-0.6030689477920532,-0.7994676828384399
1759348062703518200,1.853518310546875,-1.1044025421142578,-0.6776264905929565,-0.7861718535423279
1759348062713577200,1.8635771484375,-1.1982238292694092,-0.7555556297302246,-0.7736399173736572
1759348062723636200,1.87363623046875,-1.2680976390838623,-0.7946359515190125,-0.7594175338745117
1759348062733694000,1.88369384765625,-1.3140451908111572,-0.8234134912490845,-0.7342352271080017
1759348062743753200,1.893753173828125,-1.3202509880065918,-0.8229900002479553,-0.6980457901954651
1759348062753811200,1.903811279296875,-1.3184478282928467,-0.8018959760665894,-0.6691052913665771
1759348062763870200,1.9138701171875,-1.3246591091156006,-0.7791656255722046,-0.6456305980682373
1759348062773928200,1.92392822265625,-1.3659789562225342,-0.7705056071281433,-0.6263323426246643
1759348062783987000,1.933987060546875,-1.43472421169281,-0.8278003334999084,-0.5983582139015198
1759348062794046200,1.944046142578125,-1.4857397079467773,-0.9318350553512573,-0.5706354379653931
1759348062804104200,1.954104248046875,-1.4911669492721558,-1.0142987966537476,-0.5666851997375488
1759348062814163200,1.9641630859375,-1.4438613653182983,-1.0206152200698853,-0.585776150226593
1759348062824221200,1.97422119140625,-1.3316831588745117,-0.9574781060218811,-0.6255302429199219
1759348062834280200,1.9842802734375,-1.1873595714569092,-0.8559179306030273,-0.6740342974662781
1759348062844338200,1.994338134765625,-1.0416040420532227,-0.732582688331604,-0.7263036370277405
1759348062854397200,2.004397216796875,-0.9154958724975586,-0.6245266795158386,-0.7701442837715149
1759348062864455200,2.014455078125,-0.8452792167663574,-0.5611721873283386,-0.793523371219635
1759348062874514200,2.02451416015625,-0.8250470161437988,-0.5255410075187683,-0.8086544275283813
1759348062884573200,2.0345732421875,-0.8391623497009277,-0.520485520362854,-0.8291144371032715
1759348062894631200,2.044631103515625,-0.8513336777687073,-0.5566679239273071,-0.8523939847946167
1759348062904690200,2.054690185546875,-0.8616992235183716,-0.6262952089309692,-0.8722947239875793
1759348062914748200,2.064748046875,-0.8716856837272644,-0.7102551460266113,-0.8894801735877991
1759348062924807200,2.07480712890625,-0.8918924331665039,-0.8022758960723877,-0.9039310216903687
1759348062934865200,2.084865234375,-0.9079466462135315,-0.8741017580032349,-0.9020196795463562
1759348062944924200,2.094924072265625,-0.9491239190101624,-0.9224578142166138,-0.8976097702980042
1759348062954983200,2.104983154296875,-0.9640861749649048,-0.9324504137039185,-0.882432758808136
1759348062965041200,2.115041259765625,-0.9472347497940063,-0.9071693420410156,-0.8761245608329773
1759348062975100200,2.12510009765625,-0.8907538652420044,-0.8566863536834717,-0.8691046237945557
1759348062985158100,2.135158203125,-0.8071988224983215,-0.8022143244743347,-0.8620712161064148
1759348062995217200,2.145217041015625,-0.7045605182647705,-0.7189257740974426,-0.8662925362586975
1759348063005275100,2.155275146484375,-0.5985994338989258,-0.6240330934524536,-0.8762644529342651
1759348063015334100,2.165334228515625,-0.4996229112148285,-0.5565280914306641,-0.8813266754150391
1759348063025393200,2.17539306640625,-0.48328813910484314,-0.5218140482902527,-0.896261990070343
1759348063035451100,2.185451171875,-0.5099713206291199,-0.5287476778030396,-0.9250927567481995
1759348063045510100,2.19551025390625,-0.5526180863380432,-0.569822371006012,-0.9637040495872498
1759348063055568100,2.205568115234375,-0.603588342666626,-0.5936725735664368,-0.9942970871925354
1759348063065627100,2.215627197265625,-0.5940585136413574,-0.5711776614189148,-0.999850332736969
1759348063075685400,2.225685302734375,-0.5132322907447815,-0.5359169244766235,-0.9795766472816467
1759348063085744000,2.235744140625,-0.40985605120658875,-0.5595474243164062,-0.9177068471908569
1759348063095802000,2.245802001953125,-0.30409926176071167,-0.5832749605178833,-0.831304132938385
1759348063105861000,2.255861083984375,-0.2217889428138733,-0.5928463339805603,-0.7398149967193604
1759348063115920100,2.265920166015625,-0.13208931684494019,-0.5693300366401672,-0.6486873626708984
1759348063125978000,2.27597802734375,-0.0682578831911087,-0.5212581157684326,-0.5852090716362
1759348063136037000,2.286037109375,-0.037668418139219284,-0.47358450293540955,-0.5456369519233704
1759348063146095400,2.296095458984375,-0.03760876506567001,-0.44217199087142944,-0.5188135504722595
1759348063156154000,2.306154052734375,-0.05040283128619194,-0.4477734863758087,-0.4936386048793793
1759348063166212000,2.316212158203125,-0.06998798251152039,-0.4878987967967987,-0.45581239461898804
1759348063176271000,2.32627099609375,-0.06736309081315994,-0.5263022780418396,-0.41746312379837036
1759348063186329000,2.3363291015625,-0.04000842943787575,-0.530829668045044,-0.3723185658454895
1759348063196388400,2.346388427734375,0.014289908111095428,-0.48826807737350464,-0.31839612126350403
1759348063206447000,2.356447021484375,0.0879950225353241,-0.41042786836624146,-0.2602126896381378
1759348063216505000,2.366505126953125,0.16249671578407288,-0.32954147458076477,-0.210805281996727
1759348063226564000,2.376564208984375,0.20357757806777954,-0.297029584646225,-0.18386155366897583
1759348063236622000,2.3866220703125,0.20698633790016174,-0.3026663362979889,-0.19175149500370026
1759348063246681000,2.39668115234375,0.1991044580936432,-0.3684176504611969,-0.21818923950195312
1759348063256739000,2.406739013671875,0.20656555891036987,-0.45167434215545654,-0.2678992450237274
1759348063266798300,2.41679833984375,0.22951319813728333,-0.538245439529419,-0.32834872603416443
1759348063276857000,2.426857177734375,0.26230308413505554,-0.5902080535888672,-0.38419294357299805
1759348063286915000,2.4369150390625,0.3043956756591797,-0.5919873118400574,-0.4099518358707428
1759348063296974000,2.44697412109375,0.29709509015083313,-0.5809118151664734,-0.3966173827648163
1759348063307032000,2.457031982421875,0.22998449206352234,-0.585495114326477,-0.34845173358917236
1759348063317091300,2.46709130859375,0.13816797733306885,-0.5664159655570984,-0.28819650411605835
1759348063327149000,2.477149169921875,0.08204559236764908,-0.5155091285705566,-0.2220611721277237
1759348063337208300,2.487208251953125,0.08502558618783951,-0.41498157382011414,-0.17067985236644745
1759348063347266300,2.497266357421875,0.1260819435119629,-0.2644951343536377,-0.12375308573246002
1759348063357325000,2.507324951171875,0.16623440384864807,-0.07011616230010986,-0.06168297678232193
1759348063367383300,2.51738330078125,0.1776694655418396,0.1392357349395752,0.03206720948219299
1759348063377442000,2.527442138671875,0.16497427225112915,0.3389872908592224,0.15325765311717987
1759348063387501300,2.537501220703125,0.13338065147399902,0.4967156648635864,0.3023931086063385
1759348063397559000,2.54755908203125,0.11830577254295349,0.6068488955497742,0.45921823382377625
1759348063407618000,2.5576181640625,0.13319072127342224,0.6857314705848694,0.5898604393005371
1759348063417676300,2.56767626953125,0.17246420681476593,0.7613150477409363,0.6619556546211243
1759348063427735000,2.577735107421875,0.21916833519935608,0.8574490547180176,0.6765844225883484
1759348063437793300,2.587793212890625,0.24091790616512299,0.9916075468063354,0.6253620982170105
1759348063447852000,2.59785205078125,0.2357361912727356,1.1041239500045776,0.5266914963722229
1759348063457910000,2.607909912109375,0.21153467893600464,1.1337374448776245,0.41047167778015137
1759348063467969300,2.61796923828125,0.17034143209457397,1.0626232624053955,0.2900962829589844
1759348063478028000,2.628028076171875,0.12863026559352875,0.8916710019111633,0.16362029314041138
1759348063488086300,2.638086181640625,0.08786419779062271,0.641987144947052,0.05155819654464722
1759348063498145000,2.64814501953125,0.06784418225288391,0.3720790445804596,-0.03267526254057884
1759348063508203300,2.658203369140625,0.06819252669811249,0.14667870104312897,-0.0768592357635498
1759348063518262300,2.66826220703125,0.1225862130522728,0.041998282074928284,-0.10880701243877411
1759348063528320000,2.678320068359375,0.20179635286331177,0.04258790612220764,-0.12423444539308548
1759348063538379300,2.688379150390625,0.15256895124912262,0.039500948041677475,-0.11531588435173035
1759348063548437000,2.69843701171875,-0.011422909796237946,0.009442913345992565,-0.07994218170642853
1759348063558496000,2.70849609375,-0.173946350812912,-0.04114523530006409,-0.036923304200172424
1759348063568554000,2.718553955078125,-0.2523077428340912,-0.10556656867265701,-0.007753703743219376
1759348063578612700,2.72861279296875,-0.24497289955615997,-0.17212246358394623,0.000485442578792572
1759348063588672000,2.738672119140625,-0.22054345905780792,-0.21952460706233978,-0.012863120064139366
1759348063598729700,2.748729736328125,-0.21197737753391266,-0.21527135372161865,-0.04766932129859924
1759348063608789000,2.7587890625,-0.2058715522289276,-0.14698392152786255,-0.09815965592861176
1759348063618847000,2.768846923828125,-0.20262417197227478,-0.06812972575426102,-0.1392488330602646
1759348063628906000,2.778906005859375,-0.2297830879688263,-0.06993002444505692,-0.1378336399793625
1759348063638964000,2.7889638671875,-0.28841307759284973,-0.16951246559619904,-0.09213608503341675
1759348063649022700,2.799022705078125,-0.3170207440853119,-0.3023586869239807,-0.03644432872533798
1759348063659081000,2.8090810546875,-0.2881985008716583,-0.4021676778793335,0.0011953888460993767
1759348063669140000,2.819139892578125,-0.23584261536598206,-0.41897356510162354,0.020832207053899765
1759348063679198000,2.829197998046875,-0.1761903315782547,-0.34353968501091003,0.01634000614285469
1759348063689257000,2.839257080078125,-0.13205616176128387,-0.21516254544258118,-0.0010901172645390034
1759348063699316000,2.84931591796875,-0.09225238114595413,-0.080309197306633,-0.018464190885424614
1759348063709374000,2.8593740234375,-0.05885554477572441,0.021643269807100296,-0.02428186684846878
1759348063719432700,2.8694326171875,-0.046882227063179016,0.06787784397602081,-0.008234953507781029
1759348063729491000,2.879490966796875,-0.04514770954847336,0.060795433819293976,0.026809316128492355
1759348063739550000,2.889550048828125,-0.03172365576028824,0.03661993891000748,0.05965273082256317
1759348063749607700,2.899607666015625,-0.006465968210250139,0.01960686594247818,0.08011939376592636
1759348063759667000,2.9096669921875,0.03447234630584717,0.028674723580479622,0.0797826498746872
1759348063769725000,2.919724853515625,0.07525599747896194,0.07357189059257507,0.055572379380464554
1759348063779784000,2.929783935546875,0.09992605447769165,0.14420177042484283,0.017207220196723938
1759348063789842000,2.939842041015625,0.10730727016925812,0.20644225180149078,-0.024030763655900955
1759348063799901000,2.94990087890625,0.08212782442569733,0.22514747083187103,-0.048422835767269135
1759348063809960000,2.9599599609375,0.02889469638466835,0.19402018189430237,-0.06065766513347626
1759348063820018000,2.970017822265625,-0.021851390600204468,0.12338825315237045,-0.06308923661708832
1759348063830077000,2.980076904296875,-0.03223372623324394,0.0499316081404686,-0.055187370628118515
1759348063840135000,2.990135009765625,-0.01870565488934517,0.004948355257511139,-0.04155869781970978
1759348063850194000,3.00019384765625,-0.009649042040109634,-0.010324607603251934,-0.02099083736538887
1759348063860252000,3.010251953125,-0.01784679666161537,-0.016155797988176346,0.0028929770924150944
1759348063870311000,3.020310791015625,-0.03374027460813522,-0.033968351781368256,0.015011956915259361
1759348063880369000,3.030368896484375,-0.0384109690785408,-0.06531379371881485,0.0071909124962985516
1759348063890428000,3.040427978515625,-0.03949407488107681,-0.12103857100009918,-0.021836210042238235
1759348063900486000,3.05048583984375,-0.053102850914001465,-0.18228106200695038,-0.05454167723655701
1759348063910545000,3.060544921875,-0.08522030711174011,-0.23266513645648956,-0.07199843227863312
1759348063920603000,3.070602783203125,-0.11608143150806427,-0.2742331326007843,-0.06685636192560196
1759348063930662000,3.080661865234375,-0.1240895539522171,-0.30298247933387756,-0.04592099040746689
1759348063940721000,3.090720947265625,-0.11599236726760864,-0.32127073407173157,-0.022040387615561485
1759348063950779000,3.10077880859375,-0.09738326072692871,-0.34196189045906067,-0.011583220213651657
1759348063960838000,3.110837890625,-0.08880884945392609,-0.37871482968330383,-0.021726882085204124
1759348063970896100,3.120896240234375,-0.09157081693410873,-0.4024289548397064,-0.043516334146261215
1759348063980955000,3.130954833984375,-0.08788003027439117,-0.3905467987060547,-0.0754479169845581
1759348063991012900,3.141012939453125,-0.055994801223278046,-0.358366996049881,-0.10543883591890335
1759348064001071900,3.15107177734375,-0.023564474657177925,-0.33031514286994934,-0.11658114939928055
1759348064011129900,3.1611298828125,-0.004301831126213074,-0.32968902587890625,-0.11269932240247726
1759348064021188900,3.17118896484375,0.004531874321401119,-0.34696149826049805,-0.10143841803073883
1759348064031246800,3.181246826171875,0.012184200808405876,-0.35681891441345215,-0.08952316641807556
1759348064041306000,3.19130615234375,0.013651167973876,-0.3354763090610504,-0.08237040042877197
1759348064051363800,3.20136376953125,0.020707212388515472,-0.27581536769866943,-0.07961056381464005
1759348064061422800,3.2114228515625,0.022759679704904556,-0.18614469468593597,-0.07307455688714981
1759348064071481000,3.221481201171875,0.029207725077867508,-0.08041907846927643,-0.05714459717273712
1759348064081539800,3.231539794921875,0.041967716068029404,0.02084343321621418,-0.025806590914726257
1759348064091599000,3.24159912109375,0.04686340317130089,0.10455350577831268,0.019499637186527252
1759348064101656800,3.25165673828125,0.03842609375715256,0.17170533537864685,0.07016604393720627
1759348064111715800,3.2617158203125,0.037078533321619034,0.22794543206691742,0.10835471004247665
1759348064121774000,3.271774169921875,0.038946732878685,0.2732889652252197,0.1265893429517746
1759348064131832800,3.281832763671875,0.039605867117643356,0.30173206329345703,0.12152612954378128
1759348064141891000,3.29189111328125,0.03263787552714348,0.3096085786819458,0.10205411165952682
1759348064151949800,3.30194970703125,0.03144637867808342,0.2947654724121094,0.07531038671731949
1759348064162007800,3.3120078125,0.03273322433233261,0.2539128065109253,0.05585683137178421
1759348064172066800,3.32206689453125,0.021819058805704117,0.1902741938829422,0.04894113540649414
1759348064182124800,3.332124755859375,0.01940506510436535,0.11240226775407791,0.05009152740240097
1759348064192184000,3.34218408203125,0.02573433332145214,0.03627660498023033,0.056188568472862244
1759348064202241800,3.35224169921875,0.029499638825654984,-0.031616225838661194,0.05688319355249405
1759348064212301000,3.362301025390625,0.026476949453353882,-0.08226235210895538,0.04803670942783356
1759348064222359000,3.372359130859375,0.01980477198958397,-0.12211287021636963,0.029647842049598694
1759348064232417800,3.382417724609375,0.015761561691761017,-0.15872786939144135,-0.002069341018795967
1759348064242476000,3.39247607421875,0.018427543342113495,-0.18971185386180878,-0.03323177993297577
1759348064252534800,3.40253466796875,0.02121667191386223,-0.21865588426589966,-0.050974562764167786
1759348064262592800,3.4125927734375,0.022431755438447,-0.24132519960403442,-0.05337570235133171
1759348064272652000,3.422652099609375,0.020829064771533012,-0.251336008310318,-0.04297446087002754
1759348064282711000,3.4327109375,0.019508585333824158,-0.2473885416984558,-0.025603037327528
1759348064292769000,3.44276904296875,0.01418998558074236,-0.2323845475912094,-0.011547669768333435
1759348064302827800,3.452827880859375,0.005204726010560989,-0.22081249952316284,-0.009650152176618576
1759348064312886000,3.462885986328125,-0.00832732766866684,-0.20967622101306915,-0.022258887067437172
1759348064322944800,3.47294482421875,-0.010247265920042992,-0.19626733660697937,-0.04094551503658295
1759348064333002800,3.483002685546875,0.0017500086687505245,-0.17917223274707794,-0.051776591688394547
1759348064343062000,3.49306201171875,0.0027524009346961975,-0.16064560413360596,-0.047233227640390396
1759348064353119700,3.50311962890625,0.0003307890146970749,-0.14540541172027588,-0.023274894803762436
1759348064363179000,3.513178955078125,0.003200611099600792,-0.12360209971666336,0.009455620311200619
1759348064373237000,3.523237060546875,0.008329592645168304,-0.08873333036899567,0.03784358501434326
1759348064383296000,3.5332958984375,0.0171956829726696,-0.03948511555790901,0.05704301968216896
1759348064393354000,3.54335400390625,0.028094934299588203,0.008619028143584728,0.06221354752779007
1759348064403412700,3.553412841796875,0.040570810437202454,0.038605060428380966,0.05930806323885918
1759348064413471000,3.563470947265625,0.05163464695215225,0.039687901735305786,0.048283375799655914
1759348064423530000,3.573530029296875,0.052624642848968506,0.015075535513460636,0.03213322162628174
1759348064433588000,3.583587890625,0.04500347375869751,-0.015847226604819298,0.015456505119800568
1759348064443647000,3.59364697265625,0.0368906632065773,-0.03413480147719383,-0.003135538659989834
1759348064453705000,3.603705078125,0.034928981214761734,-0.03909706696867943,-0.01771075278520584
1759348064463764000,3.613763916015625,0.033543869853019714,-0.043175432831048965,-0.021446634083986282
1759348064473822000,3.623822021484375,0.025738943368196487,-0.048227183520793915,-0.019474830478429794
1759348064483881000,3.633880859375,0.02220110595226288,-0.06340298056602478,-0.008249659091234207
1759348064493939000,3.64393896484375,0.02082611434161663,-0.09775349497795105,0.0005358434282243252
1759348064503997700,3.653997802734375,0.02068936824798584,-0.14572548866271973,0.0026455232873559
1759348064514056000,3.664055908203125,0.013952902518212795,-0.19039015471935272,-0.006253696046769619
1759348064524115000,3.674114990234375,0.010581530630588531,-0.2197289913892746,-0.017370330169796944
1759348064534174000,3.684174072265625,0.00843315850943327,-0.2312498241662979,-0.03172903135418892
1759348064544232000,3.69423193359375,0.007796715945005417,-0.23062317073345184,-0.04243049398064613
1759348064554291000,3.704291015625,0.009868388995528221,-0.21636594831943512,-0.0474281832575798
1759348064564349000,3.714348876953125,0.013475693762302399,-0.19242997467517853,-0.04942777007818222
1759348064574408000,3.724407958984375,0.020594855770468712,-0.1607641875743866,-0.04610387980937958
1759348064584466000,3.7344658203125,0.02207428589463234,-0.12082972377538681,-0.034736208617687225
1759348064594525000,3.74452490234375,0.021038316190242767,-0.07492800801992416,-0.01838786154985428
1759348064604583000,3.7545830078125,0.02755328081548214,-0.03152848780155182,0.0017523597925901413
1759348064614642000,3.764641845703125,0.026484021916985512,0.004765339195728302,0.01860031485557556
1759348064624700200,3.7747001953125,0.019736604765057564,0.03135796636343002,0.026254579424858093
1759348064634759000,3.784759033203125,0.01592642068862915,0.040975172072649,0.026643933728337288
1759348064644817000,3.79481689453125,0.017311744391918182,0.027474798262119293,0.014889625832438469
1759348064654876000,3.8048759765625,0.010553439147770405,0.01632893644273281,-0.0033290586434304714
1759348064664934000,3.814933837890625,0.01356678456068039,0.025300225242972374,0.003643742064014077
1759348064674993200,3.8249931640625,0.01500755362212658,0.053644247353076935,0.022071484476327896
1759348064685051000,3.83505078125,0.006659269332885742,0.06973566859960556,0.04026923328638077
1759348064695110000,3.84510986328125,-0.005442134570330381,0.062292397022247314,0.04709944128990173
1759348064705168100,3.855168212890625,-0.013631087727844715,0.03252873569726944,0.0334729440510273
1759348064715227000,3.865226806640625,-0.014510995708405972,-0.012577226385474205,0.009257886558771133
1759348064725285000,3.87528515625,-0.01094344723969698,-0.08943331241607666,-0.03668535500764847
1759348064735343900,3.88534375,-0.008989752270281315,-0.1813746988773346,-0.0897056981921196
1759348064745401900,3.89540185546875,-0.02275419607758522,-0.30701494216918945,-0.1590549498796463
