time,seconds_elapsed,z,y,x
1759336227938504200,0.078504150390625,0.17603492736816406,-0.1576831340789795,0.01878964900970459
1759336227968504000,0.108504150390625,0.1500530242919922,-0.13315939903259277,0.08011206984519958
1759336227978504200,0.118504150390625,0.029621124267578125,-0.13124775886535645,0.15800005197525024
1759336227988504800,0.1285048828125,-0.05632972717285156,-0.12519478797912598,0.18302872776985168
1759336227998504700,0.138504638671875,-0.11178398132324219,-0.07187271118164062,0.15016674995422363
1759336228008504800,0.1485048828125,-0.1570568084716797,-0.07746481895446777,0.13587066531181335
1759336228018504000,0.15850390625,-0.19947242736816406,-0.08874058723449707,0.11706113815307617
1759336228028503800,0.16850390625,-0.26544952392578125,-0.07226324081420898,0.10617035627365112
1759336228038504000,0.17850390625,-0.2518949508666992,-0.10514283180236816,0.06927183270454407
1759336228048504000,0.188504150390625,-0.2157735824584961,-0.10971808433532715,-0.01209479570388794
1759336228058504000,0.19850390625,-0.19330787658691406,-0.08774924278259277,-0.019852519035339355
1759336228068503800,0.20850390625,-0.08635902404785156,-0.07520627975463867,-0.03856867551803589
1759336228078504000,0.21850390625,-0.029671669006347656,-0.07259893417358398,-0.02075856924057007
1759336228088503300,0.22850341796875,-0.05246257781982422,-0.037925004959106445,-0.0006967782974243164
1759336228098503200,0.238503173828125,-0.04966926574707031,-0.022901296615600586,0.04386621713638306
1759336228108503000,0.2485029296875,-0.038023948669433594,-0.0462949275970459,0.09181860089302063
1759336228118504000,0.25850390625,0.02537250518798828,-0.08584356307983398,0.09358677268028259
1759336228128504000,0.268504150390625,0.05222034454345703,-0.07761240005493164,0.08344897627830505
1759336228138504000,0.27850390625,-0.009795188903808594,-0.034810543060302734,0.07219064235687256
1759336228148504000,0.288504150390625,0.047687530517578125,-0.027070283889770508,0.023791790008544922
1759336228158504200,0.298504150390625,0.07918262481689453,0.0014376640319824219,-0.008996665477752686
1759336228168504000,0.308504150390625,0.0678720474243164,0.012363195419311523,0.013366997241973877
1759336228178504200,0.318504150390625,0.10966873168945312,0.005341053009033203,-0.0691949725151062
1759336228188504300,0.32850439453125,0.14713096618652344,0.03296351432800293,-0.10832124948501587
1759336228198504400,0.33850439453125,0.17504024505615234,0.033998727798461914,-0.16525089740753174
1759336228208504300,0.34850439453125,0.18869686126708984,0.048819780349731445,-0.13735008239746094
1759336228218503400,0.35850341796875,0.14219951629638672,0.0472102165222168,-0.06940394639968872
1759336228228503600,0.368503662109375,0.08550357818603516,0.061075448989868164,-0.043740034103393555
1759336228238502400,0.37850244140625,0.040508270263671875,0.05615377426147461,0.029793977737426758
1759336228248502500,0.38850244140625,-0.03585624694824219,0.042508840560913086,0.07273745536804199
1759336228258502400,0.39850244140625,-0.03595447540283203,0.023047208786010742,0.08377951383590698
1759336228268502500,0.40850244140625,-0.0720367431640625,0.020884990692138672,0.10608109831809998
1759336228278502400,0.41850244140625,-0.03843879699707031,0.06859779357910156,0.09663841128349304
1759336228288501800,0.428501708984375,0.005255699157714844,0.06714296340942383,0.10301408171653748
1759336228298467800,0.4384677734375,0.022735595703125,0.03174138069152832,0.05155426263809204
1759336228308434400,0.448434326171875,0.05250072479248047,0.019214153289794922,0.04253196716308594
1759336228318401300,0.4584013671875,0.03901195526123047,0.026114702224731445,0.03954070806503296
1759336228328368000,0.4683681640625,0.06144905090332031,0.03527474403381348,0.045586228370666504
1759336228338334700,0.478334716796875,0.028667449951171875,0.023374080657958984,0.10200431942939758
1759336228348301300,0.48830126953125,-0.03021717071533203,0.01317286491394043,0.15605321526527405
1759336228358268000,0.498267822265625,-0.09846687316894531,-0.03847098350524902,0.17367592453956604
1759336228368234800,0.50823486328125,-0.0898141860961914,-0.043361663818359375,0.08936813473701477
1759336228378201000,0.518201171875,-0.0051250457763671875,-0.07065820693969727,0.009374141693115234
1759336228388168400,0.52816845703125,0.05413055419921875,-0.055260658264160156,-0.08759838342666626
1759336228398135000,0.538135009765625,0.03290557861328125,-0.04726576805114746,-0.15963834524154663
1759336228408102000,0.548101806640625,-0.00173187255859375,-0.036930084228515625,-0.18868643045425415
1759336228418067500,0.5580673828125,-0.03365039825439453,-0.015291690826416016,-0.18751519918441772
1759336228428034300,0.568034423828125,-0.08466434478759766,0.037499189376831055,-0.137658953666687
1759336228438001000,0.5780009765625,-0.04504585266113281,0.019438743591308594,-0.07641613483428955
1759336228447967500,0.587967529296875,-0.032917022705078125,-0.002650737762451172,-0.019474029541015625
1759336228457934000,0.59793408203125,-0.043580055236816406,0.033768415451049805,0.019109487533569336
1759336228467901000,0.60790087890625,-0.06823253631591797,0.020918846130371094,-0.005828857421875
1759336228477867500,0.617867431640625,-0.06336021423339844,-0.0036416053771972656,-0.04365271329879761
1759336228487833300,0.627833251953125,0.01235198974609375,-0.010163068771362305,-0.044023990631103516
1759336228497800200,0.63780029296875,0.0823526382446289,-0.03441882133483887,-0.02456045150756836
1759336228507766800,0.647766845703125,0.11422061920166016,-0.07305526733398438,-0.06504964828491211
1759336228517734400,0.657734375,0.10602569580078125,-0.04158592224121094,-0.09529489278793335
1759336228527701000,0.667700927734375,0.0841522216796875,-0.03390002250671387,-0.1315004825592041
1759336228537667600,0.67766748046875,0.0634603500366211,-0.02780294418334961,-0.15790420770645142
1759336228547634400,0.687634521484375,0.031497955322265625,0.0186617374420166,-0.1346743106842041
1759336228557601000,0.69760107421875,-0.014325141906738281,0.053585052490234375,-0.08247560262680054
1759336228567567600,0.707567626953125,-0.04057025909423828,0.024749040603637695,-0.06004458665847778
1759336228577534700,0.71753466796875,-0.006847381591796875,0.05289459228515625,0.009599447250366211
1759336228587501800,0.727501708984375,0.06248950958251953,0.04352879524230957,0.04750746488571167
1759336228597502500,0.73750244140625,0.1534891128540039,0.057832956314086914,0.06185626983642578
1759336228607502600,0.747502685546875,0.12399864196777344,0.06958270072937012,0.04669409990310669
1759336228617502200,0.757502197265625,0.07744407653808594,0.0535130500793457,0.03617751598358154
1759336228627502300,0.76750244140625,0.07126617431640625,0.024373292922973633,0.027110576629638672
1759336228637502200,0.777502197265625,0.03833484649658203,0.04463553428649902,0.00004267692565917969
1759336228647502300,0.78750244140625,0.024799346923828125,0.0427851676940918,0.04801595211029053
1759336228657502200,0.797502197265625,0.01631927490234375,0.035259246826171875,0.04057973623275757
1759336228667502300,0.80750244140625,0.0035047531127929688,-0.012335777282714844,0.048118650913238525
1759336228677502700,0.817502685546875,-0.013477325439453125,-0.0334780216217041,0.05865824222564697
1759336228687501800,0.827501708984375,0.044345855712890625,-0.03289222717285156,0.06483381986618042
1759336228697502000,0.837501953125,0.03819084167480469,-0.03218674659729004,0.09624725580215454
1759336228707501800,0.847501708984375,0.013249397277832031,-0.020863056182861328,0.07858210802078247
1759336228717502700,0.857502685546875,0.05072307586669922,0.009050130844116211,0.10124808549880981
1759336228727502800,0.8675029296875,0.044803619384765625,-0.002900362014770508,0.06557595729827881
1759336228737502700,0.877502685546875,0.023787498474121094,0.013844966888427734,0.030431807041168213
1759336228747502800,0.8875029296875,0.030768394470214844,0.011538267135620117,0.010852515697479248
1759336228757502700,0.897502685546875,0.04410743713378906,0.004941463470458984,-0.0020282864570617676
1759336228767502800,0.9075029296875,0.020946502685546875,0.0053026676177978516,0.025251924991607666
1759336228777468700,0.91746875,-0.03593635559082031,-0.010102987289428711,-0.029389023780822754
1759336228787436000,0.92743603515625,-0.042400360107421875,-0.0063436031341552734,-0.1129295825958252
1759336228797402600,0.937402587890625,-0.0027933120727539062,0.012845039367675781,-0.20854657888412476
1759336228807369500,0.947369384765625,0.09248924255371094,0.011225700378417969,-0.27439868450164795
1759336228817335000,0.9573349609375,0.14297199249267578,0.04089713096618652,-0.3144502639770508
1759336228827302000,0.967302001953125,0.12912845611572266,0.018967628479003906,-0.30596160888671875
1759336228837268500,0.9772685546875,0.07236480712890625,0.007843732833862305,-0.25746965408325195
1759336228847235000,0.987235107421875,0.07291793823242188,-0.015634775161743164,-0.1507663130760193
1759336228857202000,0.997201904296875,0.0635824203491211,0.01624894142150879,-0.04977059364318848
1759336228867168500,1.00716845703125,0.029743194580078125,0.011202335357666016,-0.020044565200805664
1759336228877134800,1.017134765625,0.029076576232910156,0.031408071517944336,0.0036318302154541016
1759336228887101700,1.027101806640625,0.025793075561523438,0.01694178581237793,0.05876713991165161
1759336228897068300,1.037068359375,-0.032833099365234375,0.0014424324035644531,0.08288699388504028
1759336228907035100,1.04703515625,-0.06268882751464844,-0.01365041732788086,0.08567404747009277
1759336228917002500,1.05700244140625,-0.06363391876220703,-0.00966954231262207,0.09082996845245361
1759336228926969000,1.066968994140625,0.055220603942871094,-0.029710054397583008,0.05619412660598755
1759336228936936000,1.07693603515625,0.061611175537109375,-0.057321786880493164,0.030115067958831787
1759336228946902500,1.086902587890625,0.08725547790527344,-0.05708146095275879,0.05153161287307739
1759336228956869000,1.096869140625,0.16582965850830078,-0.08455872535705566,0.06777733564376831
1759336228966836000,1.1068359375,0.0893259048461914,-0.06850481033325195,0.06366080045700073
1759336228986770000,1.12677001953125,-0.10469722747802734,-0.048465728759765625,0.09463602304458618
1759336228996736500,1.136736572265625,-0.13637351989746094,-0.05956125259399414,0.11101037263870239
1759336229006703400,1.146703369140625,-0.1653757095336914,-0.07138967514038086,0.1160007119178772
1759336229016669000,1.1566689453125,-0.13947772979736328,-0.03951549530029297,0.08541560173034668
1759336229026635800,1.1666357421875,-0.1452617645263672,-0.06810283660888672,0.06945765018463135
1759336229036602400,1.176602294921875,-0.14458942413330078,-0.05132699012756348,0.08471256494522095
1759336229046569000,1.18656884765625,-0.020295143127441406,-0.03890728950500488,0.007178664207458496
1759336229056535800,1.196535888671875,0.12482929229736328,-0.023855209350585938,-0.05388730764389038
1759336229066502400,1.20650244140625,0.1832418441772461,-0.05233573913574219,-0.14920294284820557
1759336229076503300,1.21650341796875,0.19844818115234375,-0.020651578903198242,-0.1585189700126648
1759336229086503200,1.226503173828125,0.2211475372314453,0.036272525787353516,-0.1565905213356018
1759336229096503300,1.23650341796875,0.1702432632446289,0.05727505683898926,-0.14508605003356934
1759336229106503200,1.246503173828125,0.060034751892089844,0.03536820411682129,-0.1264868974685669
1759336229116504000,1.256504150390625,-0.06876945495605469,0.07142281532287598,-0.09670102596282959
1759336229126504000,1.26650390625,-0.16358375549316406,0.0511016845703125,-0.08056426048278809
1759336229136504000,1.276504150390625,-0.1935863494873047,0.06886529922485352,-0.07490378618240356
1759336229146504000,1.28650390625,-0.14466381072998047,0.06819391250610352,-0.10285472869873047
1759336229156504000,1.296504150390625,-0.13215923309326172,0.050054311752319336,-0.09193217754364014
1759336229166504000,1.30650390625,-0.00041675567626953125,0.021384000778198242,-0.054743289947509766
1759336229176503800,1.31650390625,-0.0009136199951171875,0.023270845413208008,-0.05300033092498779
1759336229186504000,1.32650390625,0.06990814208984375,-0.014151811599731445,-0.08329182863235474
1759336229196503800,1.33650390625,0.08763599395751953,-0.024200439453125,-0.11493939161300659
1759336229206504000,1.34650390625,0.13896751403808594,-0.05104804039001465,-0.09764689207077026
1759336229216503000,1.3565029296875,0.10916805267333984,-0.054819345474243164,-0.04932445287704468
1759336229226503200,1.366503173828125,0.0892629623413086,-0.0599057674407959,-0.06492936611175537
1759336229236503000,1.3765029296875,0.14620018005371094,-0.0610957145690918,-0.03354686498641968
1759336229246503200,1.386503173828125,0.1053628921508789,-0.05160808563232422,0.02135545015335083
1759336229256503000,1.3965029296875,0.06693744659423828,-0.047242164611816406,0.05088680982589722
1759336229266503200,1.406503173828125,0.0644378662109375,-0.07182025909423828,0.13697394728660583
1759336229276503000,1.4165029296875,0.023710250854492188,-0.0679481029510498,0.18215593695640564
1759336229286503000,1.4265029296875,-0.05043792724609375,-0.08096909523010254,0.17789289355278015
1759336229296502300,1.436502197265625,-0.07899761199951172,-0.08208799362182617,0.16047674417495728
1759336229306502400,1.44650244140625,-0.0955047607421875,-0.06408405303955078,0.13701385259628296
1759336229316503300,1.45650341796875,-0.09543609619140625,-0.06445932388305664,0.13616597652435303
1759336229326503200,1.466503173828125,-0.10036468505859375,-0.09253406524658203,0.07266592979431152
1759336229336503300,1.47650341796875,-0.07432842254638672,-0.08885431289672852,0.05057483911514282
1759336229346658000,1.486657958984375,-0.10593032836914062,-0.05359482765197754,0.039903461933135986
1759336229356658200,1.496658203125,-0.027555465698242188,-0.05867886543273926,0.009429872035980225
1759336229366658300,1.506658203125,0.021617889404296875,-0.04562067985534668,0.09578031301498413
1759336229376658400,1.516658447265625,0.10869598388671875,-0.0292050838470459,0.16145694255828857
1759336229386658600,1.526658447265625,0.1906585693359375,-0.018995285034179688,0.1669725477695465
1759336229396658400,1.536658447265625,0.23433971405029297,-0.01593923568725586,0.14425283670425415
1759336229406658300,1.546658203125,0.20654296875,-0.006561279296875,0.055654823780059814
1759336229416657400,1.556657470703125,0.1960296630859375,0.008682489395141602,0.01903712749481201
1759336229426657500,1.566657470703125,0.14054298400878906,0.0033731460571289062,-0.002061307430267334
1759336229436657700,1.57665771484375,0.13395309448242188,-0.02645421028137207,-0.08432990312576294
1759336229446657500,1.586657470703125,0.09189891815185547,-0.021736621856689453,-0.0897681713104248
1759336229456657400,1.596657470703125,-0.005143165588378906,-0.0007340908050537109,-0.08920037746429443
1759336229466657500,1.606657470703125,-0.0855875015258789,-0.015484094619750977,-0.07364964485168457
1759336229476657700,1.61665771484375,-0.10167121887207031,-0.017595291137695312,-0.06404709815979004
1759336229486657500,1.626657470703125,-0.0963582992553711,0.011861562728881836,-0.05937224626541138
1759336229496657700,1.63665771484375,-0.07223033905029297,0.0016982555389404297,-0.05460101366043091
1759336229506657500,1.646657470703125,-0.03161907196044922,-0.002690553665161133,-0.030073940753936768
1759336229516658400,1.656658447265625,-0.053391456604003906,-0.023280858993530273,-0.03597813844680786
1759336229526658600,1.666658447265625,-0.029664993286132812,0.011375904083251953,-0.07435756921768188
1759336229536658400,1.676658447265625,0.02754497528076172,-0.003949165344238281,-0.11422407627105713
1759336229546658300,1.686658203125,0.05362129211425781,-0.004836320877075195,-0.10600864887237549
1759336229556658400,1.696658447265625,-0.008973121643066406,-0.022509336471557617,-0.09686678647994995
1759336229566658300,1.706658203125,0.012318611145019531,-0.07899689674377441,-0.07449734210968018
1759336229576658400,1.716658447265625,0.060065269470214844,-0.06652188301086426,-0.02625948190689087
1759336229586658300,1.726658203125,0.04072856903076172,-0.0780327320098877,-0.026828289031982422
1759336229596659200,1.7366591796875,0.016584396362304688,-0.07760167121887207,-0.08529454469680786
1759336229606659000,1.7466591796875,-0.02922534942626953,-0.10547780990600586,-0.08605581521987915
1759336229616658200,1.756658203125,0.0013866424560546875,-0.07758927345275879,-0.05283153057098389
1759336229626658300,1.766658203125,0.024751663208007812,-0.04677867889404297,0.003527820110321045
1759336229636658200,1.776658203125,-0.05232048034667969,0.0007071495056152344,0.0038330554962158203
1759336229646658300,1.786658203125,-0.021658897399902344,0.021932363510131836,-0.03866398334503174
1759336229656658200,1.796658203125,-0.02216053009033203,0.024329423904418945,-0.03471630811691284
1759336229666658000,1.806657958984375,0.0946035385131836,0.017312288284301758,-0.028411507606506348
1759336229676658000,1.816657958984375,0.10831165313720703,0.03659510612487793,-0.026267588138580322
1759336229686658000,1.826657958984375,0.07419586181640625,0.029040813446044922,-0.013667702674865723
1759336229696658000,1.836657958984375,0.0066432952880859375,0.03775763511657715,-0.006945669651031494
1759336229706658000,1.846657958984375,-0.02482891082763672,0.03862285614013672,0.03262513875961304
1759336229716659000,1.856658935546875,-0.008434295654296875,0.05635380744934082,0.09639078378677368
1759336229726658800,1.866658935546875,-0.08533954620361328,0.04765725135803223,0.09856820106506348
1759336229736659000,1.876658935546875,-0.0857076644897461,0.048742055892944336,0.09817737340927124
1759336229746658800,1.886658935546875,-0.05244636535644531,0.025588274002075195,0.1004229187965393
1759336229756659000,1.896658935546875,0.04821014404296875,0.054247140884399414,0.08484363555908203
1759336229766658800,1.906658935546875,0.06522464752197266,0.041901588439941406,0.08452701568603516
1759336229776659000,1.916658935546875,0.03688335418701172,0.03393268585205078,0.05074310302734375
1759336229786658800,1.926658935546875,0.090057373046875,0.01604771614074707,0.021825671195983887
1759336229796659000,1.936658935546875,0.11213397979736328,0.01736617088317871,-0.018432557582855225
1759336229806658800,1.946658935546875,0.09078502655029297,0.026967525482177734,-0.10154485702514648
1759336229816658000,1.956657958984375,0.049721717834472656,0.01407766342163086,-0.08805680274963379
1759336229826658000,1.966657958984375,0.08945941925048828,-0.03812718391418457,-0.002771615982055664
1759336229836658000,1.976657958984375,0.09789848327636719,-0.022920846939086914,0.07206767797470093
1759336229846658000,1.986657958984375,0.03937339782714844,0.008875370025634766,0.06818431615829468
1759336229856658000,1.996657958984375,0.05531120300292969,-0.022181987762451172,0.045910656452178955
1759336229866658000,2.006657958984375,0.021450042724609375,-0.03760051727294922,0.05185890197753906
1759336229876658200,2.016658203125,-0.047966957092285156,-0.032446861267089844,0.013081967830657959
1759336229886658000,2.026657958984375,-0.06447792053222656,-0.00901341438293457,0.033552348613739014
1759336229896658000,2.036657958984375,-0.04015064239501953,-0.041391611099243164,0.035836756229400635
1759336229906658000,2.046657958984375,-0.0399322509765625,-0.04229855537414551,0.03483402729034424
1759336229916659000,2.056658935546875,-0.07332611083984375,-0.014388084411621094,0.01851189136505127
1759336229926658800,2.066658935546875,-0.07572460174560547,-0.002888202667236328,-0.026854217052459717
1759336229936659000,2.076658935546875,-0.04246711730957031,-0.009539365768432617,0.005237162113189697
1759336229946658800,2.086658935546875,-0.021285057067871094,0.013311386108398438,0.04659700393676758
1759336229956659000,2.096658935546875,0.00445556640625,0.04673886299133301,0.029346466064453125
1759336229966659000,2.1066591796875,0.06828975677490234,0.054682016372680664,-0.01825028657913208
1759336229976659000,2.116658935546875,0.20612812042236328,0.05410146713256836,-0.05702859163284302
1759336229986659000,2.1266591796875,0.20001983642578125,0.02820897102355957,-0.047592222690582275
1759336229996659000,2.136658935546875,0.15523815155029297,0.03887176513671875,-0.04784500598907471
1759336230006659000,2.1466591796875,0.09349441528320312,0.05182194709777832,-0.07076722383499146
1759336230016658200,2.156658203125,0.04874897003173828,0.02315664291381836,-0.04891270399093628
1759336230026658000,2.166657958984375,-0.024309158325195312,0.019542694091796875,-0.03640061616897583
1759336230036658200,2.176658203125,-0.04413318634033203,0.007172822952270508,-0.0036402344703674316
1759336230046658000,2.186657958984375,-0.027357101440429688,0.021591663360595703,0.006408572196960449
1759336230056658200,2.196658203125,-0.03628253936767578,0.012725591659545898,-0.013211727142333984
1759336230066658000,2.206657958984375,-0.054473876953125,-0.0161285400390625,-0.05603647232055664
1759336230076658200,2.216658203125,-0.05835151672363281,-0.03277993202209473,-0.06266486644744873
1759336230086658000,2.226657958984375,-0.0865926742553711,-0.04105210304260254,-0.0173833966255188
1759336230096625000,2.236625,-0.17529678344726562,-0.038129568099975586,-0.02628856897354126
1759336230106591500,2.246591552734375,-0.2237701416015625,-0.06299972534179688,0.005276799201965332
1759336230116558800,2.256558837890625,-0.15307044982910156,-0.10071039199829102,0.03587996959686279
1759336230126525700,2.266525634765625,-0.054004669189453125,-0.07978463172912598,0.08562231063842773
1759336230136492800,2.276492919921875,0.01610851287841797,-0.060514211654663086,0.09948933124542236
1759336230146459400,2.28645947265625,0.10270500183105469,-0.0639958381652832,0.13379639387130737
1759336230156426000,2.296426025390625,0.11508464813232422,-0.07448554039001465,0.14015811681747437
1759336230166392800,2.306392822265625,0.1968832015991211,-0.024927377700805664,0.13275325298309326
1759336230176359400,2.316359375,0.25730133056640625,-0.016553640365600586,0.12079387903213501
1759336230186326000,2.326325927734375,0.28672122955322266,0.0055582523345947266,0.13893210887908936
1759336230196292600,2.336292724609375,0.2516775131225586,0.024294137954711914,0.16480210423469543
1759336230206259500,2.346259521484375,0.1402120590209961,0.04421377182006836,0.130517840385437
1759336230216225300,2.356225341796875,0.12245368957519531,0.010237455368041992,0.062083899974823
1759336230226192000,2.36619189453125,0.12191295623779297,0.011039257049560547,0.057561397552490234
1759336230246125000,2.386125,0.08872699737548828,0.0475461483001709,-0.04631239175796509
1759336230256092000,2.396091796875,0.10144901275634766,0.052847862243652344,-0.10821044445037842
1759336230266058500,2.40605859375,0.10239410400390625,0.050855159759521484,-0.19641298055648804
1759336230276025000,2.416025146484375,0.12235641479492188,0.07557010650634766,-0.22037345170974731
1759336230285991700,2.42599169921875,0.08238697052001953,0.07870888710021973,-0.1953732967376709
1759336230295957800,2.435957763671875,0.0040798187255859375,0.06723952293395996,-0.16241341829299927
1759336230305924400,2.44592431640625,-0.0837860107421875,0.06500673294067383,-0.16662591695785522
1759336230315892000,2.45589208984375,-0.13339710235595703,0.0554196834564209,-0.1533016562461853
1759336230325858600,2.465858642578125,-0.1974811553955078,0.04347801208496094,-0.12462878227233887
1759336230335825200,2.4758251953125,-0.16356754302978516,0.039290428161621094,-0.09104681015014648
1759336230345792000,2.4857919921875,-0.04855918884277344,0.04588031768798828,-0.04938614368438721
1759336230355758600,2.495758544921875,0.051665306091308594,0.013285160064697266,-0.08604288101196289
1759336230365725200,2.50572509765625,0.0678253173828125,0.00800943374633789,-0.07669961452484131
1759336230375692000,2.515692138671875,0.03590869903564453,0.020113468170166016,-0.08176583051681519
1759336230385658600,2.52565869140625,-0.005440711975097656,-0.02100086212158203,-0.04650223255157471
1759336230395658800,2.53565869140625,-0.08002853393554688,-0.0320737361907959,-0.01678699254989624
1759336230405658600,2.54565869140625,-0.11098194122314453,-0.06900572776794434,-0.0021632909774780273
1759336230415658000,2.555657958984375,-0.1150970458984375,-0.05973243713378906,0.03382354974746704
1759336230425657900,2.565657958984375,-0.14310359954833984,-0.058042287826538086,0.06389814615249634
1759336230435657500,2.575657470703125,-0.12818527221679688,-0.08711099624633789,0.05230993032455444
1759336230445657300,2.5856572265625,-0.15201473236083984,-0.05015707015991211,0.05236458778381348
1759336230455657500,2.595657470703125,-0.11655712127685547,-0.06871771812438965,0.045695602893829346
1759336230465657300,2.6056572265625,-0.07442951202392578,-0.06851530075073242,0.042990267276763916
1759336230475657500,2.615657470703125,-0.020822525024414062,-0.06899762153625488,0.0527116060256958
1759336230485657300,2.6256572265625,0.08744335174560547,-0.046666860580444336,0.07880401611328125
1759336230495657500,2.635657470703125,0.11153030395507812,-0.04479241371154785,0.04898267984390259
1759336230505657300,2.6456572265625,0.10924053192138672,-0.03802490234375,0.04523223638534546
1759336230515658200,2.655658203125,0.12381553649902344,-0.0049288272857666016,0.02388840913772583
1759336230525658000,2.665658203125,0.11477375030517578,-0.0011355876922607422,0.019312560558319092
1759336230535658200,2.675658203125,0.08456230163574219,-0.0029420852661132812,0.026384294033050537
1759336230545658400,2.685658447265625,0.08593559265136719,0.010886192321777344,-0.07478445768356323
1759336230555658200,2.695658203125,0.12612628936767578,0.023331880569458008,-0.10267126560211182
1759336230565658400,2.705658447265625,0.18357372283935547,0.019804954528808594,-0.13517272472381592
1759336230575658500,2.715658447265625,0.21717262268066406,0.05876564979553223,-0.20268255472183228
1759336230585658400,2.725658447265625,0.2171344757080078,0.05940413475036621,-0.20027625560760498
1759336230595659000,2.735658935546875,0.36049461364746094,-0.04951620101928711,-0.32605302333831787
1759336230615658200,2.755658203125,0.042873382568359375,0.09697461128234863,-0.09429866075515747
1759336230625658000,2.765658203125,-0.059088706970214844,-0.01798105239868164,-0.03725290298461914
1759336230635658200,2.775658203125,-0.05023384094238281,-0.04893374443054199,-0.048920392990112305
1759336230645658000,2.785658203125,-0.24737548828125,-0.007358551025390625,-0.029443860054016113
1759336230655658200,2.795658203125,-0.27680015563964844,0.15417075157165527,-0.03496837615966797
1759336230665658000,2.805658203125,0.0647726058959961,0.11325693130493164,-0.11740225553512573
1759336230675658000,2.815657958984375,0.18552589416503906,0.09851598739624023,-0.1508197784423828
1759336230685658000,2.825658203125,0.24825572967529297,0.1380751132965088,-0.07212257385253906
1759336230695658200,2.835658203125,0.24827289581298828,0.1363539695739746,-0.08179539442062378
1759336230705658000,2.845658203125,-0.2029094696044922,-0.15070009231567383,0.13761240243911743
1759336230715658800,2.85565869140625,-0.5540494918823242,0.12623214721679688,0.3228996992111206
1759336230725659000,2.865658935546875,-0.5692586898803711,0.17797112464904785,0.34487098455429077
1759336230735659000,2.875658935546875,0.06533241271972656,-0.02686023712158203,0.08765304088592529
1759336230745659000,2.885658935546875,0.4505939483642578,-0.1178426742553711,0.024931132793426514
1759336230755658800,2.89565869140625,0.4406862258911133,-0.08109140396118164,0.04312795400619507
1759336230765659000,2.905658935546875,0.4190549850463867,-0.02382349967956543,-0.05187886953353882
1759336230775658800,2.91565869140625,0.3715476989746094,-0.02313709259033203,0.018116533756256104
1759336230785659000,2.925658935546875,0.23120594024658203,-0.062238216400146484,0.030321955680847168
1759336230805659000,2.945658935546875,0.012445449829101562,-0.08406305313110352,0.08000224828720093
1759336230815658000,2.955657958984375,-0.0118865966796875,-0.019110441207885742,0.0723220705986023
1759336230825658000,2.965658203125,-0.107666015625,-0.012253046035766602,0.08379662036895752
1759336230835658000,2.975657958984375,-0.12776851654052734,0.007839679718017578,0.04230111837387085
1759336230845658000,2.985658203125,-0.12481880187988281,-0.002100706100463867,0.041425347328186035
1759336230855658000,2.995657958984375,-0.1232442855834961,-0.0046749114990234375,-0.04846078157424927
1759336230865657900,3.005657958984375,-0.11325836181640625,0.011288881301879883,-0.024229824542999268
1759336230875658000,3.015657958984375,-0.12578773498535156,0.03305244445800781,-0.01812225580215454
1759336230885657900,3.025657958984375,-0.053130149841308594,-0.023258209228515625,-0.05271953344345093
1759336230895658000,3.035657958984375,0.045238494873046875,-0.020087480545043945,-0.08046281337738037
1759336230905657900,3.045657958984375,0.08814239501953125,-0.0204923152923584,-0.08491247892379761
1759336230915658800,3.05565869140625,0.1647481918334961,-0.07189011573791504,-0.12351512908935547
1759336230925658600,3.06565869140625,0.1771535873413086,-0.06033730506896973,-0.13689124584197998
1759336230935658800,3.07565869140625,0.1208343505859375,-0.04189920425415039,-0.10156005620956421
1759336230945659000,3.085658935546875,0.014888763427734375,-0.04283261299133301,-0.08018040657043457
1759336230955658800,3.09565869140625,-0.018154144287109375,-0.042777061462402344,-0.05012083053588867
1759336230965659000,3.105658935546875,-0.017398834228515625,-0.04618191719055176,-0.0542183518409729
1759336230975658800,3.11565869140625,-0.10499858856201172,-0.023940324783325195,-0.0005503296852111816
1759336230985659000,3.125658935546875,-0.1448068618774414,-0.03707623481750488,0.030224740505218506
1759336230995658800,3.13565869140625,-0.06041908264160156,-0.04660487174987793,0.023638904094696045
1759336231005659000,3.145658935546875,0.040266990661621094,-0.03065943717956543,0.01941239833831787
1759336231015658000,3.155657958984375,0.006366729736328125,-0.03946208953857422,-0.004533648490905762
1759336231025657900,3.165657958984375,-0.10487556457519531,-0.04337501525878906,0.05803048610687256
1759336231045657900,3.185657958984375,0.08634090423583984,-0.07879805564880371,0.06997239589691162
1759336231055658000,3.195657958984375,0.08503341674804688,-0.0734095573425293,0.07474285364151001
1759336231065658000,3.205658203125,0.005061149597167969,-0.07667183876037598,-0.07767045497894287
1759336231075658000,3.215657958984375,0.09804248809814453,-0.09861874580383301,-0.048175036907196045
1759336231085658000,3.225658203125,0.17942142486572266,-0.10753631591796875,-0.0239335298538208
1759336231095658000,3.235657958984375,0.04059410095214844,-0.07183313369750977,-0.0027832984924316406
1759336231105658000,3.245658203125,0.03837108612060547,-0.04669523239135742,0.04219233989715576
1759336231115658800,3.25565869140625,0.13227367401123047,-0.017746925354003906,0.030740320682525635
1759336231125659000,3.265658935546875,0.1568012237548828,0.016088008880615234,0.01106947660446167
1759336231135659000,3.275658935546875,0.03040790557861328,0.02388906478881836,0.0010364055633544922
1759336231145659000,3.285658935546875,0.030719757080078125,0.0224759578704834,-0.0006844997406005859
1759336231155658800,3.29565869140625,-0.05737781524658203,0.0012314319610595703,0.05223047733306885
1759336231165659000,3.305658935546875,-0.04921531677246094,0.01912093162536621,0.048031747341156006
1759336231175658800,3.31565869140625,0.05754852294921875,-0.005263328552246094,0.04093819856643677
1759336231185659000,3.325658935546875,0.03764533996582031,-0.020862817764282227,0.04556530714035034
1759336231195658800,3.33565869140625,0.08701133728027344,-0.028824329376220703,0.06881266832351685
1759336231205659000,3.345658935546875,0.08835315704345703,-0.03391313552856445,0.06574112176895142
1759336231215658000,3.355657958984375,0.24767208099365234,0.03981184959411621,-0.006050288677215576
1759336231225658000,3.365658203125,0.18472671508789062,0.06875801086425781,0.17396977543830872
1759336231235658000,3.375657958984375,0.1876964569091797,0.05795860290527344,0.16888651251792908
1759336231245658000,3.385658203125,0.07487201690673828,0.025922536849975586,0.13501572608947754
1759336231255658000,3.395657958984375,0.11675167083740234,0.035097599029541016,0.019554972648620605
1759336231265658000,3.405658203125,0.12398338317871094,-0.036190032958984375,-0.02842050790786743
1759336231275658000,3.415657958984375,0.06735992431640625,-0.04089927673339844,-0.036178767681121826
1759336231285658000,3.425658203125,-0.01300048828125,-0.09465217590332031,-0.10081034898757935
1759336231295657500,3.435657470703125,-0.08832740783691406,-0.058643341064453125,-0.10487520694732666
1759336231305657300,3.4456572265625,-0.16469764709472656,-0.045383453369140625,-0.03463172912597656
1759336231315658200,3.455658203125,-0.2788524627685547,-0.03297829627990723,0.05188307166099548
1759336231325658400,3.465658447265625,-0.3902864456176758,-0.027905702590942383,0.08188420534133911
1759336231335658200,3.475658203125,-0.3360939025878906,-0.056731462478637695,0.1163889467716217
1759336231345658400,3.485658447265625,-0.16167449951171875,-0.06951379776000977,0.08820563554763794
1759336231355658200,3.495658203125,-0.007902145385742188,-0.026976346969604492,0.06037834286689758
1759336231365658400,3.505658447265625,-0.010946273803710938,-0.016558408737182617,0.06668666005134583
1759336231375658800,3.51565869140625,0.11970996856689453,-0.02877020835876465,-0.0030852556228637695
1759336231385658600,3.52565869140625,0.2937946319580078,-0.018046855926513672,-0.10175937414169312
1759336231395658500,3.535658447265625,0.23611831665039062,0.017145156860351562,-0.07840895652770996
1759336231405658600,3.54565869140625,0.12188529968261719,-0.017978429794311523,0.05475038290023804
1759336231415657700,3.55565771484375,0.062386512756347656,-0.035719871520996094,0.10096752643585205
1759336231425657900,3.565657958984375,-0.015025138854980469,-0.004667997360229492,0.06562834978103638
1759336231435657700,3.57565771484375,-0.012625694274902344,-0.012018680572509766,0.06622546911239624
1759336231445657600,3.58565771484375,-0.05520820617675781,0.02707505226135254,-0.03795194625854492
1759336231455657700,3.59565771484375,-0.07872867584228516,0.018720388412475586,-0.060028791427612305
1759336231465657600,3.60565771484375,-0.07634258270263672,0.01179194450378418,-0.05774801969528198
1759336231475657700,3.61565771484375,0.03078937530517578,0.0018224716186523438,-0.14220494031906128
1759336231485657600,3.62565771484375,0.03160858154296875,-0.0006272792816162109,-0.1418757438659668
1759336231495657700,3.63565771484375,0.1488180160522461,0.013886690139770508,-0.11652737855911255
1759336231505657600,3.64565771484375,0.028014183044433594,-0.014384031295776367,-0.0522499680519104
1759336231515658500,3.655658447265625,-0.07432079315185547,-0.009480953216552734,0.018840551376342773
1759336231535658500,3.675658447265625,-0.06462574005126953,-0.009347915649414062,0.028975963592529297
1759336231545658400,3.685658447265625,-0.06193828582763672,-0.01217031478881836,-0.007922172546386719
1759336231555658500,3.695658447265625,-0.09020519256591797,-0.02035069465637207,-0.0020564794540405273
1759336231565658400,3.705658447265625,-0.05109214782714844,-0.03679060935974121,0.015635788440704346
1759336231575658500,3.715658447265625,-0.052402496337890625,-0.03264665603637695,0.01599264144897461
1759336231585658400,3.725658447265625,0.04719257354736328,-0.024921178817749023,-0.005879878997802734
1759336231595659300,3.7356591796875,0.046474456787109375,-0.022922039031982422,-0.0072040557861328125
1759336231605659100,3.7456591796875,0.04824542999267578,-0.047899484634399414,-0.020024538040161133
1759336231615658200,3.755658203125,0.1818714141845703,-0.0975198745727539,0.021359503269195557
1759336231625658400,3.765658447265625,0.10259056091308594,-0.04704618453979492,0.04645180702209473
1759336231635658200,3.775658203125,0.016202926635742188,-0.0470125675201416,0.06235828995704651
1759336231645658000,3.785658203125,0.03755664825439453,-0.027199745178222656,0.07220771908760071
1759336231655658200,3.795658203125,0.06140613555908203,-0.019193410873413086,0.046483635902404785
1759336231665658000,3.805658203125,0.08270263671875,-0.005755186080932617,-0.004790902137756348
1759336231675658000,3.815657958984375,0.06575393676757812,-0.002118825912475586,-0.02277517318725586
1759336231685657900,3.825657958984375,0.06562423706054688,-0.0012433528900146484,-0.020195066928863525
1759336231695658000,3.835657958984375,0.04160308837890625,0.051909446716308594,-0.011737048625946045
1759336231705657900,3.845657958984375,0.010563850402832031,0.025408506393432617,0.007975280284881592
1759336231715658800,3.85565869140625,0.010908126831054688,0.024234294891357422,0.007451891899108887
1759336231725659000,3.865658935546875,-0.038985252380371094,-0.008579730987548828,-0.04308617115020752
1759336231735658800,3.87565869140625,-0.02403736114501953,-0.011124610900878906,-0.025526344776153564
1759336231745659000,3.885658935546875,-0.08801555633544922,0.014762639999389648,0.056413352489471436
1759336231755658800,3.89565869140625,-0.09204864501953125,0.04558706283569336,0.06888779997825623
1759336231765659000,3.905658935546875,-0.034008026123046875,0.05843043327331543,0.034569501876831055
1759336231775658800,3.91565869140625,-0.0337371826171875,0.05833697319030762,0.03876417875289917
1759336231785659000,3.925658935546875,0.03314781188964844,0.04532670974731445,-0.06891369819641113
1759336231795658800,3.93565869140625,0.035216331481933594,0.03980612754821777,-0.06777721643447876
1759336231805659000,3.945658935546875,0.0658111572265625,0.010539531707763672,-0.06187236309051514
1759336231815658000,3.955657958984375,0.06536483764648438,0.016435623168945312,-0.10412091016769409
1759336231825658000,3.965658203125,0.0720052719116211,0.0030260086059570312,-0.01001054048538208
1759336231835658000,3.975657958984375,0.07155704498291016,-0.04430556297302246,0.03078240156173706
1759336231845658000,3.985658203125,0.04233360290527344,-0.05311775207519531,0.11505436897277832
1759336231855658000,3.995657958984375,0.027555465698242188,-0.013959884643554688,0.09343057870864868
1759336231865657900,4.005657958984375,0.010710716247558594,0.041466474533081055,0.005385637283325195
1759336231875658000,4.015657958984375,0.1096038818359375,0.061884164810180664,-0.09112972021102905
1759336231885657900,4.025657958984375,0.14150047302246094,0.056173086166381836,-0.11883944272994995
1759336231895658000,4.035657958984375,0.0698385238647461,0.01820826530456543,-0.08785843849182129
1759336231905657900,4.045657958984375,0.0696115493774414,0.018796920776367188,-0.08850723505020142
1759336231915658800,4.05565869140625,-0.1342020034790039,0.0093231201171875,0.03848963975906372
1759336231925659000,4.065658935546875,-0.1009063720703125,-0.003051280975341797,0.07076600193977356
1759336231935658800,4.07565869140625,-0.07961177825927734,-0.015258312225341797,0.11054813861846924
1759336231945659000,4.085658935546875,-0.07999706268310547,-0.014891386032104492,0.1058659553527832
1759336231955658800,4.09565869140625,0.022603988647460938,0.028958797454833984,0.09435540437698364
1759336231965659000,4.105658935546875,0.07236099243164062,0.06191539764404297,0.047638535499572754
1759336231975658800,4.11565869140625,0.1268749237060547,0.03311014175415039,0.0006490945816040039
1759336231985659000,4.125658935546875,0.09255218505859375,0.031216144561767578,0.026694118976593018
1759336231995659000,4.135658935546875,0.0703134536743164,0.019058942794799805,0.03650557994842529
1759336232005659000,4.145658935546875,0.10112476348876953,0.04387474060058594,0.028710126876831055
1759336232015658000,4.155657958984375,0.07016658782958984,0.062261343002319336,0.08003345131874084
1759336232025657900,4.165657958984375,0.10191917419433594,0.00009632110595703125,0.08051261305809021
1759336232035658000,4.175657958984375,-0.00261688232421875,-0.05042672157287598,0.09427756071090698
1759336232045658000,4.185658203125,-0.13316631317138672,-0.06590604782104492,0.05138427019119263
1759336232055658000,4.195657958984375,-0.13161182403564453,-0.058397769927978516,0.02007395029067993
1759336232065658000,4.205658203125,-0.0838613510131836,-0.028701305389404297,-0.07343292236328125
1759336232075658000,4.215657958984375,-0.5887975692749023,-0.06962418556213379,-0.12648075819015503
1759336232085658000,4.225658203125,0.29039859771728516,-0.09265661239624023,-0.25363415479660034
1759336232105658000,4.245658203125,0.45086002349853516,-0.11739706993103027,-0.28756457567214966
1759336232115659000,4.255658935546875,0.08696365356445312,-0.054927825927734375,0.1408170461654663
1759336232125659000,4.265658935546875,-0.04658222198486328,-0.12157821655273438,0.12550225853919983
1759336232135659000,4.275658935546875,-0.18910789489746094,-0.09543538093566895,0.12586024403572083
1759336232145659000,4.285658935546875,-0.38007545471191406,0.01962876319885254,0.19630274176597595
1759336232155659000,4.295658935546875,-0.30712032318115234,0.05726933479309082,0.17806273698806763
1759336232165659000,4.305658935546875,-0.1184225082397461,0.049913883209228516,0.06465160846710205
1759336232175659000,4.315658935546875,0.034903526306152344,0.014265775680541992,-0.10822427272796631
1759336232185659000,4.325658935546875,-0.034442901611328125,-0.0010542869567871094,-0.16834181547164917
1759336232195659000,4.335658935546875,-0.13762664794921875,0.016629695892333984,-0.1071590781211853
1759336232205659100,4.3456591796875,-0.21702861785888672,-0.0019259452819824219,-0.03368467092514038
1759336232215658200,4.355658203125,-0.274749755859375,-0.08365106582641602,0.04661965370178223
1759336232225658000,4.365658203125,-0.30137062072753906,-0.12694811820983887,0.07423734664916992
1759336232235658200,4.375658203125,-0.4116029739379883,-0.18732070922851562,0.12946784496307373
1759336232245658000,4.385658203125,-0.37333106994628906,-0.2210097312927246,0.10611265897750854
1759336232255658000,4.395657958984375,-0.3154745101928711,-0.24792814254760742,0.0854780375957489
1759336232265658000,4.405658203125,-0.32433223724365234,-0.2680208683013916,0.05885016918182373
1759336232275658000,4.415657958984375,-0.3523225784301758,-0.21601533889770508,0.04109668731689453
1759336232285658000,4.425658203125,-0.3059968948364258,-0.20239925384521484,0.009988605976104736
1759336232295658000,4.435657958984375,-0.2333393096923828,-0.22954869270324707,-0.067202627658844
1759336232305658000,4.445658203125,-0.28803539276123047,-0.27520036697387695,-0.13204604387283325
1759336232315659000,4.455658935546875,-0.3842353820800781,-0.30020761489868164,-0.11892068386077881
1759336232325659000,4.465658935546875,-0.41141605377197266,-0.30997681617736816,-0.029410898685455322
1759336232335659000,4.475658935546875,-0.4146108627319336,-0.3002157211303711,-0.03326636552810669
1759336232345659000,4.485658935546875,-0.38681602478027344,-0.3228034973144531,-0.00007009506225585938
1759336232355659000,4.495658935546875,-0.39032745361328125,-0.31034207344055176,0.004076540470123291
1759336232365659000,4.505658935546875,-0.5137701034545898,-0.45647549629211426,-0.10167670249938965
1759336232375658800,4.51565869140625,-0.5170745849609375,-0.4424271583557129,-0.087196946144104
1759336232385659000,4.525658935546875,-0.9075078964233398,-0.4971184730529785,-0.26854264736175537
1759336232395658800,4.53565869140625,-0.9093103408813477,-0.4871985912322998,-0.25108247995376587
1759336232405659000,4.545658935546875,-0.9227170944213867,-0.5555484294891357,-0.3294108510017395
1759336232415658000,4.555657958984375,-0.8547811508178711,-0.5261614322662354,-0.2864223122596741
1759336232425657900,4.565657958984375,-0.9024229049682617,-0.47181177139282227,-0.1578977108001709
1759336232435658000,4.575657958984375,-0.8576726913452148,-0.4827840328216553,-0.01978445053100586
1759336232445657900,4.585657958984375,-0.7550296783447266,-0.5129866600036621,0.07829099893569946
1759336232455658000,4.595657958984375,-0.6539707183837891,-0.576850175857544,0.1576538383960724
1759336232465658000,4.605658203125,-0.681121826171875,-0.5981109142303467,0.2464834451675415
1759336232475658000,4.615657958984375,-0.7856025695800781,-0.606689453125,0.2548169195652008
1759336232485657900,4.625657958984375,-0.8950681686401367,-0.6492559909820557,0.19981098175048828
1759336232495658000,4.635657958984375,-1.0374937057495117,-0.690017819404602,0.21413469314575195
1759336232505657900,4.645657958984375,-1.0451278686523438,-0.6627153158187866,0.21098017692565918
1759336232515658800,4.65565869140625,-1.6073522567749023,-0.707318902015686,0.13550114631652832
1759336232525659000,4.665658935546875,-1.7568325996398926,-0.7671487331390381,0.05057835578918457
1759336232535658800,4.67565869140625,-1.7567534446716309,-0.7902791500091553,0.011346936225891113
1759336232545659000,4.685658935546875,-1.7485713958740234,-0.7669501304626465,-0.02266746759414673
1759336232555659000,4.695658935546875,-1.595780372619629,-0.6597896814346313,-0.0857994556427002
1759336232565659000,4.705658935546875,-1.3137931823730469,-0.5917519330978394,-0.16885167360305786
1759336232575659000,4.715658935546875,-1.0256099700927734,-0.5264503955841064,-0.1983647346496582
1759336232585659000,4.725658935546875,-0.6868085861206055,-0.5362539291381836,-0.13211026787757874
1759336232595659000,4.735658935546875,-0.5083236694335938,-0.5831059217453003,-0.07905763387680054
1759336232605659000,4.745658935546875,-0.3985633850097656,-0.675020694732666,-0.057206928730010986
1759336232615658200,4.755658203125,-0.5771274566650391,-0.7226630449295044,-0.035585641860961914
1759336232625658000,4.765658203125,-0.8085947036743164,-0.7720048427581787,0.042550355195999146
1759336232635658200,4.775658203125,-1.2498836517333984,-0.8634093999862671,0.08072876930236816
1759336232645658000,4.785658203125,-1.696568489074707,-0.8740857839584351,0.146930530667305
1759336232655658200,4.795658203125,-2.062009334564209,-0.9406073093414307,0.22818061709403992
1759336232665658000,4.805658203125,-2.333963394165039,-1.0359688997268677,0.2130347043275833
1759336232675658200,4.815658203125,-2.324458122253418,-1.139127254486084,0.14642763137817383
1759336232685658000,4.825658203125,-2.2795324325561523,-1.1970908641815186,-0.0015237927436828613
1759336232695658200,4.835658203125,-1.9628963470458984,-1.2186768054962158,-0.11961451172828674
1759336232705658400,4.845658447265625,-1.713353157043457,-1.2099249362945557,-0.25298357009887695
1759336232715659000,4.855658935546875,-1.7492961883544922,-1.2024362087249756,-0.1746056079864502
1759336232725659100,4.8656591796875,-1.8887367248535156,-1.191396713256836,-0.07584252953529358
1759336232735659000,4.875658935546875,-1.9663825035095215,-1.200700283050537,-0.022499382495880127
1759336232745659100,4.8856591796875,-1.82139253616333,-1.1507097482681274,-0.11344283819198608
1759336232755659000,4.895658935546875,-1.7961697578430176,-1.2456374168395996,-0.12048715353012085
1759336232765659100,4.9056591796875,-1.7952303886413574,-1.2387337684631348,-0.0810057520866394
1759336232775659300,4.9156591796875,-1.7180652618408203,-1.6160061359405518,-0.2607523798942566
1759336232785659100,4.9256591796875,-1.7415904998779297,-1.6158862113952637,-0.1980292797088623
1759336232795659300,4.9356591796875,-1.7812185287475586,-1.566128134727478,-0.1848582625389099
1759336232805659100,4.9456591796875,-2.0593323707580566,-1.4927093982696533,-0.17791485786437988
1759336232815658200,4.955658203125,-1.9655117988586426,-1.4560129642486572,-0.1508992314338684
1759336232825658400,4.965658447265625,-1.5287823677062988,-1.2877941131591797,-0.174735426902771
1759336232835658200,4.975658203125,-1.2048158645629883,-1.077379822731018,-0.18715256452560425
1759336232845658400,4.985658447265625,-1.0995798110961914,-0.9633688926696777,-0.17415952682495117
1759336232855658200,4.995658203125,-1.072108268737793,-0.9329055547714233,-0.07292121648788452
1759336232865658400,5.005658447265625,-1.0676774978637695,-0.9466499090194702,0.11982595920562744
1759336232875658200,5.015658203125,-1.2973270416259766,-0.9089025259017944,0.18893319368362427
1759336232885658400,5.025658447265625,-1.6294360160827637,-0.9648640155792236,0.18664947152137756
1759336232895658200,5.035658203125,-1.7477712631225586,-1.0422104597091675,0.17246297001838684
1759336232905658400,5.045658447265625,-1.776789665222168,-1.0465368032455444,0.20589008927345276
1759336232915659300,5.0556591796875,-1.7514452934265137,-0.9674745798110962,0.22279733419418335
1759336232925659100,5.0656591796875,-1.511103630065918,-0.8286895751953125,0.12462812662124634
1759336232935659300,5.0756591796875,-1.288142204284668,-0.6151888370513916,0.23831799626350403
1759336232945659100,5.0856591796875,-0.8022327423095703,-0.535632848739624,0.3981279730796814
1759336232955659300,5.0956591796875,-0.06685066223144531,-0.3798336982727051,0.4287981688976288
1759336232965659100,5.1056591796875,0.37043285369873047,-0.13510966300964355,0.37184658646583557
1759336232975658200,5.115658203125,0.5865764617919922,0.11643266677856445,0.24997183680534363
1759336232985658400,5.125658447265625,0.5508308410644531,0.311648964881897,0.05217331647872925
1759336232995658200,5.135658203125,0.5146560668945312,0.49091124534606934,-0.10387474298477173
1759336233005658400,5.145658447265625,0.5133399963378906,0.5107342004776001,-0.07407176494598389
1759336233015657500,5.155657470703125,0.5479536056518555,0.6617023944854736,-0.017694175243377686
1759336233025657000,5.165656982421875,1.022536277770996,0.755023717880249,-0.15157294273376465
1759336233035656400,5.175656494140625,1.733302116394043,0.9473493099212646,-0.48927396535873413
1759336233045656000,5.185656005859375,2.818857192993164,1.2186816930770874,-0.884792149066925
1759336233055655400,5.195655517578125,2.813471794128418,1.2587378025054932,-0.8691853880882263
1759336233065655000,5.205655029296875,4.108410835266113,1.354513168334961,-0.9026349782943726
1759336233075655000,5.215655029296875,4.3910064697265625,1.3361612558364868,-0.6675444841384888
1759336233085655000,5.225655029296875,4.5410003662109375,1.2978118658065796,-0.29867076873779297
1759336233095655000,5.235655029296875,4.475854873657227,1.2888259887695312,0.17609965801239014
1759336233105655000,5.245655029296875,4.2563934326171875,1.2015489339828491,0.5097723007202148
1759336233115656000,5.255656005859375,4.050929069519043,0.9259704351425171,0.683115541934967
1759336233125655800,5.26565576171875,3.919504165649414,0.5656930208206177,0.6679467558860779
1759336233135655700,5.27565576171875,3.5230588912963867,0.4661623239517212,0.5461609363555908
1759336233145655800,5.28565576171875,3.523859977722168,0.4770404100418091,0.5798416137695312
1759336233155655700,5.29565576171875,2.7177085876464844,0.3551011085510254,-0.17850452661514282
1759336233165655800,5.30565576171875,2.681704521179199,0.3351329565048218,-0.5739426612854004
1759336233175655700,5.31565576171875,2.775594711303711,0.35474467277526855,-0.882519006729126
1759336233185655800,5.32565576171875,3.3718461990356445,0.23166310787200928,-0.7749128341674805
1759336233195655700,5.33565576171875,3.850038528442383,0.40608012676239014,-0.5335918068885803
1759336233205655800,5.34565576171875,4.253059387207031,0.8167169094085693,-0.42927759885787964
1759336233215655000,5.355655029296875,4.8445329666137695,1.2192511558532715,-0.44174039363861084
1759336233225654800,5.36565478515625,5.138943672180176,1.1919511556625366,-0.49257248640060425
1759336233235655000,5.375655029296875,4.785025596618652,0.8365350961685181,-0.36993175745010376
1759336233245654800,5.38565478515625,3.9298791885375977,0.3766510486602783,-0.15473198890686035
1759336233255655000,5.395655029296875,3.231273651123047,0.17742013931274414,0.04149740934371948
1759336233265654800,5.40565478515625,2.419902801513672,0.12052178382873535,0.22509163618087769
1759336233275655700,5.41565576171875,1.7291841506958008,0.06996405124664307,0.18273675441741943
1759336233285655600,5.425655517578125,1.2967815399169922,0.08031857013702393,0.17855611443519592
1759336233295655700,5.43565576171875,1.0635261535644531,0.204254150390625,0.2239123284816742
1759336233305655600,5.445655517578125,1.0559349060058594,0.39419686794281006,0.2601637542247772
1759336233315656400,5.455656494140625,1.051091194152832,0.4745234251022339,0.36516714096069336
1759336233325656800,5.46565673828125,0.9907770156860352,0.4481925964355469,0.3354954123497009
1759336233335656700,5.47565673828125,1.001103401184082,0.3789118528366089,0.29709532856941223
1759336233345657300,5.4856572265625,1.0259599685668945,0.4341222047805786,0.032623469829559326
1759336233355657000,5.495656982421875,1.2677583694458008,0.41399919986724854,-0.014318585395812988
1759336233365656800,5.50565673828125,1.1929845809936523,0.3425025939941406,0.11333051323890686
1759336233375656000,5.515656005859375,0.917363166809082,0.2543923854827881,0.3045710027217865
1759336233385655000,5.525655029296875,0.5204944610595703,0.2832491397857666,0.3165603280067444
1759336233395654100,5.535654052734375,0.07527732849121094,0.45966100692749023,0.31441381573677063
1759336233405653500,5.545653564453125,-0.48908519744873047,0.6367486715316772,0.3363981246948242
1759336233415652900,5.55565283203125,-0.4845409393310547,0.6137287616729736,0.32703015208244324
1759336233425652500,5.565652587890625,-1.839813232421875,0.9013187885284424,0.6300536394119263
1759336233435651800,5.57565185546875,-2.2746543884277344,1.01969313621521,0.7993256449699402
1759336233445651500,5.5856513671875,-2.540559768676758,1.1317543983459473,0.8459908962249756
1759336233455650800,5.59565087890625,-2.403322219848633,1.078559398651123,0.7583469152450562
1759336233465650700,5.605650634765625,-1.832155704498291,1.0162909030914307,0.5921695232391357
1759336233475650800,5.61565087890625,-1.514397144317627,1.0969605445861816,0.4075782001018524
1759336233485650700,5.625650634765625,-1.262894630432129,1.2974584102630615,0.25190284848213196
1759336233495650000,5.635650146484375,-1.2389965057373047,1.2174301147460938,0.29733696579933167
1759336233505650200,5.645650146484375,-0.18673992156982422,1.7416162490844727,-0.21669358015060425
1759336233515651000,5.655651123046875,0.5902080535888672,1.7491769790649414,-0.3935283422470093
1759336233525651000,5.66565087890625,0.6065101623535156,1.6873610019683838,-0.41967064142227173
1759336233535651000,5.675651123046875,0.9621620178222656,1.283301830291748,-0.22403669357299805
1759336233545651000,5.68565087890625,0.5711088180541992,0.9154467582702637,0.0723145604133606
1759336233555651000,5.695651123046875,0.3562803268432617,0.5589759349822998,0.4869871139526367
1759336233565651000,5.70565087890625,0.20867633819580078,0.3962514400482178,0.8331149816513062
1759336233575651000,5.715651123046875,-0.03098773956298828,0.35401391983032227,1.0922611951828003
1759336233585651000,5.72565087890625,-0.4641752243041992,0.280881404876709,1.2591209411621094
1759336233595651000,5.735651123046875,-0.7674646377563477,0.20983648300170898,1.15761399269104
1759336233605651000,5.74565087890625,-0.9935665130615234,0.17959022521972656,0.8250832557678223
1759336233615650300,5.755650390625,-1.3403892517089844,0.23476767539978027,0.26513195037841797
1759336233625649400,5.7656494140625,-1.7578907012939453,0.3099172115325928,-0.27490267157554626
1759336233635649000,5.77564892578125,-1.9260478019714355,0.41803598403930664,-0.6646501421928406
1759336233645648100,5.785648193359375,-1.5847687721252441,0.5873150825500488,-0.8599940538406372
1759336233655648000,5.79564794921875,-0.902613639831543,0.7539012432098389,-0.910400927066803
1759336233665647900,5.80564794921875,-0.13203716278076172,0.8767633438110352,-0.8907362222671509
1759336233675647700,5.815647705078125,-0.12898921966552734,0.8701744079589844,-0.8729516863822937
1759336233685648000,5.82564794921875,1.5867376327514648,1.040816068649292,-0.9424088001251221
1759336233695647700,5.835647705078125,1.271378517150879,0.6545615196228027,-0.7912787795066833
1759336233705647400,5.8456474609375,1.0189619064331055,0.3219301700592041,-0.5181651711463928
1759336233715647500,5.8556474609375,0.5734043121337891,0.1093130111694336,-0.4435003995895386
1759336233725646800,5.865646728515625,0.10147857666015625,-0.037353515625,-0.5003549456596375
1759336233735646500,5.875646484375,-0.3314075469970703,-0.20757055282592773,-0.5256915092468262
1759336233745646300,5.885646240234375,-0.7679815292358398,-0.4651517868041992,-0.42758995294570923
1759336233755646000,5.89564599609375,-0.9039154052734375,-0.7286688089370728,-0.11190328001976013
1759336233765645000,5.90564501953125,-0.33673763275146484,-0.6829004287719727,0.07154130935668945
1759336233775644200,5.91564404296875,0.7253475189208984,-0.7018290758132935,0.24571314454078674
1759336233785643500,5.9256435546875,1.5398931503295898,-0.597419261932373,0.3699018955230713
1759336233795643100,5.93564306640625,2.0441484451293945,-0.45076000690460205,0.35255351662635803
1759336233805642200,5.945642333984375,2.149764060974121,-0.582366943359375,0.3813677430152893
1759336233815641300,5.955641357421875,1.646611213684082,-0.6631020307540894,0.40612587332725525
1759336233825640400,5.965640380859375,0.9866971969604492,-0.6918736696243286,0.48016196489334106
1759336233845638700,5.985638671875,-0.2997608184814453,-0.6684263944625854,0.6597933769226074
1759336233855637800,5.9956376953125,-0.5896272659301758,-0.6589884757995605,0.6199477314949036
1759336233865637000,6.00563720703125,-0.8336162567138672,-0.5863152742385864,0.6096489429473877
1759336233875636200,6.01563623046875,-1.0091428756713867,-0.5358332395553589,0.5467926263809204
1759336233885635300,6.02563525390625,-0.9231147766113281,-0.5370972156524658,0.43418219685554504
1759336233895634400,6.035634521484375,-0.8204278945922852,-0.34287238121032715,0.4315834045410156
1759336233905633500,6.045633544921875,-0.4503908157348633,-0.24283838272094727,0.3049186170101166
1759336233915633400,6.05563330078125,-0.011780738830566406,-0.17249155044555664,0.11920060962438583
1759336233925633500,6.065633544921875,0.28264904022216797,-0.047028303146362305,-0.025164246559143066
1759336233935633400,6.07563330078125,0.5311212539672852,0.03037858009338379,-0.20925627648830414
1759336233945633500,6.085633544921875,0.6117630004882812,0.06612586975097656,-0.28198033571243286
1759336233955633400,6.09563330078125,0.5880098342895508,0.03856921195983887,-0.2790343761444092
1759336233965633500,6.105633544921875,0.582829475402832,0.05893850326538086,-0.28760895133018494
1759336233975633400,6.11563330078125,0.32602405548095703,-0.015575647354125977,-0.1851259171962738
1759336233985633500,6.125633544921875,0.10976314544677734,-0.015438556671142578,-0.19418922066688538
1759336233995633400,6.13563330078125,-0.037444114685058594,-0.025861501693725586,-0.17436546087265015
1759336234005633500,6.145633544921875,-0.07539844512939453,-0.03027796745300293,-0.1760941445827484
1759336234015633400,6.15563330078125,-0.10534000396728516,-0.02104043960571289,-0.25339049100875854
1759336234025633800,6.1656337890625,-0.09213829040527344,0.03847479820251465,-0.30969080328941345
1759336234035634400,6.175634521484375,-0.1582622528076172,0.09455513954162598,-0.22478197515010834
1759336234045635300,6.18563525390625,-0.23694229125976562,0.1146855354309082,-0.05963745713233948
1759336234055636200,6.19563623046875,-0.23515892028808594,0.10740089416503906,-0.06602884083986282
1759336234065637000,6.20563720703125,-0.33217334747314453,0.11935997009277344,0.07163739204406738
1759336234075638000,6.215637939453125,-0.33394432067871094,0.10461640357971191,0.07772131264209747
1759336234085639000,6.225638916015625,-0.1926898956298828,0.04927635192871094,-0.013076193630695343
1759336234095639800,6.235639892578125,-0.07836627960205078,0.06816816329956055,-0.05983772128820419
1759336234105640700,6.245640625,-0.07018375396728516,0.05435037612915039,-0.08673866838216782
1759336234115641600,6.2556416015625,0.025757789611816406,-0.01359415054321289,-0.05061039328575134
1759336234125642500,6.265642578125,0.16655254364013672,-0.06215953826904297,-0.047595202922821045
1759336234135643400,6.275643310546875,0.18243122100830078,-0.049112796783447266,-0.03230411559343338
1759336234145644300,6.285644287109375,0.15503787994384766,-0.07835650444030762,-0.03434300050139427
1759336234155645200,6.295645263671875,0.024680137634277344,-0.11702871322631836,-0.015973158180713654
1759336234165646000,6.30564599609375,-0.011798858642578125,-0.16485190391540527,0.004782484844326973
1759336234175646700,6.315646728515625,0.05752754211425781,-0.1666121482849121,0.06406863778829575
1759336234185647600,6.325647705078125,0.12722206115722656,-0.14350056648254395,0.07838307321071625
1759336234195648500,6.3356484375,0.22364139556884766,-0.208146333694458,0.035300664603710175
1759336234205649400,6.3456494140625,0.22486114501953125,-0.27033448219299316,-0.04066000133752823
1759336234215649500,6.3556494140625,0.1645517349243164,-0.23253965377807617,-0.03923413157463074
1759336234225650400,6.365650390625,0.10021400451660156,-0.22424077987670898,0.018100451678037643
1759336234235651300,6.3756513671875,0.11312675476074219,-0.18024563789367676,0.03099127858877182
1759336234245652200,6.38565234375,0.08340072631835938,-0.14052128791809082,0.03703135997056961
1759336234255653000,6.395653076171875,0.08495330810546875,-0.1468973159790039,0.04022197425365448
1759336234265654000,6.405654052734375,0.08571147918701172,-0.07816386222839355,0.063378244638443
1759336234275655000,6.415655029296875,0.005077362060546875,-0.1219785213470459,0.0011764951050281525
1759336234285655800,6.42565576171875,-0.09739303588867188,-0.15984487533569336,-0.025930488482117653
1759336234295656700,6.43565673828125,-0.10901737213134766,-0.18042659759521484,-0.007795622572302818
1759336234305657600,6.44565771484375,-0.09201240539550781,-0.1646871566772461,0.02819945476949215
1759336234315658500,6.455658447265625,-0.11600303649902344,-0.10944032669067383,0.04700842127203941
1759336234325659100,6.4656591796875,-0.16434955596923828,-0.06925439834594727,0.054172538220882416
1759336234335659000,6.475658935546875,-0.14132213592529297,-0.05115079879760742,0.033645372837781906
1759336234345659100,6.4856591796875,-0.11154842376708984,-0.03843069076538086,-0.005090600810945034
1759336234355659000,6.495658935546875,-0.00058746337890625,-0.04874396324157715,-0.06960676610469818
1759336234365659100,6.5056591796875,0.0933065414428711,-0.0338292121887207,-0.08626425266265869
1759336234375659000,6.515658935546875,0.09138774871826172,-0.025882482528686523,-0.08572845906019211
1759336234385659100,6.5256591796875,0.15915966033935547,-0.03334403038024902,-0.13494083285331726
1759336234395659000,6.535658935546875,0.16045761108398438,-0.06469321250915527,-0.14747771620750427
1759336234405659100,6.5456591796875,0.17160511016845703,-0.034924983978271484,-0.10793605446815491
1759336234415658200,6.555658203125,0.12060260772705078,-0.06781339645385742,-0.05181070789694786
1759336234425658000,6.565658203125,0.08862018585205078,-0.08337998390197754,0.002002352848649025
1759336234435658200,6.575658203125,0.051659584045410156,-0.11490273475646973,0.055392876267433167
1759336234445658000,6.585658203125,0.050377845764160156,-0.10951852798461914,0.053547538816928864
1759336234455658200,6.595658203125,-0.006133079528808594,-0.19202017784118652,0.07109956443309784
1759336234465658000,6.605658203125,0.045027732849121094,-0.20717549324035645,0.006308087147772312
1759336234475658200,6.615658203125,0.081787109375,-0.2077927589416504,-0.06649031490087509
1759336234485658000,6.625658203125,0.06350231170654297,-0.19890356063842773,-0.114276222884655
1759336234495658200,6.635658203125,0.006993293762207031,-0.17598319053649902,-0.11391761898994446
1759336234505658000,6.645658203125,0.015389442443847656,-0.12782955169677734,-0.06336670368909836
1759336234515659000,6.655658935546875,-0.061804771423339844,-0.10378861427307129,0.036805734038352966
1759336234525659100,6.6656591796875,-0.23676681518554688,-0.07665801048278809,0.08887297660112381
1759336234535659000,6.675658935546875,-0.3035697937011719,-0.18301892280578613,0.09424838423728943
1759336234545659100,6.6856591796875,0.20867443084716797,-0.10894417762756348,-0.10666245967149734
1759336234555659000,6.695658935546875,0.213226318359375,-0.12824535369873047,-0.10217370092868805
1759336234565659100,6.7056591796875,0.31424999237060547,0.07467913627624512,-0.13069763779640198
1759336234575659000,6.715658935546875,0.24435901641845703,0.13080978393554688,-0.08384126424789429
1759336234585659100,6.7256591796875,0.27286720275878906,0.1409447193145752,-0.08492248505353928
1759336234595659000,6.735658935546875,0.10219764709472656,0.1198275089263916,-0.09718341380357742
1759336234605659100,6.7456591796875,0.08661651611328125,0.06539535522460938,-0.10724551975727081
1759336234615658200,6.755658203125,0.13144397735595703,-0.02429485321044922,-0.0969729870557785
1759336234625658400,6.765658447265625,0.09758472442626953,-0.11272573471069336,-0.05579977482557297
1759336234635658200,6.775658203125,0.012526512145996094,-0.11386895179748535,-0.019500087946653366
1759336234645658400,6.785658447265625,-0.14480209350585938,-0.11372041702270508,0.04871559143066406
1759336234655658200,6.795658203125,-0.29543495178222656,-0.16246843338012695,0.01175612397491932
1759336234665658400,6.805658447265625,-0.27474212646484375,-0.20019912719726562,0.03587283939123154
1759336234675658200,6.815658203125,-0.0640420913696289,-0.1793506145477295,0.03133293241262436
1759336234685658400,6.825658447265625,0.02933216094970703,-0.13208293914794922,-0.031016487628221512
1759336234695658200,6.835658203125,0.04321861267089844,-0.0827341079711914,0.000658244825899601
1759336234705658400,6.845658447265625,0.2431650161743164,-0.05199742317199707,0.0030840104445815086
1759336234715659300,6.8556591796875,0.2391510009765625,-0.04326438903808594,-0.021374797448515892
1759336234725659100,6.8656591796875,0.19663619995117188,-0.06483626365661621,-0.02295527048408985
1759336234735659300,6.8756591796875,0.19491863250732422,-0.08441948890686035,-0.0067743901163339615
1759336234745659100,6.8856591796875,0.2196969985961914,-0.06159019470214844,-0.013249428942799568
1759336234755659300,6.8956591796875,0.22077655792236328,-0.08526730537414551,-0.037194736301898956
1759336234765659100,6.9056591796875,0.13347148895263672,-0.10499978065490723,-0.047988004982471466
1759336234775659300,6.9156591796875,0.010632514953613281,-0.12630677223205566,-0.007435483857989311
1759336234785659100,6.9256591796875,-0.07595348358154297,-0.12984466552734375,0.01601429283618927
1759336234795659300,6.9356591796875,-0.08565902709960938,-0.12965631484985352,0.06150500103831291
1759336234805659100,6.9456591796875,-0.05225658416748047,-0.10075044631958008,0.05050700157880783
1759336234815658200,6.955658203125,-0.05481243133544922,-0.06441974639892578,0.0500878281891346
1759336234825658400,6.965658447265625,-0.1173849105834961,-0.03457522392272949,0.05398987606167793
1759336234835658200,6.975658203125,-0.14911556243896484,-0.06101369857788086,0.05303345248103142
1759336234845658400,6.985658447265625,-0.14264583587646484,-0.053475141525268555,0.04104454070329666
1759336234855658200,6.995658203125,-0.1413116455078125,-0.0588679313659668,0.042377471923828125
1759336234865658400,7.005658447265625,0.07042217254638672,-0.008008956909179688,-0.04008198156952858
1759336234875658200,7.015658203125,0.15229511260986328,-0.03384685516357422,-0.039642639458179474
1759336234885658400,7.025658447265625,0.22200489044189453,-0.051726579666137695,-0.08066928386688232
1759336234895658200,7.035658203125,0.2630805969238281,-0.07478618621826172,-0.07193294912576675
1759336234905658400,7.045658447265625,0.24454593658447266,-0.12277531623840332,-0.037695158272981644
1759336234915659300,7.0556591796875,0.2549867630004883,-0.14062118530273438,0.003267623484134674
1759336234925659100,7.0656591796875,0.27089977264404297,-0.12049198150634766,0.053230658173561096
1759336234935659300,7.0756591796875,0.20631122589111328,-0.04407954216003418,0.08638941496610641
1759336234945659100,7.0856591796875,0.1620626449584961,0.034857988357543945,0.12058073282241821
1759336234955659300,7.0956591796875,0.06412792205810547,0.055802345275878906,0.16557438671588898
1759336234965659100,7.1056591796875,0.07071590423583984,0.03011918067932129,0.1707490086555481
1759336234975659300,7.1156591796875,-0.209320068359375,0.014107465744018555,0.2282983958721161
1759336234985659100,7.1256591796875,-0.33322715759277344,-0.053708553314208984,0.11038242280483246
1759336234995659300,7.1356591796875,-0.23169231414794922,0.009121417999267578,-0.06865333765745163
1759336235005659100,7.1456591796875,-0.2228870391845703,-0.02329850196838379,-0.055586278438568115
1759336235015658200,7.155658203125,-0.34426116943359375,-0.07834315299987793,-0.2596330940723419
1759336235025658400,7.165658447265625,-0.47706127166748047,0.02682781219482422,-0.2645106315612793
1759336235035658200,7.175658203125,-0.5379848480224609,0.0974884033203125,-0.22775396704673767
1759336235045658400,7.185658447265625,-0.3051471710205078,0.10520100593566895,-0.18866685032844543
1759336235055658200,7.195658203125,-0.09717464447021484,0.08183598518371582,-0.1718606948852539
1759336235065658400,7.205658447265625,0.17264461517333984,0.01849222183227539,-0.11261048167943954
1759336235075658200,7.215658203125,0.37105560302734375,-0.07563066482543945,-0.1196342408657074
1759336235085658400,7.225658447265625,0.5181951522827148,-0.09395933151245117,-0.07601085305213928
1759336235095658200,7.235658203125,0.5890092849731445,-0.0699620246887207,0.010538056492805481
1759336235105658400,7.245658447265625,0.42154693603515625,-0.0716545581817627,0.12484525144100189
1759336235115659300,7.2556591796875,0.3757457733154297,-0.08535623550415039,0.21260061860084534
1759336235125659100,7.2656591796875,0.377960205078125,-0.08217835426330566,0.21657800674438477
1759336235135659300,7.2756591796875,0.3517913818359375,-0.07989001274108887,0.059345923364162445
1759336235145659100,7.2856591796875,0.4119873046875,-0.12822246551513672,-0.12711341679096222
1759336235155659300,7.2956591796875,0.3498497009277344,-0.09628582000732422,-0.2620655298233032
1759336235165659100,7.3056591796875,0.2605581283569336,-0.07038378715515137,-0.2921539843082428
1759336235175659300,7.3156591796875,0.1435861587524414,-0.08429574966430664,-0.21032185852527618
1759336235185659100,7.3256591796875,-0.06628990173339844,-0.05425858497619629,-0.09210018813610077
1759336235195659300,7.3356591796875,-0.22151756286621094,-0.029621362686157227,-0.040115371346473694
1759336235205659100,7.3456591796875,-0.2148122787475586,-0.05422043800354004,-0.043727725744247437
1759336235215658200,7.355658203125,-0.20927143096923828,-0.0648958683013916,0.013817504048347473
1759336235225658400,7.365658447265625,-0.25994014739990234,-0.13121557235717773,0.03267301619052887
1759336235235658200,7.375658203125,-0.22524166107177734,-0.10091614723205566,-0.03612987697124481
1759336235245658400,7.385658447265625,-0.23894977569580078,-0.01813650131225586,-0.1050124317407608
1759336235255658200,7.395658203125,-0.21217727661132812,0.003376007080078125,-0.08054140210151672
1759336235265658400,7.405658447265625,-0.2499837875366211,0.053391456604003906,-0.044899314641952515
1759336235275658200,7.415658203125,-0.3307485580444336,0.052507638931274414,0.05274856090545654
1759336235285658400,7.425658447265625,-0.3279142379760742,0.04260873794555664,0.05206643044948578
1759336235295658200,7.435658203125,-0.23954296112060547,0.08757996559143066,0.08096154779195786
1759336235305658400,7.445658447265625,-0.17143535614013672,0.0764303207397461,0.07204978168010712
1759336235315659000,7.455658935546875,-0.016340255737304688,0.11644601821899414,0.09183511883020401
1759336235325659100,7.4656591796875,0.08547496795654297,0.06544160842895508,0.007677406072616577
1759336235335659000,7.475658935546875,0.3596305847167969,0.02670884132385254,-0.15796558558940887
1759336235345659100,7.4856591796875,0.4394855499267578,0.11151862144470215,-0.2666271924972534
1759336235355659000,7.495658935546875,0.43952178955078125,0.036249637603759766,-0.288405179977417
1759336235365659100,7.5056591796875,0.3600502014160156,-0.01596999168395996,-0.16811639070510864
1759336235375659000,7.515658935546875,0.12235355377197266,-0.07242083549499512,-0.06509877741336823
1759336235385659100,7.5256591796875,-0.009912490844726562,-0.09811043739318848,-0.06650732457637787
1759336235395659000,7.535658935546875,-0.12265682220458984,-0.1250307559967041,-0.03647226095199585
1759336235405659100,7.5456591796875,-0.08688640594482422,-0.17613983154296875,0.04110299050807953
1759336235415658200,7.555658203125,-0.13473224639892578,-0.16322684288024902,0.10172814130783081
1759336235425658400,7.565658447265625,-0.05497932434082031,-0.13841605186462402,0.11488309502601624
1759336235435658200,7.575658203125,-0.07438468933105469,-0.10637116432189941,0.07214374095201492
1759336235445658400,7.585658447265625,0.0031147003173828125,-0.07101225852966309,-0.03238895535469055
1759336235455658200,7.595658203125,0.052616119384765625,-0.004609107971191406,-0.1038275957107544
1759336235465658400,7.605658447265625,0.004344940185546875,0.0509033203125,-0.1313888281583786
1759336235475658200,7.615658203125,0.006375312805175781,0.04415774345397949,-0.12488879263401031
1759336235485658400,7.625658447265625,-0.054162025451660156,0.05546975135803223,-0.0806802362203598
1759336235495658200,7.635658203125,0.04530143737792969,0.05405473709106445,-0.12315569818019867
1759336235505658400,7.645658447265625,0.0840911865234375,0.019507169723510742,-0.20097844302654266
1759336235515659000,7.655658935546875,0.13874053955078125,-0.033704280853271484,-0.17255108058452606
1759336235525659100,7.6656591796875,0.37951183319091797,-0.03704118728637695,-0.12036247551441193
1759336235535659000,7.675658935546875,0.4571514129638672,0.00851297378540039,-0.010245203971862793
1759336235545659100,7.6856591796875,0.18558120727539062,-0.012298583984375,0.17290858924388885
1759336235555659000,7.695658935546875,0.10908126831054688,-0.08262968063354492,0.23390096426010132
1759336235565659100,7.7056591796875,0.13962268829345703,-0.03163027763366699,0.14242038130760193
1759336235575659000,7.715658935546875,-0.11312198638916016,-0.026752948760986328,0.12158873677253723
1759336235585659100,7.7256591796875,-0.23051071166992188,-0.047640323638916016,0.11992577463388443
1759336235595659000,7.735658935546875,-0.3732147216796875,-0.02608799934387207,0.01994490623474121
1759336235605659100,7.7456591796875,-0.3670644760131836,-0.04638051986694336,0.031138509511947632
1759336235615658200,7.755658203125,0.10390567779541016,0.05448007583618164,-0.3189430236816406
1759336235625658400,7.765658447265625,0.959197998046875,0.14522075653076172,-0.727469801902771
1759336235635658200,7.775658203125,0.6787519454956055,0.20507597923278809,-0.4730193614959717
