time,seconds_elapsed,z,y,x
1759336095744511000,0.088510986328125,0.11438560485839844,-0.08895301818847656,0.03738057613372803
1759336095774511000,0.118510986328125,0.07839298248291016,-0.04870176315307617,0.0476648211479187
1759336095784511000,0.128510986328125,0.034305572509765625,-0.05632758140563965,0.04573690891265869
1759336095794511000,0.138510986328125,-0.028967857360839844,-0.04468083381652832,0.07022035121917725
1759336095804511000,0.148510986328125,-0.080078125,-0.01247406005859375,0.11538583040237427
1759336095814511000,0.158510986328125,-0.019407272338867188,-0.016086101531982422,0.1857876181602478
1759336095824510200,0.16851025390625,0.0429534912109375,0.013164281845092773,0.21648108959197998
1759336095834510000,0.178510009765625,0.06620311737060547,-0.006291866302490234,0.1587233543395996
1759336095844510200,0.18851025390625,0.021719932556152344,-0.01966714859008789,0.10814565420150757
1759336095854510000,0.198510009765625,0.0179290771484375,-0.002370595932006836,0.08314424753189087
1759336095864510200,0.20851025390625,0.031000137329101562,-0.01417994499206543,0.13743048906326294
1759336095874510000,0.218510009765625,0.05183219909667969,0.006174802780151367,0.16909795999526978
1759336095884510200,0.22851025390625,-0.032074928283691406,0.05882716178894043,0.10321086645126343
1759336095894510000,0.238510009765625,-0.08402824401855469,0.06859230995178223,0.08926182985305786
1759336095904510200,0.24851025390625,-0.09950542449951172,0.05789589881896973,0.13166707754135132
1759336095914510000,0.258510009765625,-0.15313339233398438,0.08580803871154785,0.16437780857086182
1759336095924511000,0.268510986328125,-0.1207275390625,0.06694149971008301,0.1997120976448059
1759336095934510800,0.2785107421875,-0.10304832458496094,0.06350231170654297,0.1727590560913086
1759336095944511000,0.288510986328125,-0.11190605163574219,0.0027425289154052734,0.0970425009727478
1759336095954511000,0.298510986328125,-0.0928201675415039,-0.06089639663696289,0.09435051679611206
1759336095964511000,0.308510986328125,0.0045166015625,-0.08448934555053711,0.09317094087600708
1759336095974511000,0.318510986328125,0.03472709655761719,-0.08923864364624023,0.11063510179519653
1759336095984511000,0.328510986328125,0.05818748474121094,-0.11492633819580078,0.07717865705490112
1759336095994511000,0.338510986328125,0.03170585632324219,-0.06750822067260742,0.041814208030700684
1759336096004511000,0.348510986328125,-0.023342132568359375,-0.07523775100708008,0.024302005767822266
1759336096014511000,0.358510986328125,-0.09741783142089844,-0.016111135482788086,0.05885988473892212
1759336096024510200,0.36851025390625,-0.11869525909423828,-0.012190818786621094,0.032811522483825684
1759336096034510000,0.378510009765625,-0.03729534149169922,0.01915764808654785,0.003367900848388672
1759336096044510200,0.38851025390625,0.012462615966796875,-0.017195463180541992,0.03059297800064087
1759336096054510000,0.398510009765625,0.06936359405517578,-0.04389524459838867,0.0364108681678772
1759336096064510200,0.40851025390625,0.14448833465576172,-0.06030154228210449,0.08395946025848389
1759336096074510000,0.418510009765625,0.1883831024169922,-0.0714418888092041,0.08071541786193848
1759336096084510200,0.42851025390625,0.1750335693359375,-0.04973292350769043,0.07523977756500244
1759336096094510000,0.438510009765625,0.11681079864501953,-0.010732412338256836,0.09155309200286865
1759336096104510200,0.44851025390625,0.026185989379882812,0.007859230041503906,0.10438817739486694
1759336096114510000,0.458510009765625,-0.07084465026855469,0.038431406021118164,0.08409905433654785
1759336096124511000,0.468510986328125,-0.13881587982177734,0.04894208908081055,0.04450339078903198
1759336096134511000,0.478510986328125,-0.19993305206298828,0.05564737319946289,0.05751127004623413
1759336096144511000,0.488510986328125,-0.21364688873291016,0.04703187942504883,0.06080251932144165
1759336096154511000,0.498510986328125,-0.17798519134521484,0.0528872013092041,0.023808598518371582
1759336096164511000,0.508510986328125,-0.12186717987060547,0.01598834991455078,-0.07403415441513062
1759336096174511000,0.518510986328125,-0.018509864807128906,0.013933181762695312,-0.1389404535293579
1759336096184511000,0.528510986328125,0.07011699676513672,-0.0058481693267822266,-0.18103522062301636
1759336096194511000,0.538510986328125,0.05393028259277344,-0.00743412971496582,-0.12207216024398804
1759336096204511000,0.548510986328125,0.08713531494140625,-0.01517796516418457,-0.08430618047714233
1759336096214511000,0.558510986328125,0.03377056121826172,0.012863397598266602,-0.054494380950927734
1759336096224510200,0.56851025390625,-0.0424346923828125,0.021301984786987305,-0.02341139316558838
1759336096234510000,0.578510009765625,-0.07298564910888672,0.04590296745300293,0.029693424701690674
1759336096244510200,0.58851025390625,-0.020089149475097656,0.03997230529785156,0.09618949890136719
1759336096254510000,0.598510009765625,-0.0308074951171875,0.035028934478759766,0.12627696990966797
1759336096264510200,0.60851025390625,0.035770416259765625,0.03187751770019531,0.1205364465713501
1759336096274510000,0.618510009765625,0.09618759155273438,-0.011454343795776367,0.07508492469787598
1759336096284510200,0.62851025390625,0.12468433380126953,-0.048111677169799805,0.03580451011657715
1759336096294510000,0.638510009765625,0.1697702407836914,-0.07220959663391113,0.02025437355041504
1759336096304510200,0.64851025390625,0.1891336441040039,-0.052652597427368164,-0.023833274841308594
1759336096314510000,0.658510009765625,0.08721256256103516,-0.04484724998474121,-0.07818764448165894
1759336096324511000,0.668510986328125,0.04423999786376953,-0.01684093475341797,-0.13449203968048096
1759336096334511000,0.678510986328125,-0.03873729705810547,0.01906895637512207,-0.1416940689086914
1759336096344511000,0.688510986328125,-0.13575077056884766,0.04711103439331055,-0.16172534227371216
1759336096354510800,0.6985107421875,-0.14658164978027344,0.06511521339416504,-0.13472986221313477
1759336096364511000,0.708510986328125,-0.14846134185791016,0.10393762588500977,-0.0832405686378479
1759336096374511000,0.718510986328125,-0.1390066146850586,0.10151171684265137,-0.06763303279876709
1759336096384510700,0.7285107421875,-0.16121673583984375,0.07672595977783203,-0.08557164669036865
1759336096394510800,0.7385107421875,-0.09987068176269531,0.07633233070373535,-0.08591872453689575
1759336096404510700,0.7485107421875,-0.057747840881347656,0.08081984519958496,-0.04999440908432007
1759336096414510800,0.7585107421875,0.034775733947753906,0.07342052459716797,-0.003506958484649658
1759336096424510000,0.768510009765625,0.08216476440429688,0.07258915901184082,-0.013433635234832764
1759336096434509800,0.778509765625,0.13968467712402344,0.02944493293762207,-0.011453568935394287
1759336096444510000,0.788510009765625,0.13538551330566406,0.07120442390441895,0.005001187324523926
1759336096454509800,0.798509765625,0.0640869140625,0.06273818016052246,0.006567120552062988
1759336096464510000,0.808510009765625,0.011876106262207031,0.05207180976867676,0.05599772930145264
1759336096474509800,0.818509765625,-0.025856971740722656,0.08858108520507812,0.020473599433898926
1759336096484510000,0.828510009765625,-0.09004592895507812,0.07242465019226074,-0.001986563205718994
1759336096494509800,0.838509765625,-0.08999919891357422,0.06209850311279297,-0.0024111270904541016
1759336096504510000,0.848510009765625,-0.011106491088867188,0.05709266662597656,-0.012587785720825195
1759336096514509800,0.858509765625,0.007809638977050781,0.0074007511138916016,0.00931084156036377
1759336096524510700,0.8685107421875,0.03862571716308594,-0.005827665328979492,0.013331055641174316
1759336096534510800,0.8785107421875,0.07416629791259766,-0.050183773040771484,0.046710431575775146
1759336096544510700,0.8885107421875,0.066650390625,-0.05402660369873047,0.018066823482513428
1759336096554510800,0.8985107421875,0.04790687561035156,-0.033503055572509766,-0.006445586681365967
1759336096564510700,0.9085107421875,0.036576271057128906,-0.044558048248291016,-0.007703244686126709
1759336096574510800,0.9185107421875,0.01092529296875,-0.048589468002319336,-0.011270225048065186
1759336096584510700,0.9285107421875,0.00395965576171875,-0.05384421348571777,-0.007018566131591797
1759336096594510800,0.9385107421875,-0.04191112518310547,-0.06474184989929199,-0.016457200050354004
1759336096604510700,0.9485107421875,-0.07166004180908203,-0.045140981674194336,-0.04236680269241333
1759336096614510800,0.9585107421875,-0.037133216857910156,-0.03219032287597656,-0.07608872652053833
1759336096624510000,0.968510009765625,-0.048089027404785156,-0.012188911437988281,-0.13816577196121216
1759336096634509800,0.978509765625,0.0130462646484375,0.0360112190246582,-0.16031742095947266
1759336096644510000,0.988510009765625,0.0457305908203125,0.06440877914428711,-0.12794935703277588
1759336096654509800,0.998509765625,0.07644081115722656,0.07029509544372559,-0.07010859251022339
1759336096664510000,1.008510009765625,0.11214447021484375,0.0901188850402832,0.0015462040901184082
1759336096674509800,1.018509765625,0.11176586151123047,0.060326337814331055,0.03674876689910889
1759336096684510000,1.028510009765625,0.08986091613769531,0.04028177261352539,0.032894790172576904
1759336096694510000,1.038510009765625,0.0657052993774414,0.04152560234069824,-0.0025960206985473633
1759336096704510000,1.048510009765625,0.0034027099609375,0.03257393836975098,-0.030424118041992188
1759336096714510000,1.058510009765625,-0.07527351379394531,0.04151034355163574,-0.02912086248397827
1759336096724511000,1.068510986328125,-0.08669185638427734,0.03284144401550293,-0.0008345246315002441
1759336096734510800,1.0785107421875,-0.08374214172363281,0.028831005096435547,0.020668208599090576
1759336096744511000,1.088510986328125,-0.08339500427246094,0.027677536010742188,0.02109682559967041
1759336096754510800,1.0985107421875,0.01459503173828125,0.05872154235839844,0.04930555820465088
1759336096764511000,1.108510986328125,-0.014759063720703125,0.03578472137451172,0.047165751457214355
1759336096784510000,1.128510009765625,0.03639030456542969,-0.026247024536132812,0.029246091842651367
1759336096794510000,1.138510009765625,0.009425163269042969,-0.05101752281188965,0.018198013305664062
1759336096804510000,1.148510009765625,0.011716842651367188,-0.07192301750183105,0.021889030933380127
1759336096814510000,1.158510009765625,0.06219482421875,-0.07901334762573242,0.019692957401275635
1759336096824509200,1.16850927734375,-0.018436431884765625,-0.06601262092590332,-0.011952459812164307
1759336096834509000,1.178509033203125,-0.06516265869140625,-0.07101869583129883,-0.007324635982513428
1759336096844509200,1.18850927734375,-0.02807331085205078,-0.05511116981506348,0.003975391387939453
1759336096854509000,1.198509033203125,-0.039254188537597656,-0.06253170967102051,0.012175142765045166
1759336096864509200,1.20850927734375,0.04676055908203125,-0.07007074356079102,0.01977229118347168
1759336096874509000,1.218509033203125,0.07898521423339844,-0.08704137802124023,-0.0037279129028320312
1759336096884509200,1.22850927734375,0.05552196502685547,-0.07618284225463867,-0.042896151542663574
1759336096894509000,1.238509033203125,0.022332191467285156,-0.09088850021362305,-0.07109701633453369
1759336096904509200,1.24850927734375,-0.048282623291015625,-0.09054160118103027,-0.05190521478652954
1759336096914509000,1.258509033203125,-0.07023239135742188,-0.05592966079711914,-0.05639171600341797
1759336096924510000,1.268510009765625,-0.16089534759521484,-0.03242039680480957,-0.017322778701782227
1759336096934510000,1.278510009765625,-0.21041107177734375,-0.019598722457885742,-0.02680826187133789
1759336096944510000,1.288510009765625,-0.18341636657714844,0.009816408157348633,0.022715985774993896
1759336096954510000,1.298510009765625,-0.15469074249267578,0.021130800247192383,0.005759775638580322
1759336096964510000,1.308510009765625,-0.17708587646484375,-0.07350730895996094,-0.09271293878555298
1759336096974510000,1.318510009765625,0.0011348724365234375,-0.006685733795166016,-0.12036281824111938
1759336096984510000,1.328510009765625,-0.06469917297363281,0.05732607841491699,-0.018802523612976074
1759336096994510000,1.338510009765625,-0.04615592956542969,0.009813070297241211,-0.004456818103790283
1759336097004510000,1.348510009765625,-0.029633522033691406,-0.007736682891845703,-0.08326643705368042
1759336097014510000,1.358510009765625,0.018141746520996094,-0.01086878776550293,-0.12278985977172852
1759336097024509200,1.36850927734375,0.11391258239746094,-0.054375410079956055,-0.1262257695198059
1759336097034509300,1.37850927734375,0.22385311126708984,-0.07784533500671387,-0.04689723253250122
1759336097044509200,1.38850927734375,0.22339916229248047,-0.07660603523254395,-0.046552836894989014
1759336097054509300,1.39850927734375,0.2083415985107422,-0.11330413818359375,-0.009171366691589355
1759336097064509000,1.408509033203125,0.19327354431152344,-0.019013166427612305,0.028264760971069336
1759336097074508800,1.4185087890625,0.19040298461914062,-0.031130075454711914,0.04552680253982544
1759336097084509700,1.428509765625,0.20709705352783203,0.024678468704223633,0.08536207675933838
1759336097094509800,1.438509765625,0.16674518585205078,0.09344816207885742,0.05884367227554321
1759336097104509700,1.448509765625,0.08112525939941406,0.11126160621643066,0.051629602909088135
1759336097114509800,1.458509765625,0.019412994384765625,0.11734175682067871,0.09907740354537964
1759336097124510500,1.468510498046875,-0.04006385803222656,0.07612800598144531,0.09826236963272095
1759336097134510600,1.478510498046875,-0.14748287200927734,0.057050466537475586,0.07445508241653442
1759336097144510700,1.4885107421875,-0.23582172393798828,0.08403730392456055,0.035021066665649414
1759336097154510600,1.498510498046875,-0.28094482421875,0.08696913719177246,0.0019248723983764648
1759336097164510700,1.5085107421875,-0.2998781204223633,0.08823752403259277,-0.06337505578994751
1759336097174510600,1.518510498046875,-0.29996395111083984,0.0880434513092041,-0.06175738573074341
1759336097184769500,1.52876953125,-0.04917335510253906,0.04856729507446289,-0.1531783938407898
1759336097194769400,1.538769287109375,0.10309123992919922,0.007747173309326172,-0.1056891679763794
1759336097204769500,1.54876953125,0.1835031509399414,-0.016130685806274414,0.003704965114593506
1759336097214769400,1.558769287109375,0.19026851654052734,-0.022208213806152344,0.05442464351654053
1759336097224768500,1.5687685546875,0.1403036117553711,-0.020577192306518555,0.07540357112884521
1759336097234768600,1.5787685546875,0.062142372131347656,-0.02977275848388672,0.06408661603927612
1759336097244768500,1.5887685546875,-0.015779495239257812,-0.06103968620300293,0.02819383144378662
1759336097254768600,1.5987685546875,-0.02436065673828125,-0.05634760856628418,0.019457101821899414
1759336097264768500,1.6087685546875,-0.033203125,-0.06073808670043945,0.009317338466644287
1759336097274768600,1.6187685546875,-0.015709877014160156,-0.055738210678100586,0.011829078197479248
1759336097284768500,1.6287685546875,-0.038758277893066406,-0.03918051719665527,0.0213356614112854
1759336097294768600,1.6387685546875,-0.03285980224609375,-0.011121034622192383,0.018297672271728516
1759336097304768500,1.6487685546875,0.011533737182617188,-0.019388437271118164,0.05069994926452637
1759336097314768600,1.6587685546875,0.04864311218261719,-0.01268625259399414,0.026912152767181396
1759336097324769500,1.66876953125,0.03525543212890625,-0.03861260414123535,0.05731087923049927
1759336097334769400,1.678769287109375,0.055240631103515625,-0.10952949523925781,0.08744996786117554
1759336097344769300,1.688769287109375,0.07501411437988281,-0.08646035194396973,0.014660179615020752
1759336097354769400,1.698769287109375,0.025528907775878906,-0.10202264785766602,-0.034804463386535645
1759336097364769800,1.708769775390625,0.03893280029296875,-0.12413525581359863,-0.03432267904281616
1759336097374770000,1.71877001953125,0.021280288696289062,-0.06271648406982422,-0.02878361940383911
1759336097384769800,1.728769775390625,0.02740478515625,0.01331639289855957,-0.003231823444366455
1759336097394770000,1.73877001953125,0.14064693450927734,0.0333099365234375,0.0523834228515625
1759336097404769800,1.748769775390625,0.11431312561035156,0.06943535804748535,0.1354108452796936
1759336097414770000,1.75877001953125,0.056710243225097656,0.11305046081542969,0.13981854915618896
1759336097424769000,1.76876904296875,0.016122817993164062,0.1602616310119629,0.11230552196502686
1759336097434769000,1.778768798828125,0.01646137237548828,0.15863323211669922,0.11460578441619873
1759336097444768800,1.788768798828125,-0.1073150634765625,0.148773193359375,0.02330958843231201
1759336097454769000,1.798768798828125,-0.15651226043701172,0.15970349311828613,0.02203887701034546
1759336097464768800,1.808768798828125,-0.18386459350585938,0.11259794235229492,0.05087411403656006
1759336097474769000,1.818768798828125,-0.23754024505615234,0.13297677040100098,0.10672986507415771
1759336097484768800,1.828768798828125,-0.2889862060546875,0.11821699142456055,0.10648089647293091
1759336097494769000,1.838768798828125,-0.17803573608398438,0.0206146240234375,0.16928046941757202
1759336097504768800,1.848768798828125,-0.05128192901611328,0.040697336196899414,0.22725063562393188
1759336097514769000,1.858768798828125,0.048501014709472656,0.010280847549438477,0.20499634742736816
1759336097524769800,1.868769775390625,0.2122812271118164,-0.07324028015136719,0.14888548851013184
1759336097534769700,1.878769775390625,0.21052837371826172,-0.06731367111206055,0.14586442708969116
1759336097544769800,1.888769775390625,0.23804473876953125,-0.08922100067138672,0.0516776442527771
1759336097554770000,1.89877001953125,0.1445751190185547,-0.08804655075073242,0.04139310121536255
1759336097564769800,1.908769775390625,-0.009853363037109375,-0.05927014350891113,0.008801937103271484
1759336097574770000,1.91877001953125,-0.11296653747558594,-0.05249595642089844,-0.024248242378234863
1759336097584769800,1.928769775390625,-0.2037801742553711,-0.06822776794433594,-0.07159048318862915
1759336097594769700,1.938769775390625,-0.1734914779663086,-0.07454919815063477,-0.12139731645584106
1759336097604769800,1.948769775390625,-0.12798690795898438,-0.0581357479095459,-0.21132832765579224
1759336097614769700,1.958769775390625,-0.03355598449707031,-0.07915782928466797,-0.2703762650489807
1759336097624769000,1.96876904296875,0.02899646759033203,-0.12207818031311035,-0.2523258328437805
1759336097634769000,1.978768798828125,0.05086231231689453,-0.08095097541809082,-0.23525679111480713
1759336097644769000,1.98876904296875,0.056774139404296875,-0.0799722671508789,-0.18872737884521484
1759336097654769000,1.998768798828125,0.09933948516845703,-0.08075547218322754,-0.074063241481781
1759336097664769000,2.00876904296875,0.061255455017089844,-0.04509854316711426,-0.032319068908691406
1759336097674769000,2.018768798828125,0.021248817443847656,0.0060656070709228516,-0.026867687702178955
1759336097684769000,2.02876904296875,-0.08080768585205078,0.013192892074584961,-0.02494943141937256
1759336097694769000,2.038768798828125,-0.14007186889648438,0.00869297981262207,-0.030759990215301514
1759336097704769000,2.04876904296875,-0.15015316009521484,-0.034647226333618164,-0.060767531394958496
1759336097714769000,2.058768798828125,-0.22579097747802734,-0.028307437896728516,-0.14046114683151245
1759336097724769800,2.068769775390625,-0.21613216400146484,-0.03685617446899414,-0.17679548263549805
1759336097734769700,2.078769775390625,-0.05701255798339844,-0.016066551208496094,-0.2549195885658264
1759336097744769800,2.088769775390625,0.031955718994140625,-0.0365908145904541,-0.28608280420303345
1759336097754770000,2.09877001953125,0.013698577880859375,-0.0835261344909668,-0.30773037672042847
1759336097764769800,2.108769775390625,-0.05829906463623047,-0.005608797073364258,-0.2857237458229065
1759336097774770000,2.11877001953125,-0.06949424743652344,-0.0060825347900390625,-0.17400133609771729
1759336097784769800,2.128769775390625,-0.09698295593261719,0.0073223114013671875,-0.08947980403900146
1759336097794770000,2.13877001953125,-0.0997772216796875,0.031235694885253906,-0.0005102753639221191
1759336097804769800,2.148769775390625,-0.12098407745361328,0.04125547409057617,0.10670077800750732
1759336097814770000,2.15877001953125,-0.11350822448730469,0.08406352996826172,0.15247762203216553
1759336097824769000,2.16876904296875,-0.08978080749511719,0.11304783821105957,0.15624213218688965
1759336097834769000,2.178768798828125,-0.045078277587890625,0.09042191505432129,0.13118088245391846
1759336097844768800,2.188768798828125,0.06611251831054688,0.05246543884277344,0.12357741594314575
1759336097854769000,2.198768798828125,0.11711788177490234,0.03980135917663574,0.07152324914932251
1759336097864768800,2.208768798828125,0.1441631317138672,-0.02503657341003418,0.048973262310028076
1759336097874769000,2.218768798828125,0.18088722229003906,-0.034964799880981445,0.021124541759490967
1759336097884769000,2.22876904296875,0.19358348846435547,-0.05160117149353027,-0.012286126613616943
1759336097894769000,2.238768798828125,0.23536396026611328,-0.03341507911682129,-0.08862435817718506
1759336097904769000,2.24876904296875,0.2605171203613281,-0.013381719589233398,-0.039866745471954346
1759336097914769000,2.258768798828125,0.19021129608154297,0.0031495094299316406,-0.09573858976364136
1759336097924769800,2.268769775390625,0.15827465057373047,0.06702589988708496,-0.1431119441986084
1759336097934769700,2.278769775390625,0.13839149475097656,0.11093282699584961,-0.10694092512130737
1759336097944769800,2.288769775390625,0.09714984893798828,0.16614174842834473,-0.06792014837265015
1759336097954770000,2.29877001953125,0.06575393676757812,0.22056365013122559,-0.016969382762908936
1759336097964769800,2.308769775390625,-0.013034820556640625,0.2093214988708496,0.044332027435302734
1759336097974770000,2.31877001953125,-0.1008615493774414,0.21642518043518066,0.047548115253448486
1759336097984769800,2.328769775390625,-0.15474987030029297,0.17506098747253418,0.041095614433288574
1759336097994770000,2.33877001953125,-0.11984729766845703,0.13092660903930664,0.009826064109802246
1759336098004769800,2.348769775390625,-0.04691505432128906,0.05649590492248535,-0.011879384517669678
1759336098014770000,2.35877001953125,-0.015336036682128906,0.031812429428100586,-0.03811687231063843
1759336098024769000,2.36876904296875,-0.015252113342285156,-0.00888681411743164,-0.022293806076049805
1759336098034769000,2.378768798828125,0.03734588623046875,-0.03522825241088867,-0.016648828983306885
1759336098044769000,2.38876904296875,0.06131744384765625,-0.057700395584106445,0.00326693058013916
1759336098054769000,2.398768798828125,0.07557392120361328,-0.0583956241607666,-0.040730953216552734
1759336098064769000,2.40876904296875,0.04189872741699219,-0.03995490074157715,-0.0721585750579834
1759336098074769000,2.418768798828125,-0.013050079345703125,-0.03900885581970215,-0.06793713569641113
1759336098084769000,2.42876904296875,-0.08453178405761719,-0.04778599739074707,-0.020208001136779785
1759336098094769000,2.438768798828125,-0.100677490234375,-0.05180549621582031,0.010174989700317383
1759336098104769000,2.44876904296875,-0.14298439025878906,-0.05809283256530762,0.045282185077667236
1759336098114769000,2.458768798828125,-0.1400003433227539,-0.06592893600463867,0.043526291847229004
1759336098124769800,2.468769775390625,-0.13735198974609375,-0.09453725814819336,0.07608067989349365
1759336098134770000,2.47877001953125,-0.09921646118164062,-0.1077260971069336,0.07592928409576416
1759336098144769800,2.488769775390625,-0.0779256820678711,-0.09948563575744629,0.07719278335571289
1759336098154770000,2.49877001953125,-0.04486370086669922,-0.11249279975891113,0.09631019830703735
1759336098164769800,2.508769775390625,-0.06699562072753906,-0.07256889343261719,0.0775647759437561
1759336098174770000,2.51877001953125,-0.045952796936035156,-0.051816701889038086,0.12027120590209961
1759336098184769800,2.528769775390625,0.03971099853515625,-0.05959367752075195,0.1193617582321167
1759336098194770000,2.53877001953125,0.050993919372558594,-0.030907630920410156,0.14928799867630005
1759336098204769800,2.548769775390625,0.016658782958984375,-0.011250734329223633,0.12113487720489502
1759336098214770000,2.55877001953125,0.02532482147216797,-0.0034530162811279297,0.10322517156600952
1759336098224769000,2.56876904296875,0.026861190795898438,-0.012758493423461914,0.07406026124954224
1759336098234769200,2.57876904296875,0.021514892578125,-0.025557279586791992,0.012150466442108154
1759336098244769000,2.58876904296875,0.004122734069824219,-0.009538650512695312,0.01777660846710205
1759336098254769000,2.598768798828125,0.017586708068847656,-0.019070148468017578,0.023469150066375732
1759336098264769000,2.60876904296875,0.06198310852050781,-0.0161283016204834,0.0270501971244812
1759336098274769000,2.618768798828125,0.03435707092285156,-0.034174442291259766,0.023549139499664307
1759336098284769000,2.62876904296875,-0.00263214111328125,-0.02165389060974121,0.02456653118133545
1759336098294769200,2.63876904296875,-0.019971847534179688,0.020615100860595703,0.0012358427047729492
1759336098304769000,2.64876904296875,-0.027166366577148438,0.020779848098754883,0.01513451337814331
1759336098314769200,2.65876904296875,-0.036540985107421875,0.05182933807373047,0.0107346773147583
1759336098324769800,2.668769775390625,-0.057892799377441406,0.027909517288208008,-0.022662222385406494
1759336098334770000,2.67877001953125,-0.05825519561767578,0.03672194480895996,0.027967453002929688
1759336098344769800,2.688769775390625,-0.04977607727050781,0.03308725357055664,0.04374682903289795
1759336098354770000,2.69877001953125,-0.01776123046875,0.0445561408996582,0.011043310165405273
1759336098364769800,2.708769775390625,0.006989479064941406,0.04377579689025879,-0.024471163749694824
1759336098374770000,2.71877001953125,0.0031490325927734375,0.07097482681274414,-0.053928494453430176
1759336098384770600,2.7287705078125,-0.03361988067626953,0.017415523529052734,-0.05711907148361206
1759336098394770700,2.738770751953125,-0.09583854675292969,0.014236688613891602,-0.06649088859558105
1759336098404770600,2.7487705078125,-0.18637657165527344,0.002941608428955078,-0.07458746433258057
1759336098414770700,2.758770751953125,-0.3293476104736328,-0.030392885208129883,-0.12425684928894043
1759336098424769800,2.768769775390625,-0.37441349029541016,-0.04881119728088379,-0.16109299659729004
1759336098434769700,2.778769775390625,-0.3792085647583008,-0.09270095825195312,-0.19151431322097778
1759336098444769800,2.788769775390625,-0.41081905364990234,-0.14033198356628418,-0.23001927137374878
1759336098454769700,2.798769775390625,-0.3952674865722656,-0.2388460636138916,-0.28856784105300903
1759336098464769800,2.808769775390625,-0.34934139251708984,-0.28272581100463867,-0.28367626667022705
1759336098474769700,2.818769775390625,-0.3564929962158203,-0.3395531177520752,-0.2387768030166626
1759336098484769800,2.828769775390625,-0.3707723617553711,-0.3576622009277344,-0.1984437108039856
1759336098494769700,2.838769775390625,-0.31781959533691406,-0.40906405448913574,-0.12291622161865234
1759336098504769800,2.848769775390625,-0.3218717575073242,-0.4103121757507324,-0.00916379690170288
1759336098514769700,2.858769775390625,-0.3998985290527344,-0.4449801445007324,0.036737799644470215
1759336098524770600,2.8687705078125,-0.4850482940673828,-0.4557216167449951,0.07493746280670166
1759336098534770400,2.8787705078125,-0.5969276428222656,-0.46305227279663086,0.13069623708724976
1759336098544770600,2.8887705078125,-0.6399784088134766,-0.48563170433044434,0.16387635469436646
1759336098554770700,2.898770751953125,-0.6838798522949219,-0.4560701847076416,0.1545308232307434
1759336098564770600,2.9087705078125,-0.6878013610839844,-0.44434642791748047,0.15585297346115112
1759336098574770700,2.918770751953125,-0.7996654510498047,-0.43554091453552246,-0.008318722248077393
1759336098584770600,2.9287705078125,-0.8756933212280273,-0.4439506530761719,-0.047561705112457275
1759336098594770400,2.9387705078125,-0.8775701522827148,-0.4138832092285156,-0.050457119941711426
1759336098604770600,2.9487705078125,-0.8077306747436523,-0.44311022758483887,-0.022766470909118652
1759336098614770400,2.9587705078125,-0.7307949066162109,-0.4785637855529785,-0.006979227066040039
1759336098624769800,2.968769775390625,-0.6923103332519531,-0.45453596115112305,0.015085875988006592
1759336098634769700,2.978769775390625,-0.6562004089355469,-0.5325067043304443,0.055146217346191406
1759336098644769800,2.988769775390625,-0.6987848281860352,-0.5625698566436768,0.12764102220535278
1759336098654769700,2.998769775390625,-0.8317384719848633,-0.5577571392059326,0.14199328422546387
1759336098664769800,3.008769775390625,-1.0187196731567383,-0.567981481552124,0.14132362604141235
1759336098674769700,3.018769775390625,-1.2789278030395508,-0.5814261436462402,0.17682898044586182
1759336098684769000,3.02876904296875,-1.5598711967468262,-0.58612060546875,0.12354004383087158
1759336098694769000,3.038768798828125,-1.6706881523132324,-0.6090362071990967,0.10501337051391602
1759336098704769000,3.04876904296875,-1.736459732055664,-0.6937026977539062,0.07544863224029541
1759336098714769000,3.058768798828125,-1.767160415649414,-0.77362060546875,-0.010174572467803955
1759336098724769800,3.068769775390625,-1.5787363052368164,-0.8595516681671143,-0.13581550121307373
1759336098734770000,3.07877001953125,-1.559964656829834,-0.9410098791122437,-0.21846407651901245
1759336098744769800,3.088769775390625,-1.5683870315551758,-1.0140212774276733,-0.19096410274505615
1759336098754770000,3.09877001953125,-1.6130805015563965,-1.0876166820526123,-0.15781432390213013
1759336098764769800,3.108769775390625,-1.7439074516296387,-1.115378975868225,-0.1616927981376648
1759336098774770000,3.11877001953125,-1.8459153175354004,-1.1312791109085083,-0.14160746335983276
1759336098784769800,3.128769775390625,-2.017510414123535,-1.1516603231430054,-0.12968289852142334
1759336098794770000,3.13877001953125,-2.1346211433410645,-1.1227723360061646,-0.10544466972351074
1759336098804769800,3.148769775390625,-2.170928478240967,-1.0760525465011597,-0.10824710130691528
1759336098814770000,3.15877001953125,-2.2150449752807617,-1.0137721300125122,-0.16194164752960205
1759336098824769000,3.16876904296875,-2.2170119285583496,-0.9585363864898682,-0.28841978311538696
1759336098834769000,3.178768798828125,-2.212833881378174,-0.9171013832092285,-0.4132710099220276
1759336098844769000,3.18876904296875,-2.14523983001709,-0.9408599138259888,-0.5377131700515747
1759336098854769000,3.198768798828125,-2.0056824684143066,-1.001507043838501,-0.5834477543830872
1759336098864769000,3.20876904296875,-1.7331690788269043,-0.985262393951416,-0.5467143654823303
1759336098874769000,3.218768798828125,-1.4968876838684082,-1.079006552696228,-0.43796810507774353
1759336098884769000,3.22876904296875,-1.3700695037841797,-1.1880899667739868,-0.2870199382305145
1759336098894769000,3.238768798828125,-1.44036865234375,-1.2133806943893433,-0.12541824579238892
1759336098904769000,3.24876904296875,-1.7524113655090332,-1.2016574144363403,-0.12188827991485596
1759336098914769000,3.258768798828125,-2.1548728942871094,-1.1935001611709595,-0.1267412304878235
1759336098924769800,3.268769775390625,-2.580965518951416,-1.1785345077514648,-0.2317781150341034
1759336098934769700,3.278769775390625,-3.0624313354492188,-1.1613868474960327,-0.2653358578681946
1759336098944769800,3.288769775390625,-3.2243900299072266,-1.3029298782348633,-0.30201125144958496
1759336098954770000,3.29877001953125,-3.259493827819824,-1.2710158824920654,-0.3513822853565216
1759336098964769800,3.308769775390625,-3.2252755165100098,-1.2599143981933594,-0.27629801630973816
1759336098974770000,3.31877001953125,-2.9975647926330566,-1.236947774887085,-0.24376505613327026
1759336098984769800,3.328769775390625,-2.196438789367676,-1.0846714973449707,-0.24881428480148315
1759336098994770000,3.33877001953125,-1.725259780883789,-1.0006706714630127,-0.0794212818145752
1759336099004769800,3.348769775390625,-0.8500146865844727,-1.1067941188812256,0.10290724039077759
1759336099014770000,3.35877001953125,0.4965801239013672,-1.0766633749008179,0.11346971988677979
1759336099024769000,3.36876904296875,1.3503847122192383,-1.014460802078247,0.19239315390586853
1759336099034769000,3.378768798828125,1.7587919235229492,-1.0307776927947998,0.28948280215263367
1759336099044769000,3.38876904296875,1.501786231994629,-1.0581780672073364,0.3273129165172577
1759336099054769000,3.398768798828125,0.84130859375,-0.9674619436264038,0.18013831973075867
1759336099064769000,3.40876904296875,0.13154125213623047,-0.7659345865249634,0.058302342891693115
1759336099074769000,3.418768798828125,-0.7005786895751953,-0.44962841272354126,-0.03746020793914795
1759336099084769000,3.42876904296875,-1.0960168838500977,-0.19401168823242188,-0.006820768117904663
1759336099094769000,3.438768798828125,-1.216120719909668,0.01360630989074707,0.12859249114990234
1759336099104769000,3.44876904296875,-1.2846431732177734,0.018512487411499023,0.22879165410995483
1759336099114769000,3.458768798828125,-1.1345109939575195,0.06287932395935059,0.34717342257499695
1759336099124769800,3.468769775390625,-0.7490873336791992,0.06761109828948975,0.4514276683330536
1759336099134770000,3.47877001953125,0.046844482421875,-0.098175048828125,0.38627567887306213
1759336099144769800,3.488769775390625,0.7966365814208984,-0.24761563539505005,0.18776050209999084
1759336099154770000,3.49877001953125,0.790287971496582,-0.18782126903533936,0.1909533143043518
1759336099164769800,3.508769775390625,1.7959442138671875,-0.3318326473236084,-0.1843108832836151
1759336099174770000,3.51877001953125,1.8130111694335938,-0.16770905256271362,-0.08885616064071655
1759336099184769800,3.528769775390625,1.6031713485717773,-0.02961564064025879,0.08856022357940674
1759336099194770000,3.53877001953125,1.1668968200683594,0.1197996735572815,0.3640553951263428
1759336099204769800,3.548769775390625,0.8372993469238281,0.26590460538864136,0.4927624464035034
1759336099214770000,3.55877001953125,0.8069791793823242,0.5265355110168457,0.5524861812591553
1759336099224769000,3.56876904296875,0.8832187652587891,0.7731418013572693,0.5421316027641296
1759336099234769000,3.578768798828125,1.2664575576782227,0.818706214427948,0.5584726929664612
1759336099244769000,3.58876904296875,1.6905603408813477,0.897193968296051,0.5884050130844116
1759336099254769000,3.598768798828125,2.131781578063965,0.871192455291748,0.6234168410301208
1759336099264769000,3.60876904296875,2.8415603637695312,0.7816993594169617,0.6896094083786011
1759336099274769000,3.618768798828125,3.645594596862793,0.7329906225204468,0.5802382230758667
1759336099284769000,3.62876904296875,4.595145225524902,0.7278128862380981,0.4587327837944031
1759336099294769000,3.638768798828125,5.375500679016113,0.6434804797172546,0.38876575231552124
1759336099304769000,3.64876904296875,5.702467918395996,0.7510860562324524,0.3582344055175781
1759336099314769000,3.658768798828125,5.447259902954102,0.7456252574920654,0.3697971701622009
1759336099324769800,3.668769775390625,4.895389556884766,0.7399368286132812,0.4620930552482605
1759336099334770000,3.67877001953125,3.9151763916015625,0.793465793132782,0.3774814009666443
1759336099344769800,3.688769775390625,3.5347471237182617,0.7429786324501038,0.26259565353393555
1759336099354770000,3.69877001953125,2.9317007064819336,0.7436732053756714,0.20479416847229004
1759336099364769800,3.708769775390625,2.777881622314453,0.7487497925758362,0.032741546630859375
1759336099374770000,3.71877001953125,2.837491989135742,0.6812558770179749,-0.0029048919677734375
1759336099384770000,3.72877001953125,2.9166345596313477,0.6339221000671387,-0.008694171905517578
1759336099394770200,3.738770263671875,2.9176931381225586,0.6239277720451355,-0.010814547538757324
1759336099404770000,3.74877001953125,3.1619997024536133,0.49688494205474854,0.01953732967376709
1759336099414770200,3.758770263671875,3.106595039367676,0.40346336364746094,0.10762393474578857
1759336099424769300,3.768769287109375,2.9308996200561523,0.3886075019836426,0.1725999116897583
1759336099434769400,3.778769287109375,2.5583248138427734,0.418501615524292,0.2498633861541748
1759336099444769300,3.788769287109375,2.1300268173217773,0.5874060988426208,0.4830416440963745
1759336099454769400,3.798769287109375,1.7033424377441406,0.7351290583610535,0.6388244032859802
1759336099464769300,3.808769287109375,1.3936338424682617,0.984955370426178,0.830448567867279
1759336099474769400,3.818769287109375,1.5678176879882812,1.2834837436676025,1.0832679271697998
1759336099484769300,3.828769287109375,1.9605827331542969,1.4138057231903076,1.3088088035583496
1759336099494769400,3.838769287109375,2.236809730529785,1.438323736190796,1.3010588884353638
1759336099504769300,3.848769287109375,2.5445451736450195,1.2280476093292236,1.0997276306152344
1759336099514769400,3.858769287109375,2.5602846145629883,0.946273148059845,0.8718138933181763
1759336099524770300,3.868770263671875,2.1024580001831055,0.6241697669029236,0.6394335627555847
1759336099534770200,3.878770263671875,1.164473533630371,0.31215327978134155,0.27919161319732666
1759336099544770300,3.888770263671875,0.19048786163330078,0.2578471899032593,0.09154784679412842
1759336099554770200,3.898770263671875,-0.8059549331665039,0.28637373447418213,-0.08670014142990112
1759336099564770300,3.908770263671875,-1.6264152526855469,0.2646437883377075,-0.01272815465927124
1759336099574770200,3.918770263671875,-2.04630184173584,0.4164552688598633,0.014753341674804688
1759336099584770300,3.928770263671875,-1.8215789794921875,0.6196755170822144,-0.09865617752075195
1759336099594770200,3.938770263671875,-1.187042236328125,0.9319177865982056,-0.3626091778278351
1759336099604770300,3.948770263671875,-0.2198495864868164,1.0485787391662598,-0.3756045699119568
1759336099614770200,3.958770263671875,0.31340980529785156,1.2088346481323242,-0.20574474334716797
1759336099624769300,3.968769287109375,0.37238216400146484,1.191891074180603,-0.034554481506347656
1759336099634769400,3.978769287109375,0.2991676330566406,1.0068851709365845,0.04095214605331421
1759336099644769300,3.988769287109375,0.03111553192138672,0.7761240005493164,-0.10039052367210388
1759336099654769400,3.998769287109375,-0.09674930572509766,0.5265625715255737,-0.14666974544525146
1759336099664769300,4.008769287109375,0.0981130599975586,0.34261631965637207,-0.11834043264389038
1759336099674769400,4.018769287109375,0.5487003326416016,0.1696091890335083,0.008293569087982178
1759336099684769000,4.02876904296875,0.9865789413452148,0.1604675054550171,0.11124247312545776
1759336099694769200,4.03876904296875,1.3232040405273438,0.21899747848510742,0.19530153274536133
1759336099704769000,4.04876904296875,1.3389959335327148,0.2787076234817505,0.3232206106185913
1759336099714769200,4.05876904296875,1.0300579071044922,0.1952759027481079,0.45783862471580505
1759336099724769800,4.068769775390625,0.3680429458618164,0.16639578342437744,0.4244760274887085
1759336099734770000,4.07877001953125,-0.34537601470947266,0.12150371074676514,0.3503624200820923
1759336099744769800,4.088769775390625,-1.0290803909301758,0.1459519863128662,0.26128342747688293
1759336099754770000,4.09877001953125,-1.4700603485107422,0.06441199779510498,0.19207119941711426
1759336099764769800,4.108769775390625,-1.8220086097717285,0.052826881408691406,0.19505944848060608
1759336099774770000,4.11877001953125,-1.7312126159667969,0.07628321647644043,0.21781718730926514
1759336099784769800,4.128769775390625,-1.4228973388671875,0.03305387496948242,0.13871893286705017
1759336099794770000,4.13877001953125,-1.146641731262207,0.12552344799041748,0.04587745666503906
1759336099804769800,4.148769775390625,-0.5793724060058594,0.1551964282989502,-0.0270175039768219
1759336099814770000,4.15877001953125,-0.1447744369506836,0.05902504920959473,-0.05113258957862854
1759336099824769000,4.16876904296875,0.2073812484741211,0.045688629150390625,-0.02425062656402588
1759336099834769000,4.178768798828125,0.510737419128418,-0.019979238510131836,-0.025686651468276978
1759336099844769000,4.18876904296875,0.6555547714233398,-0.06611871719360352,-0.05035817623138428
1759336099854769000,4.198768798828125,0.6233339309692383,-0.040960073471069336,-0.018100649118423462
1759336099864768800,4.208768798828125,0.5798959732055664,-0.03624296188354492,0.01748928427696228
1759336099874769000,4.218768798828125,0.46807289123535156,-0.0055027008056640625,0.052250295877456665
1759336099884768800,4.228768798828125,0.3410367965698242,0.04682111740112305,0.030131161212921143
1759336099914769000,4.258768798828125,-0.18749618530273438,0.17116332054138184,-0.19904451072216034
1759336099924769800,4.268769775390625,-0.018571853637695312,0.09707069396972656,-0.40644001960754395
1759336099934769700,4.278769775390625,0.0691080093383789,-0.007924079895019531,-0.3613889515399933
1759336099944769800,4.288769775390625,0.11729907989501953,-0.0526275634765625,-0.30686134099960327
1759336099954769700,4.298769775390625,0.07461261749267578,-0.05719351768493652,-0.22511878609657288
1759336099964769800,4.308769775390625,-0.09648609161376953,0.04226326942443848,-0.17055201530456543
1759336099974769700,4.318769775390625,-0.21584606170654297,0.12131190299987793,-0.18054482340812683
1759336099984769800,4.328769775390625,-0.24018383026123047,0.15056777000427246,-0.10460211336612701
1759336099994769700,4.338769775390625,-0.42624473571777344,0.18805265426635742,-0.0698394924402237
1759336100004769800,4.348769775390625,-0.5134859085083008,0.2096233367919922,-0.07782608270645142
1759336100014769700,4.358769775390625,-0.5794038772583008,0.19196009635925293,-0.10603906214237213
1759336100024769000,4.36876904296875,-0.5812711715698242,0.17693614959716797,-0.10210371017456055
1759336100034769000,4.378768798828125,-0.5338830947875977,0.1110842227935791,-0.07744529843330383
1759336100044768800,4.388768798828125,-0.49494266510009766,0.11246490478515625,-0.048104673624038696
1759336100054769000,4.398768798828125,-0.39748477935791016,0.09245491027832031,-0.03421550989151001
1759336100064768800,4.408768798828125,-0.3156166076660156,0.08886551856994629,-0.07197108864784241
1759336100074769000,4.418768798828125,-0.2993650436401367,0.06252288818359375,-0.11215105652809143
1759336100084768800,4.428768798828125,-0.18782901763916016,0.07154560089111328,-0.15872593224048615
1759336100094769000,4.438768798828125,-0.15318775177001953,0.11517572402954102,-0.13307133316993713
1759336100104768800,4.448768798828125,-0.048961639404296875,0.13681268692016602,-0.0796983540058136
1759336100114769000,4.458768798828125,0.015277862548828125,0.17003631591796875,-0.04635465145111084
1759336100124769800,4.468769775390625,0.041792869567871094,0.20827698707580566,-0.08370354771614075
1759336100134769700,4.478769775390625,0.09038925170898438,0.17273998260498047,-0.11048322916030884
1759336100144769800,4.488769775390625,0.038733482360839844,0.1888113021850586,-0.12381431460380554
1759336100154769700,4.498769775390625,-0.01271820068359375,0.15860915184020996,-0.134956955909729
1759336100164769800,4.508769775390625,-0.08568572998046875,0.1352231502532959,-0.1111401617527008
1759336100174770000,4.51877001953125,-0.0942850112915039,0.08882403373718262,-0.12209591269493103
1759336100194770000,4.53877001953125,0.004921913146972656,-0.0287935733795166,-0.1329064667224884
1759336100204769800,4.548769775390625,0.04148674011230469,-0.09049606323242188,-0.024684160947799683
1759336100214770000,4.55877001953125,-0.007950782775878906,-0.08540773391723633,0.035376667976379395
1759336100224769000,4.56876904296875,-0.047611236572265625,-0.03301644325256348,0.09676006436347961
1759336100234769000,4.578768798828125,-0.13286495208740234,0.007433652877807617,0.052511751651763916
1759336100244769000,4.58876904296875,-0.16120243072509766,0.07832908630371094,0.03479066491127014
1759336100254769000,4.598768798828125,-0.09943962097167969,0.10190463066101074,0.048909127712249756
1759336100264769000,4.60876904296875,-0.08379364013671875,0.10374307632446289,0.0790981650352478
1759336100274769000,4.618768798828125,-0.07777595520019531,0.12748384475708008,0.05834171175956726
1759336100284769000,4.62876904296875,-0.12639427185058594,0.15961909294128418,0.04911559820175171
1759336100294769000,4.638768798828125,-0.1453256607055664,0.16218185424804688,0.09163659811019897
1759336100304769000,4.64876904296875,-0.22299575805664062,0.16085195541381836,0.12859690189361572
1759336100314769000,4.658768798828125,-0.3430299758911133,0.15456938743591309,0.05125778913497925
1759336100324769800,4.668769775390625,-0.26680660247802734,0.16966986656188965,-0.009424328804016113
1759336100334769700,4.678769775390625,-0.1794576644897461,0.16090035438537598,-0.09893575310707092
1759336100344769800,4.688769775390625,0.056713104248046875,0.14672207832336426,-0.10195991396903992
1759336100354769700,4.698769775390625,0.29428863525390625,0.145521879196167,-0.09964373707771301
1759336100364769800,4.708769775390625,0.44286632537841797,0.17011809349060059,-0.09556865692138672
1759336100374769700,4.718769775390625,0.4482736587524414,0.14779043197631836,-0.12022978067398071
1759336100384769800,4.728769775390625,0.3782634735107422,0.12371397018432617,-0.1005466878414154
1759336100394769700,4.738769775390625,0.26406383514404297,0.10485172271728516,-0.04241222143173218
1759336100404769800,4.748769775390625,0.14623165130615234,0.09410405158996582,-0.002690613269805908
1759336100414769700,4.758769775390625,0.019451141357421875,0.08132100105285645,0.053975701332092285
1759336100424768800,4.768768798828125,-0.03769397735595703,0.05331611633300781,0.12071311473846436
1759336100434769000,4.778768798828125,-0.1286935806274414,0.05262351036071777,0.13922256231307983
1759336100444768800,4.788768798828125,-0.1244039535522461,0.03903532028198242,0.09776800870895386
1759336100454769000,4.798768798828125,-0.04891204833984375,-0.032405853271484375,0.11855119466781616
1759336100464768800,4.808768798828125,-0.1084890365600586,-0.07184028625488281,0.13058894872665405
1759336100474769000,4.818768798828125,0.013018608093261719,-0.08205628395080566,0.1358625292778015
1759336100484768800,4.828768798828125,0.09333133697509766,-0.11244988441467285,0.07449370622634888
1759336100494769000,4.838768798828125,0.08258533477783203,-0.13063859939575195,0.0519106388092041
1759336100504768800,4.848768798828125,0.11046028137207031,-0.0997154712677002,0.04813331365585327
1759336100514769000,4.858768798828125,0.1004629135131836,-0.060669660568237305,0.0597681999206543
1759336100524769800,4.868769775390625,0.03844642639160156,-0.033289432525634766,0.10241097211837769
1759336100534769700,4.878769775390625,-0.06841087341308594,-0.015072345733642578,0.12052649259567261
1759336100544769800,4.888769775390625,-0.1030111312866211,-0.01257777214050293,0.13213258981704712
1759336100554769700,4.898769775390625,-0.1660137176513672,-0.05192732810974121,0.10952293872833252
1759336100564769800,4.908769775390625,-0.24350833892822266,-0.06914162635803223,0.045879244804382324
1759336100574769700,4.918769775390625,-0.1613912582397461,-0.06920742988586426,-0.01338130235671997
1759336100584769800,4.928769775390625,-0.11826324462890625,-0.10030555725097656,-0.01171201467514038
1759336100594769700,4.938769775390625,-0.08762359619140625,-0.09570670127868652,0.020554780960083008
1759336100604769800,4.948769775390625,0.009896278381347656,-0.1073000431060791,0.029198646545410156
1759336100614769700,4.958769775390625,0.05469322204589844,-0.07781291007995605,0.025053441524505615
1759336100624768800,4.968768798828125,0.011064529418945312,-0.04851579666137695,0.023687303066253662
1759336100634769000,4.978768798828125,0.0060272216796875,-0.02243518829345703,0.09274739027023315
1759336100644768800,4.988768798828125,-0.05378532409667969,-0.049927711486816406,0.11279928684234619
1759336100654769000,4.998768798828125,-0.09658432006835938,-0.0231630802154541,0.13198727369308472
1759336100664768800,5.008768798828125,-0.060555458068847656,-0.024176836013793945,0.08328396081924438
1759336100674769000,5.018768798828125,-0.024549484252929688,-0.027717113494873047,0.08111369609832764
1759336100684768800,5.028768798828125,0.027835845947265625,-0.044133663177490234,0.17500239610671997
1759336100694769000,5.038768798828125,0.10832500457763672,-0.04186391830444336,0.1517360806465149
1759336100704768800,5.048768798828125,0.15300750732421875,-0.002222776412963867,0.09708434343338013
1759336100714769000,5.058768798828125,0.15712928771972656,-0.022865772247314453,0.12811923027038574
1759336100724769800,5.068769775390625,0.09480857849121094,-0.05278205871582031,0.08605045080184937
1759336100734769700,5.078769775390625,0.056946754455566406,-0.020113229751586914,0.036687254905700684
1759336100744769800,5.088769775390625,-0.007203102111816406,-0.01395273208618164,0.030338823795318604
1759336100754769700,5.098769775390625,-0.040137290954589844,-0.01789236068725586,0.012675166130065918
1759336100764769800,5.108769775390625,-0.06615352630615234,-0.02329730987548828,-0.04269033670425415
1759336100774769700,5.118769775390625,-0.04949378967285156,-0.0413358211517334,-0.026379168033599854
1759336100784769800,5.128769775390625,-0.01384735107421875,-0.029939889907836914,-0.01735055446624756
1759336100794769700,5.138769775390625,0.031159400939941406,0.04703664779663086,-0.027687370777130127
1759336100804769800,5.148769775390625,0.10976123809814453,0.011793375015258789,0.04100298881530762
1759336100814769700,5.158769775390625,0.069305419921875,0.0007219314575195312,0.07198631763458252
1759336100824768800,5.168768798828125,-0.0017900466918945312,0.012128114700317383,0.07483786344528198
1759336100834769000,5.178768798828125,-0.15842342376708984,-0.007596254348754883,0.05771297216415405
1759336100844768800,5.188768798828125,-0.24993515014648438,0.001552581787109375,0.05392855405807495
1759336100854769000,5.198768798828125,-0.20540237426757812,-0.009637594223022461,0.035385727882385254
1759336100864768800,5.208768798828125,-0.26604461669921875,-0.05760312080383301,0.0008130669593811035
1759336100874769000,5.218768798828125,-0.19039440155029297,0.005501508712768555,-0.04164779186248779
1759336100894769000,5.238768798828125,0.030172348022460938,-0.07156991958618164,-0.06243473291397095
1759336100904768800,5.248768798828125,0.16300201416015625,-0.06539392471313477,-0.11203700304031372
1759336100914769000,5.258768798828125,0.21888065338134766,-0.060254573822021484,-0.08489906787872314
1759336100924769800,5.268769775390625,0.2084064483642578,-0.052899837493896484,-0.015280485153198242
1759336100934769700,5.278769775390625,0.21243000030517578,-0.010607242584228516,0.06787639856338501
1759336100944769800,5.288769775390625,0.1513385772705078,-0.0465853214263916,0.0808706283569336
1759336100954769700,5.298769775390625,0.25690269470214844,-0.006493568420410156,0.007340848445892334
1759336100964769800,5.308769775390625,0.35005664825439453,-0.00963282585144043,-0.03534334897994995
1759336100974769700,5.318769775390625,0.3216381072998047,-0.03392362594604492,-0.11658751964569092
1759336100984769800,5.328769775390625,0.20597076416015625,0.012247800827026367,-0.08404207229614258
1759336100994769700,5.338769775390625,0.0343017578125,0.006820201873779297,-0.01662588119506836
1759336101004769800,5.348769775390625,-0.08611679077148438,-0.017406225204467773,0.007873117923736572
1759336101014769700,5.358769775390625,-0.18465900421142578,0.0009584426879882812,0.031893253326416016
1759336101024768800,5.368768798828125,-0.2646656036376953,-0.004595041275024414,0.02770864963531494
1759336101034769000,5.378768798828125,-0.21007251739501953,-0.023195981979370117,0.03611522912979126
1759336101044768800,5.388768798828125,-0.015344619750976562,-0.06751513481140137,0.07876831293106079
1759336101054769000,5.398768798828125,0.21441650390625,-0.030860424041748047,0.09135288000106812
1759336101064768800,5.408768798828125,0.21173095703125,-0.023221492767333984,0.1034514307975769
1759336101084768800,5.428768798828125,0.010175704956054688,0.03585195541381836,-0.05924272537231445
1759336101094769000,5.438768798828125,0.03930950164794922,0.014071226119995117,-0.0006017684936523438
1759336101104768800,5.448768798828125,-0.07683753967285156,0.021571636199951172,0.07231533527374268
1759336101114769000,5.458768798828125,-0.14730548858642578,0.0005242824554443359,0.11539310216903687
1759336101124769500,5.46876953125,-0.21078777313232422,0.0017025470733642578,0.14945048093795776
1759336101134769700,5.478769775390625,-0.21951866149902344,-0.027392864227294922,0.10376584529876709
1759336101144769800,5.488769775390625,-0.1257343292236328,-0.08631348609924316,0.12209010124206543
1759336101154769700,5.498769775390625,-0.10449790954589844,-0.0823965072631836,0.06374073028564453
1759336101164769800,5.508769775390625,0.009481430053710938,-0.06142902374267578,0.0816429853439331
1759336101174769700,5.518769775390625,0.03706836700439453,-0.09978556632995605,0.10542804002761841
1759336101184769800,5.528769775390625,-0.0021953582763671875,-0.07210993766784668,0.1349005103111267
1759336101194769700,5.538769775390625,-0.029201507568359375,-0.0457761287689209,0.13384908437728882
1759336101204769800,5.548769775390625,0.09249019622802734,-0.030363082885742188,0.03567671775817871
1759336101214769700,5.558769775390625,0.04388141632080078,0.01963973045349121,0.0029360055923461914
1759336101224768800,5.568768798828125,0.08834457397460938,-0.04125332832336426,0.03349572420120239
1759336101234769000,5.578768798828125,0.18059444427490234,-0.0944671630859375,0.06131106615066528
1759336101244768800,5.588768798828125,0.20816516876220703,-0.02990269660949707,0.044934093952178955
1759336101254769000,5.598768798828125,0.19281387329101562,-0.018654346466064453,0.023515701293945312
1759336101264768800,5.608768798828125,0.23303699493408203,-0.046172380447387695,-0.019114673137664795
1759336101274769000,5.618768798828125,0.27808666229248047,-0.0026557445526123047,-0.14079636335372925
1759336101284768800,5.628768798828125,0.4021139144897461,0.028577327728271484,-0.17459940910339355
1759336101294769000,5.638768798828125,0.5070629119873047,0.06381988525390625,-0.16105616092681885
1759336101304768800,5.648768798828125,0.47095775604248047,0.07191634178161621,-0.16431015729904175
1759336101314769000,5.658768798828125,0.35851287841796875,0.031357765197753906,-0.2766197919845581
1759336101324769800,5.668769775390625,0.21281147003173828,0.02597951889038086,-0.31600460410118103
1759336101334769700,5.678769775390625,0.14371490478515625,-0.058167219161987305,-0.2603467106819153
1759336101344769800,5.688769775390625,0.2297801971435547,-0.033535003662109375,-0.46444466710090637
1759336101354769700,5.698769775390625,-0.14994144439697266,0.0014946460723876953,-0.5202957391738892
1759336101364769800,5.708769775390625,-0.2545890808105469,-0.13402795791625977,-0.4159544110298157
1759336101374769700,5.718769775390625,-0.21027565002441406,-0.18439364433288574,-0.4358002245426178
1759336101384769800,5.728769775390625,-0.3111143112182617,-0.05216574668884277,-0.39950335025787354
1759336101394769700,5.738769775390625,-0.3152608871459961,-0.03741884231567383,-0.2132660150527954
1759336101404769800,5.748769775390625,-0.2776327133178711,0.00290679931640625,0.07983505725860596
1759336101414769700,5.758769775390625,-0.2820243835449219,0.11220693588256836,0.37110471725463867
1759336101424768800,5.768768798828125,-0.2232513427734375,0.21683716773986816,0.6137105822563171
1759336101434769000,5.778768798828125,-0.28119754791259766,0.2884643077850342,0.5988179445266724
1759336101444768800,5.788768798828125,-0.31514644622802734,0.3069889545440674,0.4684966802597046
1759336101454768600,5.7987685546875,-0.24898529052734375,0.22419261932373047,0.31102120876312256
1759336101464768800,5.808768798828125,-0.2003498077392578,0.1252434253692627,0.0708080530166626
1759336101474768600,5.8187685546875,-0.11185073852539062,0.010330677032470703,-0.16818684339523315
1759336101484768800,5.828768798828125,-0.031414031982421875,-0.14413094520568848,-0.4379298686981201
1759336101494768600,5.8387685546875,0.02482318878173828,-0.28353190422058105,-0.5179886221885681
1759336101504768800,5.848768798828125,-0.006572723388671875,-0.44275522232055664,-0.4950854182243347
1759336101514768600,5.8587685546875,-0.019639968872070312,-0.49937188625335693,-0.3357626795768738
1759336101524769500,5.86876953125,0.1439800262451172,-0.5124577283859253,-0.12639331817626953
1759336101534769700,5.878769775390625,0.07025146484375,-0.40634918212890625,0.1495998501777649
1759336101544769500,5.88876953125,0.1615924835205078,-0.16218090057373047,0.37486058473587036
1759336101554769700,5.898769775390625,0.11831378936767578,0.019026756286621094,0.583076000213623
1759336101564769500,5.90876953125,-0.13928508758544922,0.17502140998840332,0.7311936616897583
1759336101574769700,5.918769775390625,-0.3461580276489258,0.31056857109069824,0.7768195867538452
1759336101584769500,5.92876953125,-0.4583702087402344,0.32976603507995605,0.6288701295852661
1759336101594769700,5.938769775390625,-0.47455692291259766,0.2122211456298828,0.4738423824310303
1759336101604769500,5.94876953125,-0.4151420593261719,0.019130945205688477,0.32010626792907715
1759336101614769700,5.958769775390625,-0.25232696533203125,-0.07022762298583984,0.17091214656829834
1759336101624768800,5.968768798828125,-0.15080833435058594,-0.11984992027282715,0.04715895652770996
1759336101634768600,5.9787685546875,-0.03570747375488281,-0.13410449028015137,0.12965190410614014
1759336101644768800,5.988768798828125,0.03827953338623047,-0.11860084533691406,0.24479985237121582
1759336101654768600,5.9987685546875,0.08142662048339844,-0.06093454360961914,0.40092360973358154
1759336101664768800,6.008768798828125,0.010501861572265625,0.07791304588317871,0.6427247524261475
1759336101674769000,6.018768798828125,0.014834403991699219,0.07748532295227051,0.6149797439575195
1759336101684768800,6.028768798828125,-0.796727180480957,0.15333819389343262,0.9505687952041626
1759336101694769000,6.038768798828125,-0.7924928665161133,0.149003267288208,0.9310392141342163
1759336101704768800,6.048768798828125,-0.3408975601196289,0.24654316902160645,0.6138924360275269
