time,seconds_elapsed,z,y,x
1759163592171815400,0.0228154296875,1.5031097297668456,-9.204807557678222,2.8095956481933593
1759163592181872400,0.032872314453125,1.4366706336975097,-9.236530729675293,2.6978163581848142
1759163592191929300,0.042929443359375,1.4446014266967773,-9.273940130615234,2.7002105598449706
1759163592201986300,0.052986328125,1.5161282012939452,-9.2826191116333,2.761861252593994
1759163592212044300,0.063044189453125,1.5165771141052244,-9.155576786041259,2.7913398605346678
1759163592222101200,0.073101318359375,1.4950292991638183,-9.090185153198242,2.7769746505737305
1759163592232158500,0.083158447265625,1.4787188003540037,-9.092280079650878,2.7250504020690918
1759163592242215400,0.09321533203125,1.4823101028442383,-9.170839821624755,2.73253228225708
1759163592252272400,0.1032724609375,1.5037082801818846,-9.254636879730224,2.7536311843872068
1759163592262329300,0.113329345703125,1.5176245773315429,-9.262118759918213,2.7850550811767576
1759163592272386300,0.12338623046875,1.5578770927429197,-9.240421307373046,2.771587696838379
1759163592282443300,0.133443359375,1.601870548248291,-9.248651375579833,2.7985224655151364
1759163592292501200,0.143501220703125,1.583914035797119,-9.251494490051268,2.8015152175903317
1759163592302558500,0.153558349609375,1.5530886894226072,-9.209595960998534,2.8098949234008788
1759163592312615400,0.163615478515625,1.553238327026367,-9.242366596221924,2.8754361938476563
1759163592322672400,0.17367236328125,1.5361796401977539,-9.274538681030274,2.9230209518432617
1759163592332729300,0.183729248046875,1.5078981330871581,-9.247154999542236,2.9337948593139647
1759163592342786300,0.193786376953125,1.4930840103149414,-9.236979642486572,2.8966847335815427
1759163592352843300,0.20384326171875,1.5014637161254882,-9.233238702392578,2.8892028533935545
1759163592362900200,0.213900146484375,1.5529390518188475,-9.239074568939209,2.8417677330017086
1759163592372958500,0.22395849609375,1.6093524284362792,-9.258677095031738,2.8571804061889647
1759163592383015400,0.234015380859375,1.6238672760009765,-9.240421307373046,2.8616695343017575
1759163592393072400,0.244072265625,1.5937901176452636,-9.245957898712158,2.84086990737915
1759163592403129300,0.25412939453125,1.586457875061035,-9.281721286010741,2.8464064987182613
1759163592413186300,0.264186279296875,1.5777788940429687,-9.299528160858154,2.8866590141296387
1759163592423243300,0.2742431640625,1.5848118614196776,-9.341875602722167,2.937535799407959
1759163592433301500,0.284301513671875,1.5888520767211913,-9.3331966217041,3.009511486816406
1759163592443358500,0.2943583984375,1.5402198554992674,-9.284115487670897,3.033154228210449
1759163592453415400,0.30441552734375,1.511190160369873,-9.232939427185059,3.0630817489624023
1759163592463472400,0.314472412109375,1.478569162750244,-9.203161544036865,3.0816368118286133
1759163592473529300,0.324529296875,1.4501380180358885,-9.220220230865477,3.076549133300781
1759163592483586300,0.33458642578125,1.44280577545166,-9.2573303565979,3.06442848739624
1759163592493643300,0.344643310546875,1.4432546882629393,-9.280823460388183,3.0090625740051267
1759163592503701500,0.354701416015625,1.4769231491088866,-9.2573303565979,2.9132945075988768
1759163592513758500,0.364758544921875,1.516277838897705,-9.200617704772949,2.806602896118164
1759163592523815400,0.3748154296875,1.552639776611328,-9.176077137756348,2.778620664215088
1759163592533872400,0.384872314453125,1.5601216567993164,-9.165003955078124,2.7211598243713375
1759163592543929300,0.394929443359375,1.5677531745910644,-9.244012609863281,2.8021137680053707
1759163592553986300,0.404986328125,1.5279495719909668,-9.381230292510987,3.021183219909668
1759163592564044300,0.415044189453125,1.459415549468994,-9.37255131149292,2.6068366950988766
1759163592574101500,0.4251015625,1.5490484741210937,-9.517550149536133,2.6797102081298827
1759163592584158500,0.435158447265625,1.6470611045837402,-9.606584523773193,2.9604303527832028
1759163592594215400,0.44521533203125,1.5322890624999999,-9.415646941375732,2.8420670082092285
1759163592604272400,0.4552724609375,1.6820763038635254,-9.54403600540161,3.571251051330566
1759163592614329300,0.465329345703125,1.6335937202453612,-9.450961415863036,3.5344402008056637
1759163592624387300,0.47538720703125,1.5569792671203613,-9.406519047546386,3.1280244689941403
1759163592634444300,0.4854443359375,1.5179238525390624,-9.317035760498046,3.040336833190918
1759163592644501500,0.49550146484375,1.5158289260864257,-9.09048442840576,3.021781770324707
1759163592654558500,0.505558349609375,1.5113397979736327,-8.91780263366699,2.901024224090576
1759163592664615400,0.515615478515625,1.6229694503784178,-8.905233074951171,2.8754361938476563
1759163592674673400,0.52567333984375,1.6813281158447264,-8.903587061309814,2.849099975585937
1759163592684730400,0.53573046875,1.7133505630493162,-8.96927796936035,2.9296050064086914
1759163592694787300,0.545787353515625,1.7277157730102537,-8.917652996063232,2.97509483795166
1759163592704844300,0.55584423828125,1.6099509788513182,-8.71384657974243,2.866009024810791
1759163592714901500,0.565901611328125,1.4387655601501463,-8.501361182403564,2.8229133949279785
1759163592724959500,0.57595947265625,1.3281833709716797,-8.383895663452147,2.7913398605346678
1759163592735016400,0.586016357421875,1.3097779457092285,-8.38883370437622,2.810942386627197
1759163592745073400,0.596073486328125,1.4148235435485839,-8.668656023406982,2.9083564666748045
1759163592755130400,0.60613037109375,1.5583260055541992,-9.113977532196044,2.9979893913269042
1759163592765187300,0.616187255859375,1.712901650238037,-9.434650917053222,3.080589348602295
1759163592775245300,0.626245361328125,1.7666215499877929,-9.51231283340454,3.1578023521423337
1759163592785302500,0.636302490234375,1.7227777320861815,-9.430610701751709,3.170521548461914
1759163592795359500,0.646359375,1.6493056686401366,-9.349956033325196,3.1943139274597168
1759163592805416400,0.65641650390625,1.562216583251953,-9.253739054107665,3.1766566902160642
1759163592815473400,0.666473388671875,1.560271294403076,-9.165602505493164,3.077746234130859
1759163592825531100,0.67653125,1.6093524284362792,-9.07207900314331,3.0117560508728025
1759163592835588000,0.686588134765625,1.6747440612792968,-8.948478342437744,2.987963671875
1759163592845645300,0.696645263671875,1.6814777534484862,-8.871564614105225,2.9536966606140136
1759163592855702500,0.70670263671875,1.6353893714904784,-8.796296899414061,2.923320227050781
1759163592865759500,0.716759521484375,1.6358382843017578,-8.745270476531982,2.818723542022705
1759163592875817200,0.726817138671875,1.6394295867919921,-8.739135334777831,2.6452935592651365
1759163592885874200,0.736874267578125,1.629254229736328,-8.620023802185058,2.263268756866455
1759163592895931100,0.74693115234375,1.6713023963928222,-8.626308581542968,2.0593127029418943
1759163592905988000,0.756988037109375,1.6620248649597167,-8.938901535797118,2.2987328689575195
1759163592916046000,0.767046142578125,1.5834651229858399,-9.231143775939941,2.671031227111816
1759163592926103000,0.77710302734375,1.5831658477783201,-9.04708952331543,2.8473043243408203
1759163592936160000,0.787159912109375,1.3564648780822752,-9.100959060668945,2.7259482276916502
1759163592946217200,0.79721728515625,1.2606968116760253,-9.18131445388794,2.63047943649292
1759163592956274200,0.807274169921875,1.1770493911743163,-9.4481183013916,2.7192145355224606
1759163592966332200,0.817332275390625,1.2176011817932129,-9.616161330413817,2.9912556991577146
1759163592976389000,0.82738916015625,1.3136685234069823,-9.548375495910644,3.2513258544921873
1759163592986446000,0.837446044921875,1.4368202713012694,-9.40457375869751,3.229329126739502
1759163592996503000,0.8475029296875,1.5325883377075193,-9.472359593200682,3.050512190246582
1759163593006561300,0.857561279296875,1.746719748687744,-9.377489352416992,2.9218238510131833
1759163593016618200,0.8676181640625,1.9384055191040037,-9.293692294311523,2.8088474601745603
1759163593026675200,0.87767529296875,1.9838953506469725,-9.327211117553711,2.7352257591247557
1759163593036732200,0.887732177734375,1.9629460861206054,-9.329306044006348,2.6939257804870604
1759163593046790100,0.8977900390625,1.7938555938720702,-9.539247602081298,2.612522924041748
1759163593056847000,0.90784716796875,1.684171230316162,-9.726743519592285,2.6550200035095215
1759163593066904300,0.917904296875,1.6083049652099608,-9.842563024902343,2.733879020690918
1759163593076961300,0.927961181640625,1.5167267517089842,-9.787945299530028,2.705148600769043
1759163593087019300,0.938019287109375,1.3768155921936034,-9.835679695129395,2.466775897979736
1759163593097076200,0.948076171875,1.3715782760620117,-9.773280814361572,2.2667104217529297
1759163593107133200,0.95813330078125,1.3955202926635741,-9.650727616882323,2.152836205291748
1759163593117190100,0.968190185546875,1.4686930809020995,-9.540145427703857,2.124255422973633
1759163593127248400,0.978248291015625,1.5176245773315429,-9.389759635925293,2.094776815032959
1759163593137305300,0.988305419921875,1.4845546669006346,-9.248352100372314,2.1000141311645506
1759163593147362300,0.9983623046875,1.4417583122253417,-9.232939427185059,2.2138883476257325
1759163593157419300,1.008419189453125,1.384746385192871,-9.141211576080321,2.3732523956298825
1759163593167477200,1.018477294921875,1.3416507553100585,-9.144204328155517,2.4521114128112793
1759163593177534200,1.0285341796875,1.2508207298278808,-9.316586847686766,2.4358009140014647
1759163593187591400,1.03859130859375,1.1959037292480468,-9.433453816223144,2.3364415451049805
1759163593197648400,1.0486484375,1.2147580673217773,-9.528024781799315,2.258031440734863
1759163593207706000,1.0587060546875,1.2765583976745605,-9.559448678588867,2.192190895080566
1759163593217763000,1.06876318359375,1.3724761016845701,-9.472359593200682,2.0787655914306638
1759163593227820000,1.078820068359375,1.4631564895629883,-9.412205276489257,1.8091186294555663
1759163593237877200,1.088877197265625,1.5515923133850096,-9.460388584899901,1.5930419296264648
1759163593247935200,1.098935302734375,1.599925259399414,-9.424475559997559,1.662473777770996
1759163593257992200,1.1089921875,1.5279495719909668,-9.368810371398926,1.7157447647094726
1759163593268049200,1.119049072265625,1.4459481651306152,-9.377788627624511,1.6774375381469726
1759163593278106000,1.129106201171875,1.3536217636108399,-9.442731347656249,1.651550232696533
1759163593288164000,1.1391640625,1.3332710494995117,-9.351901322174072,1.6675614562988281
1759163593298221000,1.149220947265625,1.3195043899536132,-9.594014965057372,1.6919523857116698
1759163593308278300,1.1592783203125,1.4282909278869629,-9.693224696350097,1.7003320915222166
1759163593318336300,1.169336181640625,1.5418658691406248,-9.600299744415283,1.7188871543884277
1759163593328393200,1.179393310546875,1.613243006134033,-9.528772969818114,1.6964415138244628
1759163593338450200,1.1894501953125,1.6395792243957519,-9.533112460327148,1.6576853744506834
1759163593348507100,1.199507080078125,1.5997756217956542,-9.616759880828857,1.638232485961914
1759163593358565000,1.209565185546875,1.548150648498535,-9.62798270111084,1.6391303115844726
1759163593368622300,1.219622314453125,1.4835072036743162,-9.64698667678833,1.6525976959228514
1759163593378679300,1.22967919921875,1.4465467155456542,-9.62753378829956,1.6903063720703124
1759163593388737300,1.2397373046875,1.403301448059082,-9.647435589599608,1.6518495079040527
1759163593398794200,1.249794189453125,1.395071379852295,-9.745747495269775,1.6394295867919921
1759163593408851200,1.259851318359375,1.384746385192871,-9.853486569976805,1.65992993850708
1759163593418908200,1.269908203125,1.3916297149658203,-9.942670581817627,1.7393875061035156
1759163593428966400,1.27996630859375,1.3780126930236816,-9.903016616821288,1.8761562759399413
1759163593439023400,1.2900234375,1.3646949462890625,-9.745448220062256,2.0777181282043458
1759163593449080300,1.300080322265625,1.3394061912536621,-9.641300447845458,2.1848586524963376
1759163593459138000,1.310137939453125,1.3512275619506835,-9.517250874328612,2.2610241928100585
1759163593469195000,1.320195068359375,1.4552256965637207,-9.39080709915161,2.2631191192626954
1759163593479252200,1.330252197265625,1.586607512664795,-9.13612389755249,2.246060432434082
1759163593489310200,1.340310302734375,1.7775450950622558,-8.930372192382812,2.307262212371826
1759163593499367200,1.3503671875,1.718737516784668,-8.8236805809021,2.3035212722778318
1759163593509424000,1.360424072265625,1.5619173080444335,-8.831162461090088,2.318784307861328
1759163593519481000,1.370481201171875,1.4329296936035156,-8.950124356079101,2.267608247375488
1759163593529539000,1.3805390625,1.2750620216369628,-9.175777862548827,2.140117008972168
1759163593539596300,1.39059619140625,1.1318588348388672,-9.491662844085694,1.9927239692687988
1759163593549653200,1.4006533203125,1.1285668075561524,-9.81263550415039,1.7565958305358886
1759163593559711200,1.410711181640625,1.3144167114257812,-10.005817650604248,1.5976806953430174
1759163593569768200,1.420768310546875,1.5915455535888672,-10.090512534332275,1.3946224670410154
1759163593579825200,1.4308251953125,1.8818425048828125,-10.096797313690185,1.0860697280883789
1759163593589883100,1.440883056640625,2.1013608695983885,-10.005967288208007,0.8182184173583984
1759163593599940400,1.4509404296875,2.221819140625,-9.909750308990478,0.5798457145690917
1759163593609997300,1.460997314453125,2.2116437835693357,-9.969904625701904,0.46791678695678707
1759163593620055300,1.47105517578125,2.1402666465759275,-10.070161820220946,0.4900631523132324
1759163593630112300,1.4811123046875,2.075623201751709,-10.3942768699646,0.33369185638427734
1759163593640169200,1.491169189453125,2.150292366027832,-10.735450606536865,0.037708676147460936
1759163593650227200,1.501227294921875,2.185157927703857,-10.835109250640869,-0.3387795349121094
1759163593660284200,1.5112841796875,1.9553145683288573,-10.825981356811523,-1.0377367820739745
1759163593670341400,1.52134130859375,1.715445489501953,-10.741735385894774,-1.4456488899230957
1759163593680399000,1.531399169921875,1.80029001083374,-10.669011510467529,-1.5375263786315918
1759163593690456000,1.5414560546875,2.104203984069824,-10.530147814178466,-1.5352818145751952
1759163593700513000,1.551512939453125,2.0513819099426267,-10.31062944946289,-1.3510779243469238
1759163593710571300,1.5615712890625,1.7184382415771484,-10.161590396118163,-0.9593266777038574
1759163593720628200,1.571628173828125,1.4787188003540037,-10.083778842163085,-0.26919804916381834
1759163593730685200,1.581685302734375,1.383399646759033,-10.149918663024902,0.2079962692260742
1759163593740743200,1.5917431640625,1.3965677558898926,-10.28593924484253,0.5422866760253906
1759163593750800100,1.601800048828125,1.2593500732421874,-10.291775111389159,0.960224503326416
1759163593760857000,1.611857177734375,1.0772411094665526,-10.299107353973389,1.0344447547912596
1759163593770915300,1.621915283203125,1.1122563087463377,-10.0878190574646,1.183633445739746
1759163593780972300,1.63197216796875,1.222539222717285,-9.687239192199707,1.230918928527832
1759163593791029200,1.642029296875,1.071405242919922,-9.112780431365966,1.0251672233581541
1759163593801087200,1.652087158203125,1.020827732849121,-8.875455191802978,0.6133645378112793
1759163593811144200,1.662144287109375,1.2081740127563476,-8.96344210281372,0.244507844543457
1759163593821201200,1.672201171875,1.3479355346679687,-9.078962332916259,-0.039354689788818356
1759163593831259100,1.682259033203125,1.599326708984375,-9.235782541656494,-0.16849194183349608
1759163593841316000,1.692316162109375,1.8490718696594237,-9.47370633163452,-0.1728314323425293
1759163593851373300,1.702373291015625,2.0555717628479004,-9.593715689849853,-0.06913257293701172
1759163593861431000,1.71243115234375,2.393603109741211,-9.701305126953125,0.15307926864624022
1759163593871488000,1.722488037109375,2.589329095458984,-9.833584768676758,0.3956418243408203
1759163593881545200,1.732545166015625,2.7084406280517577,-9.872939458465575,0.625036270904541
1759163593891603000,1.74260302734375,2.722805838012695,-9.836278245544433,0.6947673942565917
1759163593901660000,1.752659912109375,2.63661457824707,-9.700407301330566,0.7625532287597656
1759163593911716900,1.762716796875,2.5068787757873534,-9.535656299591064,0.8729857803344726
1759163593921775000,1.772775146484375,2.3705589187622067,-9.430461064147948,0.8083423355102538
1759163593931832000,1.78283203125,2.289455337524414,-9.239972394561766,0.8860042518615722
1759163593941890000,1.79289013671875,2.310703877258301,-9.028235185241698,0.8622118728637694
1759163593951947000,1.802947021484375,2.421435704040527,-8.984092092132569,0.7647977928161621
1759163593962004000,1.81300390625,2.4869769744873045,-8.952518557739257,0.6449380722045898
1759163593972062200,1.823062255859375,2.398990063476562,-8.639327053070067,0.603338818359375
1759163593982119200,1.833119140625,2.610577635192871,-8.798541463470459,0.43350013809204097
1759163593992176000,1.843176025390625,2.831891651153564,-9.067440237426757,0.2807201446533203
1759163594002233900,1.85323388671875,2.8989292976379395,-9.297133959197998,0.30361469802856444
1759163594012291000,1.863291015625,2.7091888160705566,-9.197924227905274,0.35030163040161133
1759163594022348800,1.873348876953125,2.7898434844970703,-9.176376412963867,0.37454292221069335
1759163594032406000,1.883406005859375,2.9022213249206543,-9.311050256347656,0.37933132553100585
1759163594042463000,1.893462890625,2.8604724334716796,-9.459790034484863,0.3839700912475586
1759163594052521000,1.90352099609375,2.5547628089904784,-9.175628224945068,0.483928010559082
1759163594062578000,1.913577880859375,2.4621371322631833,-8.863484183502196,0.34311902542114253
1759163594072635000,1.923634765625,2.436100189208984,-8.700229557800293,0.15068506698608397
1759163594082693000,1.933693115234375,2.600402278137207,-8.659528129577636,0.060303954315185544
1759163594092750000,1.94375,2.6786627449035643,-8.374169219207763,0.18046295013427732
1759163594102808000,1.95380810546875,2.9315502952575683,-8.343792785644531,0.2807201446533203
1759163594112865000,1.963864990234375,2.98152925491333,-8.501660457611084,0.30466216125488277
1759163594122922000,1.973921875,3.19206936340332,-8.673893339538573,0.47539866714477536
1759163594132980200,1.983980224609375,3.25596462020874,-8.657433203124999,0.6732195793151855
1759163594143037200,1.994037109375,3.05799407043457,-8.501061907196044,0.6630442222595214
1759163594153094100,2.00409423828125,3.1088708557128903,-8.407239129638672,0.6700771896362304
1759163594163152000,2.01415185546875,3.296815686035156,-8.423848903656005,0.423923331451416
1759163594173208800,2.024208740234375,3.2742204078674315,-8.411578620147704,0.08259995727539061
1759163594183266800,2.034266845703125,3.429095327758789,-8.582315126037598,-0.09217676391601562
1759163594193324000,2.044323974609375,3.819050923156738,-8.884134172821044,-0.19258359603881836
1759163594203381000,2.054381103515625,3.5935470542907715,-8.930372192382812,-0.19348142166137694
1759163594213439000,2.06443896484375,3.4555811836242674,-8.723423386383056,-0.10579378585815429
1759163594223496000,2.074495849609375,3.3877953491210935,-8.560318398284911,-0.19437924728393555
1759163594233554000,2.084553955078125,3.3770214416503905,-8.316858016967773,-0.34715924072265625
1759163594243611100,2.094611083984375,3.458274660491943,-8.142679846191406,-0.6416460449218749
1759163594253668000,2.104668212890625,3.6547488342285153,-8.041973738861083,-0.9680056587219238
1759163594263726000,2.11472607421875,3.538779691314697,-7.706635868835448,-1.2562076835632323
1759163594273783000,2.124782958984375,4.147056550598144,-7.763797433471679,-1.5200187789916992
1759163594283840800,2.1348408203125,4.389469468688964,-7.735067013549804,-1.6558897232055663
1759163594293898000,2.14489794921875,4.4379520523071285,-7.66743081665039,-1.7146973014831541
1759163594303956000,2.1549560546875,4.204966303253173,-7.688230443572998,-1.7248726585388183
1759163594314013000,2.165012939453125,3.3297359588623046,-7.161057165527343,-1.1528080993652343
1759163594324070000,2.17506982421875,2.2426187675476075,-6.404639078521728,-0.2964320930480957
1759163594334127900,2.1851279296875,1.732803451538086,-5.925948384094238,0.8717886795043944
1759163594344185000,2.19518505859375,2.14490541229248,-6.105214233398437,2.0784663162231443
1759163594354243000,2.2052431640625,3.2492309280395504,-7.154173835754394,3.340958779144287
1759163594364300000,2.215300048828125,4.436455676269531,-9.07821414489746,4.624101231384277
1759163594374357000,2.22535693359375,5.434688130950928,-11.91369709854126,5.392490326690673
1759163594384415000,2.2354150390625,6.042366439819336,-15.690999130249022,6.370820980072021
1759163594394472000,2.245471923828125,5.6215854980468745,-20.191499700927732,8.12726717300415
1759163594404530200,2.2555302734375,3.868281694793701,-23.492355602264404,9.969006800079345
1759163594414587100,2.265587158203125,0.8298901504516601,-23.94246551437378,9.6411508102417
1759163594424644900,2.275644775390625,-1.7139491134643554,-19.321207397460935,6.375459745788574
1759163594434701800,2.285701904296875,-2.996193740081787,-12.284947993469238,4.036324723815918
1759163594444758800,2.2957587890625,-3.5983354576110838,-7.529315308380126,3.4599206741333006
1759163594454817000,2.305817138671875,-3.452738069152832,-5.157260013580322,3.093607820129394
1759163594464874000,2.3158740234375,-3.755903854370117,-3.8913258857727047,2.607435245513916
1759163594474932000,2.325931884765625,-3.7645828353881834,-3.5865140869140624,2.3623288505554196
1759163594484989000,2.335989013671875,-3.5818753211975096,-3.5992332832336422,2.6153660385131836
1759163594495047200,2.346047119140625,-3.329885596466064,-3.887435308074951,2.6300305236816404
1759163594505104100,2.356104248046875,-3.0181904678344726,-4.396801711273193,2.344222700500488
1759163594515161000,2.3661611328125,-3.1233857032775876,-4.849754737854004,1.7981950843811034
1759163594525219000,2.376218994140625,-3.444358363342285,-5.366603021240234,1.4514847564697264
1759163594535276000,2.386276123046875,-3.522918105316162,-5.967996550750732,1.3958195678710936
1759163594545334000,2.396333984375,-3.4370261207580564,-6.92687431564331,1.4483423667907713
1759163594555391000,2.406390869140625,-3.596240531158447,-8.311171788024902,1.4398130233764648
1759163594565449000,2.416448974609375,-3.946542161560058,-10.038887561035155,1.1469722328186034
1759163594575506000,2.426505859375,-4.728249003601074,-11.687445041656494,0.6913257293701172
1759163594585564000,2.43656396484375,-4.17503878250122,-13.877391372680663,0.0282815071105957
1759163594595621000,2.44662109375,-2.644246096038818,-14.999823038482665,-1.3825018211364746
1759163594605678000,2.456677978515625,-1.3735235649108886,-14.516044665527343,-2.8808231475830075
1759163594615736000,2.466736083984375,0.9093477180480957,-13.397503577423095,-3.0787936973571775
1759163594625793000,2.47679296875,2.9014731369018554,-12.431293569946288,-2.2891560623168945
1759163594635851000,2.48685107421875,4.672583815002441,-11.851747130584716,-1.0134954902648925
1759163594645908000,2.496907958984375,5.043236159515381,-11.449970164489745,0.1452981132507324
1759163594655966000,2.506966064453125,3.9332244148254394,-10.389039553833006,1.1493664344787597
1759163594666023000,2.51702294921875,2.435501638793945,-9.662548987579346,2.2596774543762206
1759163594676081000,2.527080810546875,0.8093897987365722,-9.254936154937743,2.7247511268615723
1759163594686137900,2.537137939453125,-0.6841431243896484,-8.870816426086424,2.328510752105713
1759163594696194800,2.54719482421875,-2.2301988464355467,-8.513481828308105,1.5219640678405761
1759163594706253000,2.557253173828125,-2.2303484840393066,-8.310722875213623,1.4918869094848632
1759163594716310000,2.56731005859375,-1.9059341590881347,-8.216002272033691,1.3262380821228026
1759163594726368000,2.577367919921875,-1.8228852890014646,-8.444199617767334,1.0606313354492187
1759163594736425000,2.587425048828125,-1.6163853958129881,-8.698433906555175,1.0934019706726072
1759163594746483200,2.597483154296875,-1.368136611175537,-9.023297144317626,1.0760440086364746
1759163594756540200,2.6075400390625,-1.232714579772949,-9.235183991241454,1.1266215187072752
1759163594766598000,2.617597900390625,-1.4386159225463866,-9.472060317993163,1.016338604736328
1759163594776654800,2.62765478515625,-1.5836147605895996,-9.703848966217041,0.9395745140075683
1759163594786712800,2.637712890625,-1.3971663063049315,-9.892691622161864,0.9897031112670898
1759163594796770000,2.64777001953125,-1.103876602935791,-9.916334363555908,1.064222637939453
1759163594806827000,2.657826904296875,-0.850989052581787,-9.700108026123047,1.2318167541503906
1759163594816885000,2.667885009765625,-0.7269394790649414,-9.53146644668579,1.2636895637512207
1759163594826942000,2.67794189453125,-0.5169979209899902,-9.306561128234863,1.0025719451904296
1759163594837000000,2.688,-0.3673603172302246,-9.055768504333496,0.7480383811950683
1759163594847057200,2.69805712890625,-0.1149216796875,-8.890568589782715,0.6066308456420898
1759163594857115100,2.708115234375,0.21443068618774414,-8.866626573181152,0.5915174476623535
1759163594867172000,2.718172119140625,0.050128597259521485,-9.042600395202637,0.28431144714355466
1759163594877229800,2.728229736328125,-0.21951836471557615,-9.400383905792236,-0.32606033859252925
1759163594887286800,2.738286865234375,-0.596305850982666,-9.588029460906982,-0.8665513633728027
1759163594897344800,2.7483447265625,-0.4987421333312988,-9.73063409729004,-1.0063128852844239
1759163594907401700,2.758401611328125,-0.37439328460693355,-9.842263749694824,-1.05973350982666
1759163594917459700,2.768459716796875,-0.718260498046875,-9.945064783477783,-1.1243769546508788
1759163594927517000,2.778516845703125,-1.2033856094360351,-10.323498283386229,-1.1592425163269042
1759163594937575000,2.788574951171875,-1.80029001083374,-10.79620347366333,-1.1680711349487305
1759163594947631900,2.7986318359375,-2.1480478019714355,-11.16012212600708,-1.0205284576416016
1759163594957689900,2.80868994140625,-1.799691460418701,-11.364227817535399,-0.7511807708740234
1759163594967746800,2.818746826171875,-0.8996212738037109,-11.565640032196045,-0.5382464607238769
1759163594977804800,2.8288046875,0.18001403732299803,-11.742511679840087,-0.08559270935058594
1759163594987861800,2.83886181640625,1.456273159790039,-11.771242099761961,0.5600935508728027
1759163594997918700,2.848918701171875,2.559401574707031,-12.080991939544678,1.1754033775329589
1759163595007976700,2.858976806640625,2.6678888374328613,-12.716203567504882,1.6702549331665038
1759163595018033700,2.86903369140625,2.27284556350708,-13.618667955780028,1.7278654106140137
1759163595028092000,2.879091796875,2.555062084197998,-14.570363115692137,0.8978256225585937
1759163595038148900,2.88914892578125,2.5296236915588377,-15.188964969635009,-0.8086416107177734
1759163595048206800,2.899206787109375,2.603544667816162,-15.041123017120361,-2.3856723167419434
1759163595058263800,2.909263916015625,2.525134563446045,-14.732719915771483,-3.7295676361083983
1759163595068322000,2.919322021484375,1.80672442779541,-14.214824169158934,-4.75653051071167
1759163595078379000,2.92937890625,1.2705728935241698,-13.209558747100829,-4.947019180297851
1759163595088436700,2.939436767578125,1.1361983253479002,-12.063933252716064,-4.720018935394287
1759163595098493700,2.94949365234375,1.3350667007446289,-11.159373937988281,-4.604049792480469
1759163595108551700,2.9595517578125,1.2626421005249022,-10.740837560272217,-4.422838654327393
1759163595118608600,2.969608642578125,-0.06733692169189452,-10.701033957672118,-3.522918105316162
1759163595128667000,2.9796669921875,-2.2471078956604003,-10.953921508026122,-0.9914987625122069
1759163595138723800,2.989723876953125,-4.092738100433349,-11.584344732666015,2.6619033332824706
1759163595148781800,2.99978173828125,-5.127931043243408,-12.739696671295166,5.789927802276611
1759163595158838800,3.0098388671875,-5.221304907989501,-13.458854994964598,7.630320690917968
1759163595168897000,3.01989697265625,-4.250456134796142,-13.628693675231933,7.83337891921997
1759163595178954000,3.0299541015625,-2.7705402336120604,-13.972710526275634,8.004414700317382
1759163595189011700,3.04001171875,-1.1403881782531737,-13.671041117095946,8.179341059112549
1759163595199068700,3.050068603515625,0.5181950218200684,-12.3464490486145,9.277531433105468
1759163595209127000,3.060126953125,1.6301520553588866,-10.204087475585936,11.162815602874755
1759163595219183900,3.070183837890625,1.4034510856628417,-8.338555469512938,11.545289318084716
1759163595229241900,3.080241943359375,-3.2158617424011227,-7.267000588989258,8.22288560180664
1759163595239298800,3.090298828125,-6.02665449142456,-8.488043435668946,3.499873914337158
1759163595249356800,3.100356689453125,-2.498798345184326,-10.304643945312499,0.11941080780029296
1759163595259413800,3.110413818359375,-0.07975684280395508,-11.035324364471435,-3.0570962448120116
1759163595269472000,3.120471923828125,2.281075631713867,-11.611279501342773,-5.163245517730712
1759163595279529000,3.130529052734375,2.273593751525879,-11.350910070800781,-4.1849148643493645
1759163595289586700,3.140586669921875,-0.7568669998168945,-10.313023651123046,-2.699013459014892
1759163595299643600,3.1506435546875,-3.4931402221679684,-9.135226071929932,-2.111236951446533
1759163595309702000,3.160701904296875,-3.685723818206787,-8.083722630310058,-1.6086042404174803
1759163595319758800,3.1707587890625,-2.9679122329711913,-7.31638099822998,-1.4279916526794432
1759163595329816800,3.18081689453125,-2.4486697479248045,-6.755838534545898,-0.9344868354797363
1759163595339873800,3.190873779296875,-2.160467723083496,-6.183175424957275,0.04219780426025391
1759163595349931800,3.200931884765625,-2.071582986450195,-5.959616844940185,1.2452841384887694
1759163595359989000,3.210989013671875,-1.7769465446472168,-5.9588686569213865,1.978508396911621
1759163595370047000,3.221046875,-1.1821370697021483,-5.992237842559814,2.5020903724670407
1759163595380104000,3.23110400390625,-1.059134959411621,-5.889137533569335,3.329885596466064
1759163595390161700,3.24116162109375,-0.8352771041870116,-5.5276130828857415,3.5705028633117672
1759163595400218600,3.251218505859375,-0.59376201171875,-5.223699109649658,3.722684306335449
1759163595410276900,3.26127685546875,-0.21218612213134763,-5.109974530792236,3.914968627166748
1759163595420333800,3.271333740234375,-0.26396073303222656,-5.052064778137207,4.050390658569336
1759163595430391800,3.281391845703125,-0.36915596847534177,-5.073462955474853,4.258686203002929
1759163595440448800,3.29144873046875,0.14380173721313474,-5.342361729431152,3.9674914260864256
1759163595450507000,3.301507080078125,1.1783961296081542,-5.881057102966309,3.4898481948852536
1759163595460564700,3.311564697265625,2.0651485694885254,-6.488735411834717,2.827103247833252
1759163595470622000,3.3216220703125,2.828898899078369,-7.0181532539367675,2.1402666465759275
1759163595480679700,3.3316796875,3.6822821533203123,-7.3861121215820305,1.585859324645996
1759163595490736600,3.341736572265625,4.121468520355224,-7.690175732421874,1.355417414855957
1759163595500795000,3.351794921875,4.380940125274658,-8.104222982025146,1.1002853004455566
1759163595510851800,3.361851806640625,4.833444239044189,-8.557325646209716,0.5460276161193848
1759163595520909800,3.371909912109375,5.390245762634277,-9.00803410873413,0.16609774017333984
1759163595530966800,3.381966796875,6.011391455841064,-9.578602291870117,-0.3012204963684082
1759163595541025000,3.39202490234375,7.052420265197753,-10.541520272064208,-1.0990881996154784
1759163595551082000,3.40208203125,8.438363751220702,-11.943624619293212,-2.1375731697082516
1759163595561139700,3.4121396484375,9.705195704650878,-13.907618168640136,-3.010858225250244
1759163595571196700,3.42219677734375,8.980949702453612,-16.072126107025145,-4.234444911193847
1759163595581254700,3.432254638671875,5.800851347351074,-17.676390856933594,-5.990442191314697
1759163595591312000,3.442311767578125,2.863914098358154,-17.272219689178467,-6.160580146789551
1759163595601369900,3.452369873046875,2.3216274223327638,-14.07132170715332,-3.6750995483398436
1759163595611426800,3.4624267578125,2.7793688522338864,-10.47687682723999,-2.6421511695861817
1759163595621484800,3.47248486328125,2.8070518089294434,-8.361749298095702,-2.402581365966797
1759163595631541800,3.482541748046875,2.281674182128906,-6.519261483001708,-1.5084966835021971
1759163595641600000,3.49260009765625,2.1990742248535153,-4.713434880828857,-0.5689221694946289
1759163595651657000,3.502656982421875,2.080561242675781,-3.2116718894958494,0.36092590026855464
1759163595661714700,3.512714599609375,1.7913117546081543,-2.4729110397338867,1.3654431343078612
1759163595671772700,3.522772705078125,1.3356652511596678,-2.687192088317871,2.0033482391357422
1759163595681830000,3.532829833984375,1.1692682357788085,-3.841047650909424,2.727145328521728
1759163595691887900,3.542887939453125,2.45794727935791,-6.052990709686279,3.612251754760742
1759163595701944800,3.55294482421875,5.8648962417602535,-10.114604188537598,4.005050464630127
1759163595712002800,3.5630029296875,5.604526811218261,-17.300052283477783,5.099050985717773
1759163595722059800,3.573059814453125,-0.9286509689331054,-25.36507021331787,8.402001813507079
1759163595732118000,3.583117919921875,-0.754622435760498,-29.388675740814207,9.061604370880126
1759163595742175000,3.593175048828125,-1.1162965240478515,-23.987057520294186,7.533804436492919
1759163595752232700,3.603232666015625,-3.103483901977539,-13.655179531097412,7.296329559326171
1759163595762289700,3.61328955078125,-1.3009493270874022,-6.965031904602051,6.989722109222412
1759163595772348000,3.623347900390625,-0.6464344482421874,-3.6170401580810543,6.686855599212646
1759163595782404900,3.63340478515625,-1.4987702392578124,-2.0020015007019043,6.515819818115234
1759163595792462800,3.643462890625,-2.271498825073242,-1.4296376663208008,5.705681831359863
1759163595802520800,3.653520751953125,-2.711283742523193,-1.3787608810424803,5.0371010177612305
1759163595812577800,3.663577880859375,-3.2378584701538085,-1.8598457771301269,4.601057040405273
1759163595822635800,3.6736357421875,-3.9695863525390624,-2.8950387199401852,4.027795380401611
1759163595832692700,3.683692626953125,-3.819799111175537,-4.256591276550293,3.6516064445495604
1759163595842750700,3.693750732421875,-2.7889456588745114,-5.839008936309814,3.3469442832946776
1759163595852807700,3.7038076171875,-2.78355870513916,-7.204003157806396,3.141641490936279
1759163595862866000,3.713865966796875,-2.689586289978027,-8.717288244628906,3.0014310562133786
1759163595872923000,3.7239228515625,-2.814832964324951,-10.165780249023436,3.229927677154541
1759163595882980900,3.73398095703125,-3.7172973526000974,-11.692981632995604,3.4651579902648924
1759163595893037800,3.744037841796875,-5.109974530792236,-13.448081087493895,2.820968106079101
1759163595903095800,3.754095703125,-7.195773089599609,-15.39920580291748,1.776048719024658
1759163595913152800,3.76415283203125,-8.372223930358887,-17.04656618270874,0.3764882110595703
1759163595923210500,3.77421044921875,-6.9162500457763665,-16.61860263595581,-2.5617957763671875
1759163595933268700,3.784268798828125,-3.0129531517028805,-15.154697958374022,-4.582801252746582
1759163595943325700,3.79432568359375,0.6953659446716308,-13.766509908294678,-5.259612134552001
1759163595953383700,3.8043837890625,3.6360441337585447,-12.39792438430786,-5.3664533836364745
1759163595963440600,3.814440673828125,6.464494120025634,-10.783334639739989,-4.356249920654297
1759163595973499000,3.824498779296875,6.879588832855224,-9.095721744537354,-3.272574394226074
1759163595983555800,3.834555908203125,4.861725746154785,-8.031050193786621,-2.9713538978576657
1759163595993613800,3.84461376953125,2.80271231842041,-7.417386380767822,-2.191592344665527
1759163596003670800,3.8546708984375,1.4050970993041991,-7.1869444709777826,-0.7796119155883788
1759163596013728500,3.864728515625,0.18734627990722655,-7.129333993530273,0.08125321884155273
1759163596023785500,3.874785400390625,-0.9819219558715819,-7.738658316040039,0.14036007232666015
1759163596033843700,3.88484375,-1.816301234436035,-8.81694688873291,0.046537294769287106
1759163596043901700,3.894901611328125,-1.889025109863281,-9.720608377838134,0.7324760704040527
1759163596053958700,3.904958740234375,-1.5568296295166015,-9.944166957855224,1.8960580772399902
1759163596064017000,3.915016845703125,-0.9856628959655761,-9.952097750854492,3.005770546722412
1759163596074073900,3.925073974609375,-0.38845921936035155,-9.888801044464111,3.8385038116455075
1759163596084131800,3.9351318359375,0.2079962692260742,-9.593715689849853,4.227262306213379
1759163596094188800,3.945188720703125,0.5547065971374512,-9.314043008422852,3.998466410064697
1759163596104246500,3.95524658203125,0.24046762924194334,-9.338882850646971,3.3969232429504395
1759163596114303500,3.965303466796875,-0.6311714126586914,-9.445724099731445,2.6241946571350097
1759163596124361700,3.97536181640625,-1.7788918334960937,-9.501090013122559,1.8541595481872557
1759163596134419700,3.985419677734375,-2.7015572982788085,-9.340528864288329,1.4413093994140624
1759163596144476700,3.9954765625,-2.874239093017578,-9.316137934875488,1.1534066497802733
1759163596154535000,4.005534912109375,-2.395548398590088,-9.904064080047608,0.20605098037719724
1759163596164591900,4.015591796875,-1.6868647071838379,-10.600776763153075,-0.8152256652832031
1759163596174649600,4.025649658203125,-0.9901520240783691,-11.155034447479247,-1.7245733833312988
1759163596184706600,4.03570654296875,0.09636661682128905,-11.577611040496825,-2.3918074584960936
1759163596194764500,4.0457646484375,0.9521440727233886,-11.767650797271727,-3.004573445892334
1759163596204821500,4.055821533203125,1.4655506912231444,-12.065579266357421,-3.649960430908203
1759163596214879700,4.065879638671875,1.85131643371582,-12.578387334442137,-3.8352117843627926
1759163596224937700,4.075937744140625,1.4172177452087402,-12.881852394866943,-3.5899557518005367
1759163596234994700,4.08599462890625,0.2066495307922363,-12.722338709259033,-3.23052622756958
1759163596245053000,4.096052978515625,-0.8174702293395996,-12.375029830932617,-2.6780641944885253
1759163596255110000,4.10610986328125,-0.7803601036071777,-11.871349656677245,-1.8145055831909178
1759163596265167600,4.116167724609375,0.08005611801147461,-11.418546267700195,-0.2920926025390625
1759163596275224600,4.126224609375,1.995716721343994,-11.453112554168701,1.1104606575012206
1759163596285282600,4.136282470703125,3.5597289558410643,-11.984625322723389,2.1224597717285154
1759163596295340800,4.1463408203125,3.991583080291748,-12.890681013488768,2.4627356826782223
1759163596305397800,4.156397705078125,3.8708255340576168,-13.612383176422119,2.002151138305664
1759163596315455700,4.166455810546875,3.6062662506103513,-13.557017263031005,1.1968015548706055
1759163596325512700,4.1765126953125,3.020435031890869,-12.930783891296386,0.11791443176269531
1759163596335570700,4.18657080078125,1.666962905883789,-12.28375089263916,-1.044470474243164
1759163596345628000,4.1966279296875,0.04414309310913086,-11.952752513122558,-2.271498825073242
1759163596355685600,4.206685546875,-1.11719434967041,-11.595866828155517,-3.051260378265381
1759163596365742600,4.21674267578125,-1.3819032707214354,-11.061660582733154,-2.5377041221618653
1759163596375800600,4.226800537109375,-1.6575357368469237,-11.310807192993163,-1.236006607055664
1759163596385858800,4.23685888671875,-2.6774656440734863,-12.292579511260985,-0.04713584518432617
1759163596395915800,4.246915771484375,-3.60072965927124,-13.450475289154053,1.7229273696899412
1759163596405973800,4.256973876953125,-3.852869021606445,-14.380024083709715,3.703979605865478
1759163596416030700,4.26703076171875,-3.630806817626953,-14.518887779998778,5.285349802398681
1759163596426088700,4.277088623046875,-3.0699650787353514,-14.330793312072753,6.184821438598632
1759163596436145700,4.287145751953125,-2.5227403617858886,-14.142399568939208,7.049876425933838
1759163596446203600,4.29720361328125,-1.7781436454772948,-13.933056561279296,7.382221543884277
1759163596456261600,4.30726171875,-0.8369231178283691,-13.45825644454956,7.980921596527099
1759163596466318600,4.317318603515625,0.8397662322998046,-12.58332537536621,8.662371244049071
1759163596476376800,4.327376953125,2.3497592918395993,-11.227159772491454,8.635586112976073
1759163596486433800,4.337433837890625,-0.033518823242187495,-9.30296982574463,7.030423537445068
1759163596496491800,4.34749169921875,-1.8683751205444334,-9.00159969177246,3.942202671051025
1759163596506548700,4.357548828125,0.10938508834838867,-9.428964688110351,2.087145297241211
1759163596516606700,4.367606689453125,1.1685200477600097,-9.619004444885253,0.4816834465026855
1759163596526664700,4.377664794921875,0.7872434333801269,-9.301323812103272,-1.7344494651794433
1759163596536721700,4.3877216796875,1.1188403633117676,-9.18101517868042,-3.4389714096069333
1759163596546779600,4.397779541015625,0.3447650390625,-8.570643392944335,-2.405125205230713
1759163596556836600,4.407836669921875,-2.087145297241211,-7.842506813049316,-1.4378677345275879
1759163596566894800,4.417894775390625,-3.403507297515869,-7.388057410430908,-1.4053963745117186
1759163596576951800,4.427951904296875,-2.8172271659851074,-6.739677673339843,-0.5976525894165039
1759163596587009800,4.438009765625,-2.562843239593506,-6.369623879241943,-0.2120364845275879
1759163596597067500,4.448067626953125,-2.3005285202026364,-6.182876149749755,-0.24016835403442383
1759163596607124700,4.458124755859375,-1.6487071182250976,-6.26293226776123,0.051774610900878905
1759163596617182700,4.4681826171875,-1.0601824226379395,-6.325331148529052,0.8189666053771972
1759163596627239700,4.47823974609375,-0.8056488586425781,-6.3609448982238765,2.205957554626465
1759163596637297700,4.488297607421875,-0.9238625656127929,-6.48664048538208,3.3563714523315427
1759163596647354600,4.498354736328125,-1.0570400329589844,-6.820930892181396,3.573345977783203
1759163596657412900,4.508412841796875,-0.8411129707336426,-6.670994013214111,3.949983826446533
1759163596667470600,4.518470703125,-0.8755296195983886,-6.255151112365723,4.261828592681884
1759163596677527600,4.528527587890625,-0.9419687156677246,-5.855917985534668,4.490624488830566
1759163596687585500,4.53858544921875,-1.1516109985351561,-5.1605520408630365,4.389170193481445
1759163596697642800,4.548642822265625,-0.6988076095581054,-4.641908106231689,3.4289456901550293
1759163596707700700,4.55870068359375,0.03965396499633789,-4.709394665527343,2.3977929626464842
1759163596717757700,4.5687578125,0.7167641220092773,-5.121047713470459,1.6371850227355955
1759163596727815700,4.578815673828125,1.6220716247558593,-5.833621982574463,1.1809399688720703
1759163596737874000,4.5888740234375,2.5397990486145017,-6.9439330024719235,0.3694552436828613
1759163596747931000,4.598930908203125,3.0322564025878904,-7.62912359008789,-0.03800795135498047
1759163596757988600,4.608988525390625,3.984849388122558,-8.559270935058594,-0.5161000953674316
1759163596768045600,4.619045654296875,5.392639964294434,-9.433453816223144,-0.3895066825866699
1759163596778103600,4.629103515625,6.928071416473388,-10.194211393737792,-0.5466261665344238
1759163596788160800,4.639160888671875,8.842834194183348,-10.746823064422607,-0.5256769020080566
1759163596798218800,4.64921875,9.792733702850342,-11.101464185333251,-0.6183025787353515
1759163596808276700,4.65927685546875,9.674370358276366,-11.580304517364501,-0.8065466842651366
1759163596818333700,4.669333740234375,9.176675688171386,-12.294375162506103,-1.3506290115356445
1759163596828391700,4.6793916015625,8.556128545379638,-12.887987536621093,-2.1507412788391114
1759163596838448600,4.68944873046875,7.237671618652343,-13.335403971862792,-2.971054622650146
1759163596848506600,4.699506591796875,5.231480265045166,-13.111695754241943,-3.0883705039978024
1759163596858564600,4.709564697265625,3.6647745536804197,-12.185289349365233,-2.4334067123413083
1759163596868621600,4.71962158203125,2.907309003448486,-10.328585961914062,-1.56416187210083
1759163596878679800,4.7296796875,2.56014976272583,-8.328230474853514,-1.0342951171875
1759163596888736800,4.73973681640625,2.104353621673584,-6.7006222587585444,-0.8307879760742187
1759163596898795000,4.749794921875,1.3654431343078612,-4.9540521476745605,-0.5012859725952148
1759163596908852000,4.75985205078125,0.8295908752441405,-3.5998318336486816,0.1967734489440918
1759163596918909700,4.76990966796875,0.7691372833251953,-3.3693899238586424,1.1842319961547851
1759163596928967700,4.7799677734375,1.0260650489807128,-4.388721280670166,2.426673020172119
1759163596939025000,4.79002490234375,1.5931915672302246,-6.289717398834228,3.6317046432495115
1759163596949083000,4.800082763671875,2.942324202728271,-10.082581741333007,3.8673838691711424
1759163596959139800,4.810139892578125,6.456563327026367,-17.239748329162598,4.011185606384277
1759163596969197800,4.82019775390625,3.9995138732910154,-25.5241349861145,6.602759265899658
1759163596979255800,4.830255859375,-2.421585341644287,-28.785037647247314,8.189217140960693
1759163596989312800,4.840312744140625,-3.88818349609375,-24.091205292510985,7.31024585647583
1759163596999370800,4.850370849609375,-4.11802685546875,-15.062820469665526,5.754463690185546
1759163597009427700,4.860427734375,-2.9885622222900388,-8.291269986724853,4.771344633483887
1759163597019485700,4.870485595703125,-1.3944728294372557,-5.001038355255127,4.319289432525634
1759163597029543000,4.88054296875,-0.9919476753234863,-2.9697078842163083,4.030189582061768
1759163597039601000,4.890600830078125,-1.6494553062438964,-2.1716905433654783,4.0149265464782715
1759163597049659000,4.900658935546875,-2.8700492401123046,-2.296189029693603,3.9395091941833495
1759163597059715800,4.9107158203125,-2.8871079269409177,-3.1477766326904293,3.7056256195068356
1759163597069773800,4.92077392578125,-2.5252842010498044,-4.34727166442871,3.687070556640625
1759163597079830800,4.930830810546875,-2.4920646530151367,-5.525368518829345,3.53698404006958
1759163597089888800,4.940888671875,-2.2092495819091797,-6.575076309204102,3.2386066581726074
1759163597099946800,4.95094677734375,-2.180219886779785,-7.50791713104248,2.944269491577148
1759163597110004000,4.96100390625,-2.357690084838867,-8.593986859130858,2.9095535675048825
1759163597120062000,4.97106201171875,-2.648884861755371,-9.786000010681152,3.132812872314453
1759163597130119000,4.981118896484375,-3.454533720397949,-11.080514920806884,3.2981624244689938
1759163597140177000,4.991177001953125,-5.502773240661621,-12.531700402069092,2.914341970825195
1759163597150233900,5.00123388671875,-7.486668591308593,-14.280215802001953,1.922244657897949
1759163597160291800,5.011291748046875,-7.297825935363769,-14.937723432922363,0.46731823654174803
1759163597170349800,5.021349853515625,-5.7885810638427735,-14.028076439666748,-0.4082113830566406
1759163597180406800,5.03140673828125,-3.066224138641357,-12.982708139801025,-1.3516764747619627
1759163597190464800,5.04146484375,0.7492354820251464,-12.173318341064453,-2.348262915802002
1759163597200522000,5.05152197265625,4.381837950897217,-11.161019951629639,-2.9849709197998044
1759163597210580000,5.061580078125,6.066607731628418,-10.294767863464354,-3.2933740211486815
1759163597220637700,5.0716376953125,5.742193406677246,-9.485378064727783,-3.018489743041992
1759163597230694700,5.081694580078125,3.90075305480957,-8.30518628387451,-2.6349685646057126
1759163597240753000,5.0917529296875,2.205209366607666,-7.420079857635498,-1.872564973449707
1759163597250809900,5.101809814453125,1.1590928787231445,-7.4040686340332025,-0.7700351089477538
1759163597260867800,5.111867919921875,0.6148609138488769,-8.200290323638916,-0.2929904281616211
1759163597270924800,5.1219248046875,-0.1197100830078125,-9.010278672790527,-0.42272623062133785
1759163597280982800,5.131982666015625,-0.7643488800048828,-9.587730185699462,-0.2700958747863769
1759163597291041000,5.142041015625,-1.0277110626220702,-10.18837552719116,0.29179332733154295
1759163597301098000,5.152097900390625,-0.7029974624633789,-10.81430962371826,1.0799345863342285
1759163597311155700,5.16215576171875,-0.06150105514526367,-11.225813034057616,1.7826327735900878
1759163597321212700,5.172212646484375,0.601393529510498,-11.148151117706298,2.5962124252319336
1759163597331271000,5.18227099609375,1.0690110412597655,-10.527005424499512,3.1848867584228513
1759163597341329000,5.192328857421875,1.0458172126770018,-9.657311671447752,3.369689199066162
1759163597351385900,5.2023857421875,0.35718496017456053,-8.986935206604004,2.902520600128174
1759163597361443800,5.21244384765625,-0.8888473663330078,-8.42085615158081,1.9656395629882812
1759163597371500800,5.222500732421875,-1.772307778930664,-8.052897283935547,1.4597148246765135
1759163597381558800,5.232558837890625,-2.423530630493164,-7.937377053833007,1.068711766052246
1759163597391615700,5.24261572265625,-2.976291938781738,-8.100332404327393,0.6814496475219726
1759163597401673700,5.252673828125,-2.813635863494873,-8.615983586883544,0.366462491607666
1759163597411731700,5.262731689453125,-2.6879402763366698,-9.32182416381836,-0.13213000411987305
1759163597421789000,5.272788818359375,-2.505083124542236,-9.910348859405516,-0.2823661582946777
1759163597431847000,5.282846923828125,-1.8459294799804686,-10.153659603118896,0.04848258361816406
1759163597441903900,5.29290380859375,-1.0404302589416503,-10.429591344451904,0.20126257705688474
1759163597451961900,5.3029619140625,-0.3902548706054687,-10.512340939331054,-0.10788871231079102
1759163597462019800,5.313019775390625,-0.07556698989868163,-10.697741930389403,-0.5825391914367676
1759163597472076800,5.323076904296875,0.013766659545898436,-11.17239240951538,-1.2988544006347655
1759163597482134800,5.333134765625,0.03800795135498047,-11.93838730316162,-2.015468885040283
1759163597492191700,5.343191650390625,-0.18091186294555664,-12.720543058013915,-2.6403555183410643
1759163597502249700,5.353249755859375,-0.3399766357421875,-13.013234210968017,-2.927958992767334
1759163597512308000,5.363307861328125,-0.14125789794921875,-13.000814289855956,-2.8465561363220213
1759163597522365000,5.373364990234375,0.5922656356811523,-12.798653887176513,-2.280626718902588
1759163597532422700,5.383422607421875,1.6282067665100097,-12.378022583007812,-1.463306127166748
1759163597542480000,5.39347998046875,2.8808231475830075,-11.781567094421385,-0.16160861206054686
1759163597552537900,5.403537841796875,3.553294538879394,-11.4140571395874,1.064222637939453
1759163597562594800,5.4135947265625,3.244442524719238,-11.845312713623047,1.8073229782104492
1759163597572652800,5.42365283203125,2.680757671356201,-12.818256413269042,2.308459313201904
1759163597582710800,5.433710693359375,2.61132582321167,-13.577966527557372,2.520944710540771
1759163597592767700,5.443767822265625,2.9228713142395017,-13.535918360900878,1.9602526092529295
1759163597602826000,5.453825927734375,3.086874127960205,-12.881553119659424,0.6560112548828124
1759163597612883000,5.463883056640625,2.7061960639953613,-12.287940745544432,-0.9359832115173339
1759163597622940700,5.473940673828125,1.7221791816711425,-11.97669452972412,-2.3419781364440917
1759163597632999000,5.4839990234375,0.43978491744995113,-11.642853035736083,-3.0334535034179684
1759163597643055900,5.494055908203125,-0.7695861961364746,-11.250503238677977,-3.0021792442321775
1759163597653113900,5.50411376953125,-1.7443255470275878,-11.350012245178222,-2.689586289978027
1759163597663170800,5.5141708984375,-2.6382605918884274,-11.81673193130493,-1.8017863868713377
1759163597673228800,5.524228759765625,-3.2837972145080565,-12.241702725982666,-0.41584290084838865
1759163597683285800,5.53428564453125,-3.8148610702514647,-12.324003408050537,1.3753192161560057
1759163597693344000,5.544343994140625,-4.058171813964844,-12.310685661315917,3.374028689575195
1759163597703401700,5.554401611328125,-3.974823668670654,-12.418125460815428,4.502445859527588
1759163597713458700,5.564458740234375,-3.308786694335937,-12.441319289398193,5.402216770935058
1759163597723517000,5.574516845703125,-2.831442738342285,-12.619088762664795,6.231508370971679
1759163597733574000,5.584573974609375,-2.236633263397217,-12.71680211791992,6.66530778427124
1759163597743632000,5.5946318359375,-0.896329246520996,-12.325799059295653,8.04975489425659
1759163597753689900,5.60468994140625,1.1046247909545899,-11.353004997253418,9.961973832702636
1759163597763746800,5.614746826171875,2.748992418670654,-10.741885023498535,10.076147324371338
1759163597773804800,5.6248046875,3.1166520111083984,-10.90364327316284,8.137143254852294
1759163597783861800,5.63486181640625,1.351526837158203,-10.169820464324951,6.036081660461425
1759163597793919700,5.644919677734375,-1.3468880714416502,-9.381679205322266,3.4287960525512693
1759163597803977700,5.654977783203125,-1.7636287979125975,-9.00204860458374,0.6124667121887206
1759163597814035000,5.665034912109375,-0.8997709114074707,-8.66296979446411,-1.577629256439209
1759163597824093000,5.675093017578125,-0.16549918975830077,-8.499565531158447,-2.8176760787963864
1759163597834150000,5.68514990234375,-0.25213936233520506,-8.092551248931885,-3.1105168693542478
1759163597844207900,5.695207763671875,-1.0995371124267577,-7.728034046173096,-3.216460292816162
1759163597854264800,5.705264892578125,-2.3466169021606444,-7.1984665664672844,-2.314744092559814
1759163597864322800,5.71532275390625,-2.567033092498779,-6.583156739807128,-1.137096150970459
1759163597874380800,5.725380859375,-1.8155530464172362,-6.129754800415038,-0.7245452774047851
1759163597884437800,5.735437744140625,-1.1463736824035644,-5.9953802322387695,-0.6177040283203125
1759163597894496000,5.74549609375,-0.522235237121582,-6.2964510910034175,0.49949032135009763
1759163597904553000,5.755552978515625,-0.4495113616943359,-6.7803791015625,1.6074071395874023
1759163597914611000,5.76561083984375,-0.1345242057800293,-7.204003157806396,2.6213515426635743
1759163597924669000,5.7756689453125,0.4560954162597656,-7.362319742584228,3.2947207595825194
1759163597934726000,5.785725830078125,0.3586813362121582,-7.116465159606933,3.3535283378601073
1759163597944784000,5.795783935546875,-0.5102642288208008,-6.936600759887695,3.169025172424316
1759163597954840800,5.8058408203125,-1.1804910560607909,-6.133346102905273,3.278410260772705
1759163597964899000,5.815899169921875,-1.3328221366882322,-6.062866791534423,2.953397385406494
1759163597974956000,5.8259560546875,-1.1878232986450195,-6.459107166290283,2.6497826873779293
1759163597985014000,5.836013916015625,-0.5398924743652344,-6.949619231414794,2.0087351928710935
1759163597995072000,5.846072021484375,0.19931728820800781,-7.583334483337402,0.9498995086669921
1759163598005129000,5.85612890625,1.0143933158874512,-7.926004595947266,0.5858312187194824
1759163598015187000,5.86618701171875,1.7488146751403808,-8.016385708618163,0.5820902786254882
1759163598025244000,5.876243896484375,2.858676782226562,-7.924208944702148,0.5334580574035644
1759163598035302000,5.886302001953125,4.036324723815918,-7.910591922760009,0.4132990615844726
1759163598045359900,5.89635986328125,4.873397479248046,-8.116193990325927,0.38352117843627925
1759163598055417000,5.9064169921875,5.463119275665283,-8.158840707397461,0.5497685562133788
1759163598065475000,5.91647509765625,6.106112059020996,-8.715193318176269,0.4161421760559082
1759163598075532000,5.926531982421875,6.78606533050537,-9.49256066970825,0.19333178405761717
1759163598085589800,5.93658984375,7.2066966346740715,-10.36779101409912,-0.2424129180908203
1759163598095647000,5.94664697265625,7.345261055755615,-11.333552108764648,-1.0084078117370605
1759163598105705000,5.956705078125,6.916549320983886,-12.477681227111816,-2.245312244415283
1759163598115763000,5.966762939453125,5.827037928009033,-13.727604131317138,-3.561823882293701
1759163598125820000,5.97681982421875,4.254496350097656,-14.218565109252928,-4.27095648651123
1759163598135878000,5.9868779296875,3.538181140899658,-13.588740435028075,-4.010587055969238
1759163598145935000,5.99693505859375,3.8619969154357907,-11.767650797271727,-2.747645680236816
1759163598155993000,6.0069931640625,3.3066917678833008,-9.57695627822876,-1.5951368560791015
1759163598166050800,6.01705078125,1.833509558868408,-7.627327938842773,-0.6578069061279297
1759163598176107800,6.027107666015625,0.7395090377807617,-5.663184751892089,0.24600422058105467
1759163598186166000,6.037166015625,0.15128361740112303,-3.789721952819824,0.9793781166076659
1759163598196223000,6.047222900390625,0.38890813217163084,-2.8131869506835936,1.6889596336364745
1759163598206281000,6.057281005859375,1.2382511711120605,-3.005920184326172,2.511367903900146
1759163598216338000,6.067337890625,2.3786393493652342,-4.480898044586182,3.17935016708374
1759163598226396000,6.07739599609375,3.886687120056152,-7.136666236114501,3.7597944320678707
1759163598236454000,6.087453857421875,6.714987468719482,-11.11567975769043,4.048595007324218
1759163598246511000,6.097510986328125,8.313565989685058,-16.9425680480957,4.132092790222168
1759163598256568800,6.10756884765625,2.6836007858276365,-23.33628358154297,4.689343226623535
1759163598266625800,6.117625732421875,-2.0522797355651856,-26.27845814666748,5.834819083404541
1759163598276684000,6.12768408203125,-3.513341298675537,-21.997176665496823,6.2389902511596675
1759163598286742000,6.137741943359375,-3.292326557922363,-14.285303480529784,5.36929649810791
1759163598296799000,6.147799072265625,-2.0376152503967284,-8.72731396408081,4.54599040222168
1759163598306857000,6.15785693359375,-1.1647791076660157,-6.00720160293579,3.9242461585998534
1759163598316914000,6.167913818359375,-0.8717886795043944,-4.752789570617676,3.564966271972656
1759163598326972000,6.177971923828125,-1.8791490280151366,-4.22651411819458,3.449296404266357
1759163598337028900,6.18802880859375,-3.186383134460449,-4.436156401062012,3.2899323562622067
1759163598347086800,6.1980869140625,-3.9905356170654294,-4.825363808441161,2.914940521240234
1759163598357145000,6.20814501953125,-4.262576780700683,-5.248987864685058,2.580500476837158
1759163598367202000,6.2182021484375,-3.687519469451904,-5.881805290985107,2.53456173248291
1759163598377260000,6.228260009765625,-3.098246585845947,-6.364685838317871,2.431760698699951
1759163598387317000,6.23831689453125,-2.7555764732360837,-6.90158556060791,2.208501393890381
1759163598397375000,6.248375,-2.5547628089904784,-7.679252187347411,1.9964649093627929
1759163598407432000,6.258431884765625,-2.533813544464111,-8.50450357208252,1.8695722213745116
1759163598417490000,6.268489990234375,-3.005022358703613,-9.779565593719482,1.7212813560485838
1759163598427548000,6.2785478515625,-3.444508000946045,-12.004976036834716,1.0702081420898437
1759163598437604900,6.28860498046875,-3.8168063591003416,-14.40381646270752,-0.28805238723754883
1759163598447663000,6.2986630859375,-3.441814524078369,-15.705962890624999,-1.537975291442871
1759163598457720000,6.308719970703125,-1.7145476638793944,-15.673641168212889,-2.8336873023986815
1759163598467778000,6.318778076171875,0.797418790435791,-14.385111762237548,-3.1482255455017087
1759163598477835800,6.328835693359375,2.910152117919922,-12.745083625030517,-2.982576718139648
1759163598487893000,6.33889306640625,4.094833026885986,-10.80233861541748,-2.587533444213867
1759163598497951000,6.348950927734375,4.207809417724609,-9.369708197021485,-2.31115279006958
1759163598508008000,6.359008056640625,3.236212456512451,-8.616133224487305,-1.8562544746398926
1759163598518066000,6.36906591796875,2.000804399871826,-7.895478524780273,-0.6037877311706542
1759163598528123000,6.379122802734375,0.9868599967956543,-7.696759786987304,0.8637082489013671
1759163598538181000,6.38918115234375,-0.05731120223999023,-7.602488096618652,1.9473837753295897
1759163598548239000,6.399239013671875,-0.7070376777648926,-7.761403231811523,2.375496959686279
1759163598558296000,6.409296142578125,-0.9735422500610351,-8.027309253692627,2.3933038345336914
1759163598568353800,6.419353759765625,-1.4353238952636718,-8.321496782684326,2.309806051635742
1759163598578410800,6.42941064453125,-1.2835913650512694,-8.891167140197753,2.197428211212158
1759163598588469000,6.439468994140625,-0.9693523971557617,-9.198522778320312,2.2723966506958004
1759163598598527000,6.44952685546875,-0.5711667335510253,-9.443180260467528,2.362628125762939
1759163598608584000,6.459583984375,-0.5672761558532714,-9.477746546936034,2.707991715240478
1759163598618642000,6.469641845703125,-1.2976572998046874,-9.541791441345215,2.6223990058898923
1759163598628699100,6.47969921875,-1.5927426544189451,-9.529820433044433,2.1172224555969237
1759163598638756900,6.4897568359375,-1.8037316757202146,-9.394548039245604,1.7518074272155761
1759163598648814000,6.49981396484375,-1.7600374954223632,-9.240720582580567,1.7037737564086912
1759163598658871800,6.509871826171875,-1.073799444580078,-9.160514826965331,1.434575707244873
1759163598668930000,6.519929931640625,-0.7261912910461426,-9.115623545837401,0.9069535163879394
1759163598678987000,6.529987060546875,-0.5553051475524902,-9.445873737335205,0.07885901718139648
1759163598689045000,6.540044921875,-0.4688146125793457,-9.612270752716064,-0.33533787002563475
1759163598699102000,6.55010205078125,-0.3485059791564941,-9.747094233703613,-0.4400841926574707
1759163598709160000,6.560159912109375,-0.5987000526428222,-9.884910466766357,-0.5174468338012695
1759163598719217200,6.570217041015625,-1.1739070014953612,-10.066869792938231,-0.5161000953674316
1759163598729275000,6.58027490234375,-1.3476362594604492,-10.344746823120117,-0.49889177093505854
1759163598739332900,6.590332763671875,-1.303044253540039,-10.506804347991944,-0.5442319648742675
1759163598749389800,6.600389892578125,-1.0330980163574217,-10.62920790786743,-0.6325181510925293
1759163598759448000,6.610447998046875,-0.6835445739746093,-10.992677647399901,-0.7463923675537109
1759163598769505000,6.620505126953125,-0.2841618095397949,-11.457751319885253,-0.8363245674133301
1759163598779563000,6.63056298828125,-0.5184942970275879,-11.8108960647583,-0.8810662109374999
1759163598789620000,6.640619873046875,-0.7772177139282226,-11.83004967803955,-0.7187094108581542
1759163598799678000,6.650677978515625,-0.5141548065185546,-11.678466785430908,-0.5612906517028808
1759163598809736000,6.66073583984375,-0.34267011260986324,-11.58778639755249,-0.6419453201293945
1759163598819793000,6.67079296875,-0.3794809631347656,-11.513865421295165,-0.5855319435119628
1759163598829851000,6.680850830078125,-0.0987608184814453,-11.588983498382568,-0.2967313682556152
1759163598839907800,6.690907958984375,0.7576151878356933,-11.863568501281737,0.10878653793334961
1759163598849966000,6.700966064453125,1.6098013412475585,-12.216862883758544,0.5591957252502441
1759163598860023000,6.71102294921875,2.1630115623474118,-12.777405347442626,0.8369231178283691
1759163598870081000,6.7210810546875,2.441337505340576,-13.625850560760497,0.3317465675354004
1759163598880138800,6.731138671875,2.1109376762390135,-14.087632205963134,-0.7020996368408202
1759163598890196000,6.741196044921875,1.6894085464477537,-13.877989923095702,-1.6877625328063963
1759163598900254000,6.75125390625,1.3769652297973631,-13.47726042022705,-2.4817396583557128
1759163598910311200,6.761311279296875,1.1335048484802246,-13.027449783325194,-3.0823849998474118
1759163598920369200,6.771369140625,0.9220669143676757,-12.313977688598632,-3.005171996307373
1759163598930426000,6.781426025390625,0.8360252922058105,-11.381286504364013,-1.9170073417663573
1759163598940484000,6.791484130859375,0.4761468551635742,-10.649857897186278,-0.750133307647705
1759163598950542300,6.801542236328125,-0.32441432495117184,-10.643273842620848,-0.04279635467529297
1759163598960599300,6.811599365234375,-1.2846388282775878,-11.093982305145262,1.0549451065063475
1759163598970657000,6.821656982421875,-1.938255881500244,-11.761366017913817,2.727893516540527
1759163598980714000,6.8317138671875,-2.514061380767822,-12.50072541809082,4.707898289489746
1759163598990772000,6.84177197265625,-3.022380320739746,-12.958915760803222,6.159532683563232
1759163599000829200,6.8518291015625,-2.95579158706665,-12.974926984405517,6.777535987091064
1759163599010887200,6.86188720703125,-2.380734275817871,-12.960711412048338,6.8320040748596185
1759163599020945200,6.871945068359375,-1.7871219017028808,-12.722488346862793,6.793247935485839
1759163599031002000,6.882002197265625,-1.2045827102661133,-11.726350818634032,7.234678866577148
1759163599041060000,6.89206005859375,0.004489128112792969,-10.301052642822265,8.45302823638916
1759163599051117000,6.902116943359375,1.3435960441589354,-8.499715168762206,9.636212769317627
1759163599061175000,6.912175048828125,2.060809078979492,-7.406762110900878,8.828020071411132
1759163599071232000,6.92223193359375,1.6141408317565917,-8.45183113555908,6.328922451019286
1759163599081290000,6.9322900390625,-1.0037690460205078,-9.488520454406737,2.5406968742370606
1759163599091348200,6.94234814453125,-2.5644892532348633,-9.82505542526245,0.14454992523193358
1759163599101405200,6.9524052734375,-0.6003460662841796,-10.068964719390868,-1.2943652725219725
1759163599111463200,6.962463134765625,0.5566518859863281,-10.169371551513672,-2.65576819152832
1759163599121520000,6.97252001953125,0.8062474090576172,-10.26035121459961,-3.623923487854004
1759163599131578000,6.982578125,0.006584054565429687,-9.967809699249267,-2.982726355743408
1759163599141635000,6.992635009765625,-1.0085574493408203,-8.875155916595459,-0.8134300140380859
1759163599151693000,7.002693115234375,-1.509843421936035,-8.177695045471191,0.14305354919433594
1759163599161750000,7.01275,-1.313967798614502,-8.043470114898682,0.39489363632202146
1759163599171808000,7.02280810546875,-1.1501146224975585,-8.113051600646973,0.49530046844482417
1759163599181866200,7.0328662109375,-0.788440534210205,-8.351424303436279,1.2177508193969726
1759163599191923200,7.042923095703125,-0.41973347854614257,-8.06397046661377,2.2260089935302734
1759163599201981200,7.052981201171875,0.08499415893554688,-7.483526201629639,3.1675287963867187
1759163599212038100,7.0630380859375,0.5767033248901366,-7.094767707061767,3.60716407623291
1759163599222096100,7.07309619140625,0.6995557975769042,-6.919841348266601,3.3361703758239742
1759163599232153000,7.083153076171875,0.9856628959655761,-6.555024870300293,2.966116581726074
1759163599242211000,7.093211181640625,1.3003507766723632,-6.08426496887207,2.662801158905029
1759163599252269000,7.10326904296875,1.4350246200561523,-5.496039548492432,2.372953120422363
1759163599262326300,7.113326171875,1.4754267730712889,-5.044283622741699,2.0828058067321775
1759163599272384300,7.12338427734375,0.9282020561218262,-4.995651401519775,1.1801917808532714
1759163599282441200,7.133441162109375,0.4173392768859863,-5.253476992797851,0.4176385520935058
1759163599292499000,7.1434990234375,0.43200376205444335,-5.478232673645019,0.1562216583251953
1759163599302556200,7.15355615234375,0.7448959915161132,-5.582230808258056,0.12823942642211913
1759163599312614100,7.1636142578125,1.48754741897583,-5.827935753631592,-0.10205284576416015
1759163599322671000,7.173671142578125,2.2290017456054687,-5.9762266189575195,0.006434416961669922
1759163599332729000,7.18372900390625,3.2619501243591307,-5.88659369430542,0.2813186950683594
1759163599342787000,7.193787109375,4.340537972259521,-6.455964776611328,-0.07422025146484375
1759163599352844300,7.20384423828125,5.383512070465088,-7.325808167266845,-0.16744447860717773
1759163599362902300,7.21390234375,6.164021811676025,-8.20971749267578,-0.06539163284301758
1759163599372959200,7.223959228515625,6.594529197692871,-9.11083514251709,-0.2750339157104492
1759163599383017000,7.234016845703125,7.358279527282715,-10.09979006576538,-0.4804863456726074
1759163599393074000,7.244073974609375,8.216151909637452,-11.237335129547118,-0.6973112335205077
1759163599403132200,7.254132080078125,8.63184517288208,-12.490550061035156,-1.140238540649414
1759163599413189000,7.264189208984375,8.175300843811035,-14.028824627685546,-1.93451494140625
1759163599423247000,7.2742470703125,6.2204351882934565,-15.415965214538573,-3.1447838806152344
1759163599433305000,7.28430517578125,3.828029179382324,-15.799636030578613,-4.0249522659301755
1759163599443362300,7.2943623046875,2.724302214050293,-14.755913744354247,-3.675847736358642
1759163599453420300,7.304420166015625,2.999186492156982,-12.157606392669678,-2.4850316856384276
1759163599463477200,7.314477294921875,3.832518307495117,-9.516502686309813,-1.8617910659790038
1759163599473535000,7.324534912109375,4.005200102233887,-7.5065703926086425,-1.1195885513305663
1759163599483592000,7.334592041015625,3.174412126159668,-5.875969424438476,0.08514379653930663
1759163599493650200,7.344650146484375,2.3335984306335447,-5.043984347534179,1.1260229682922362
1759163599503707100,7.35470703125,2.066046395111084,-5.6480713539123535,1.8477251312255858
1759163599513765000,7.36476513671875,2.45779764175415,-7.242160746765136,2.51540811920166
1759163599523823000,7.374822998046875,3.1220389648437497,-9.632621466827391,3.238008107757568
1759163599533880300,7.38488037109375,3.26224939956665,-13.380295252990722,3.6447231147766113
1759163599543938000,7.39493798828125,2.1269488998413086,-18.013524378204345,4.501548033905029
1759163599553995000,7.4049951171875,-0.8186673301696776,-20.687548357391357,5.7429415946960445
1759163599564053000,7.415052978515625,-3.8441900405883787,-19.362657013702393,5.465513477325439
1759163599574110000,7.42510986328125,-4.680215332794189,-14.163498471069335,5.06253941040039
1759163599584168200,7.435168212890625,-3.0529063919067383,-8.323292433929442,5.204844771575927
1759163599594225200,7.44522509765625,-1.258452247619629,-5.159205302429199,5.1882349975585935
1759163599604283100,7.455283203125,-0.8307879760742187,-3.5175311515808105,4.619163190460204
1759163599614341000,7.465341064453125,-0.9485527702331542,-2.7199627235412596,4.408623081970215
1759163599624398300,7.4753984375,-1.6250643768310546,-2.932298483276367,4.787505494689941
1759163599634456000,7.4854560546875,-2.6446950088500976,-3.821145849609375,4.608987833404541
1759163599644513000,7.495512939453125,-3.133411422729492,-5.230881714630127,4.302380383300781
1759163599654571000,7.505571044921875,-3.7563527671813963,-6.522703147888183,4.214243834686279
1759163599664628000,7.5156279296875,-3.7199908294677733,-7.793575316619872,3.877259951019287
1759163599674686200,7.525686279296875,-3.1153052726745605,-8.709207814025879,3.5333927375793457
1759163599684743200,7.5357431640625,-2.9405285514831543,-9.48088893661499,3.5187282524108885
1759163599694801200,7.54580126953125,-2.9536966606140136,-10.461015241241455,3.7585973312377927
1759163599704858000,7.555858154296875,-3.343502618408203,-11.337592324066161,4.10500838394165
1759163599714916400,7.565916259765625,-4.66734649887085,-12.41124213104248,4.015225821685791
1759163599724974000,7.57597412109375,-4.899284784698486,-13.947122496032714,2.7964275390625
1759163599735031000,7.586031005859375,-4.088099334716796,-15.065364308929443,0.8617629600524902
1759163599745089000,7.596089111328125,-2.550423318481445,-14.885649546813964,-0.9195230751037597
1759163599755146000,7.60614599609375,-0.16310498809814453,-13.882778326416014,-1.8276736923217773
1759163599765204200,7.616204345703125,2.4072201316833493,-12.763788325500487,-2.43265852432251
1759163599775261200,7.62626123046875,4.377348822784423,-11.24242280807495,-2.5116671791076657
1759163599785319200,7.636319091796875,5.344157380676269,-9.973645565795898,-2.3491607414245603
1759163599795376000,7.646376220703125,4.55212554397583,-9.19343509979248,-2.6460417472839355
1759163599805434000,7.65643408203125,2.722356925201416,-8.537723120117187,-2.8208184684753417
1759163599815491000,7.666490966796875,1.1956044540405273,-7.796268793487548,-1.8632874420166015
1759163599825549000,7.676549072265625,-0.25258827514648435,-7.088782202911377,-0.9012672874450683
1759163599835607000,7.68660693359375,-1.3201029403686522,-6.849212399291992,-0.16864157943725586
1759163599845664000,7.6966640625,-1.6741455108642578,-7.556848627471924,0.6459855354309082
1759163599855722200,7.70672216796875,-1.9961656341552734,-8.514828566741944,0.4860229370117187
1759163599865779200,7.716779296875,-2.0669442207336424,-9.210643424224854,0.4483142608642578
1759163599875837200,7.726837158203125,-1.559074193572998,-9.688286655426024,0.5039794494628906
1759163599885894100,7.73689404296875,-1.0688614036560058,-9.933692325592041,1.120336739349365
1759163599895952000,7.746951904296875,-0.6914753669738769,-9.999981784057617,1.7546505416870115
1759163599906008800,7.7570087890625,-0.21532851181030271,-9.94042601776123,2.1459528755187987
1759163599916066800,7.76706689453125,0.19018939437866209,-9.80635072479248,2.3780407989501953
1759163599926123800,7.777123779296875,0.2549824768066406,-9.585036708831787,2.4670751731872556
1759163599936182000,7.78718212890625,-0.11462240447998046,-9.590274024963378,2.149693815612793
1759163599946239000,7.797239013671875,-0.4568436042785644,-9.610924014282226,1.498470964050293
1759163599956297000,7.807296875,-0.7293336807250976,-9.380631742095947,1.1538555625915528
1759163599966355000,7.81735498046875,-1.010053825378418,-9.12325506362915,1.1348515869140625
1759163599976412200,7.827412109375,-1.0256161361694336,-9.156025698852538,0.964713631439209
1759163599986470000,7.837469970703125,-0.697161595916748,-9.170091633605956,0.7212532501220703
1759163599996526800,7.84752685546875,-0.37409400939941406,-8.97047507019043,0.5448305152893066
1759163600006584800,7.857584716796875,-0.11851298217773437,-8.953715658569335,0.37184944534301756
1759163600016641800,7.867641845703125,-0.18136077575683593,-9.198223503112793,0.2346317626953125
1759163600026700000,7.877699951171875,-0.5204395858764648,-9.846752877807617,-0.026785131072998045
1759163600036757000,7.887757080078125,-0.8713397666931152,-11.074828691864013,-0.4586392555236816
1759163600046815000,7.89781494140625,-0.8958803337097168,-12.343456296539307,-1.0871171913146973
1759163600056872000,7.907871826171875,-0.6284779357910156,-13.188609482574462,-1.701379554748535
1759163600066930200,7.91793017578125,-0.6382043800354004,-13.6756798828125,-2.5341128196716305
1759163600076987100,7.927987060546875,-0.2614168937683105,-13.643807073211669,-3.277961347961426
1759163600087044900,7.938044921875,0.5526116706848144,-13.064410271453857,-3.8411972885131833
1759163600097101800,7.948101806640625,1.5713444770812988,-12.305448345184326,-4.025999729156494
1759163600107159800,7.958159912109375,2.8535891036987304,-11.844414888000488,-3.536235852050781
1759163600117218000,7.968218017578125,3.5773861930847164,-12.300360666656493,-2.666242823791504
1759163600127275000,7.97827490234375,3.7612908081054686,-13.60460202102661,-1.3313257606506348
1759163600137333000,7.9883330078125,4.1094975120544435,-14.818462262725829,0.23612813873291014
1759163600147390000,7.998389892578125,4.041861315155029,-15.187318955993652,1.2689268798828124
1759163600157448000,8.008447998046876,3.4376246711730953,-14.750826065826415,1.4076409385681152
1759163600167505200,8.018505126953125,3.190124074554443,-13.718476237487792,0.7670423568725585
1759163600177563000,8.02856298828125,2.96237564163208,-12.504615995788573,-0.13691840744018555
1759163600187619800,8.038619873046875,2.2418705795288085,-11.831994966888427,-1.0066121604919434
1759163600197677800,8.048677734375,0.8167220413208007,-11.194688412475585,-1.2440870376586914
1759163600207735000,8.058735107421874,-1.0743979949951172,-10.838102002716063,-0.8078934226989746
1759163600217793000,8.06879296875,-2.938882537841797,-11.236886216735838,0.0037409400939941405
1759163600227850000,8.07885009765625,-3.5022681159973144,-12.00901625213623,1.257105509185791
1759163600237908000,8.088907958984375,-4.221875352478027,-12.799701350402831,2.8425159210205075
1759163600247965000,8.09896484375,-4.829852936553955,-13.433416602325439,4.255094900512695
1759163600258023000,8.10902294921875,-4.630386010742187,-13.68809980392456,5.165789356994629
1759163600268081000,8.119080810546874,-4.044405154418945,-13.497311859130859,5.456834496307373
1759163600278137900,8.129137939453125,-3.2486323776245114,-13.012635660552977,5.492448246002197
1759163600288195800,8.13919580078125,-3.2236428977966307,-11.720963864898682,6.004358488464355
1759163600298253000,8.149253173828125,-2.4895208137512204,-10.19570776977539,7.336432437133789
1759163600308311000,8.15931103515625,0.743100340270996,-9.43629693069458,7.9272016967773435
1759163600318368000,8.169367919921875,4.866514149475098,-9.244012609863281,7.117811898040771
1759163600328426000,8.179426025390624,4.623053768157959,-9.515006310272216,5.2247465728759765
1759163600338483000,8.18948291015625,-0.23388357467651366,-9.338583575439452,2.9952959144592284
1759163600348541000,8.199541015625,-3.2454899879455565,-9.03407105178833,0.7830535804748535
1759163600358598000,8.209597900390625,-2.687341725921631,-9.565733457946777,-1.673247685241699
1759163600368656000,8.21965576171875,-1.0763432838439941,-9.587430910491943,-3.228431301116943
1759163600378712800,8.229712890625,0.05731120223999023,-8.990975421905517,-3.481468489074707
1759163600388771000,8.23977099609375,-0.6871358764648438,-8.039130624389648,-2.469619012451172
1759163600398828000,8.249828125,-2.0036475143432617,-6.922834100341796,-1.510591609954834
1759163600408886000,8.259885986328126,-2.335842994689941,-6.288071385192871,-1.1327566604614256
1759163600418943000,8.26994287109375,-1.6702549331665038,-6.123021108245849,-1.0003273811340332
1759163600429001000,8.2800009765625,-1.1531073745727538,-6.1830257873535155,-0.8432078971862792
1759163600439058200,8.29005810546875,-1.1653776580810546,-6.374861195373534,-0.17657237243652343
1759163600449116000,8.300115966796875,-0.8628104232788085,-6.752546507263183,1.2877812179565429
1759163600459174000,8.310173828125,-0.8197147933959961,-7.291840431213378,2.283170558166504
1759163600469230800,8.32023095703125,-0.5677250686645507,-7.8918872222900385,2.9480104316711424
1759163600479289000,8.3302890625,-0.3711012573242187,-8.15285520324707,3.3946786788940426
1759163600489346000,8.340345947265625,-0.2786252182006836,-8.268076158142089,3.519177165222168
1759163600499404000,8.350404052734374,0.05401917495727539,-8.11514652709961,3.580678220367431
1759163600509461000,8.3604609375,0.47285482788085936,-7.74404526977539,3.501819203186035
1759163600519519000,8.37051904296875,1.0446201118469238,-7.6288243148803705,2.9480104316711424
1759163600529576000,8.380575927734375,0.9760860893249511,-7.360075178527832,2.1076456489562987
1759163600539634000,8.390634033203124,1.2701239807128906,-7.489661343383789,1.4936825607299804
1759163600549691000,8.40069091796875,1.8460791175842284,-7.31024585647583,1.157446865081787
1759163600559748900,8.410748779296876,2.3473650901794434,-7.652467056274413,0.8336310905456542
1759163600569805800,8.420805908203125,2.7118822929382325,-7.8356234832763665,0.7275380294799805
1759163600579864000,8.430864013671876,3.228580938720703,-7.697807250213622,0.7377133865356444
1759163600589921000,8.440921142578125,3.465606903076172,-7.370998723602295,0.9240122032165526
1759163600599979000,8.45097900390625,3.406799324798584,-6.861482682800292,0.953191535949707
1759163600610036000,8.461035888671875,3.528005783843994,-6.590788257598876,0.6813000099182128
1759163600620094000,8.471093994140626,4.131344602203369,-6.587047317504882,0.6268319221496582
1759163600630151000,8.48115087890625,4.732588494110107,-6.929717430114746,0.4472667976379394
1759163600640209000,8.491208984375,5.218761068725586,-7.604732660675048,0.16310498809814453
1759163600650265900,8.501265869140624,5.749525649261474,-8.487295247650145,-0.19856910018920898
1759163600660323800,8.51132373046875,6.455665501403808,-9.7170170753479,-0.7839514060974121
1759163600670381000,8.521381103515624,6.955305460357666,-11.456254943847656,-1.9096750991821287
1759163600680439000,8.53143896484375,6.80551821899414,-13.428179286193847,-3.2646436012268065
1759163600690496000,8.54149609375,5.071667304229736,-15.343989527130127,-4.631882386779785
1759163600700554000,8.551553955078125,2.6234464691162107,-16.03247214202881,-5.09471149520874
1759163600710612000,8.561612060546874,2.306514024353027,-14.634557647705078,-3.624372400665283
1759163600720669000,8.5716689453125,3.160944741821289,-11.775880865478515,-2.516156307220459
1759163600730727000,8.581726806640624,3.640383624267578,-9.394996952056884,-2.246658982849121
1759163600740783900,8.591783935546875,3.491494208526611,-7.394940740203857,-1.491288359069824
1759163600750841900,8.601841796875,2.499546533203125,-5.615749631500244,-0.4164414512634277
1759163600760899000,8.611899169921875,1.804180588531494,-4.715829082489013,0.9002198242187499
1759163600770957000,8.62195703125,1.875707363128662,-4.912752169036865,2.464980246734619
1759163600781014000,8.632013916015625,2.441337505340576,-6.035034197235107,4.409520907592773
1759163600791072000,8.642072021484376,3.5627217079162596,-8.340949671173096,5.492747521209717
1759163600801129000,8.65212890625,4.7858594810485835,-12.304400881958006,6.066607731628418
1759163600811187000,8.66218701171875,4.384531427764892,-18.446874878692626,6.757035635375976
1759163600821244000,8.672243896484375,1.2346598686218262,-23.610569309234616,7.105242339324951
1759163600831302000,8.682302001953126,-2.7259482276916502,-23.121254344940184,6.684012484741211
1759163600841358800,8.69235888671875,-4.542249462127685,-16.166697072601316,6.236147136688232
1759163600851417000,8.7024169921875,-4.330212977600097,-9.363872330474853,5.882104566192627
1759163600861474000,8.71247412109375,-2.8489503379821777,-5.89961216583252,5.081393748474121
1759163600871532000,8.722531982421875,-1.714248388671875,-4.519205271148682,3.6604350631713864
1759163600881589000,8.732589111328124,-2.169296341705322,-3.774608554840088,2.7843068931579587
1759163600891647000,8.74264697265625,-2.8296470870971677,-3.626916239929199,2.6294319732666014
1759163600901704000,8.752703857421874,-3.1411925781249996,-4.1109938880920405,2.4996961708068848
1759163600911761700,8.76276171875,-3.1144074470520016,-4.9437271530151365,2.191741982269287
1759163600921818600,8.772818603515624,-2.5667338172912597,-6.001964286804199,2.3473650901794434
1759163600931876900,8.782876953125,-1.8538602729797362,-7.066635837554931,2.51540811920166
1759163600941933800,8.792933837890626,-1.4782698875427245,-7.754370264434814,2.428019758605957
1759163600951991800,8.80299169921875,-1.5973814201354979,-8.22932001876831,2.4474726470947266
1759163600962048800,8.813048828125,-1.8764555511474608,-9.04050546875,2.8106431114196777
1759163600972107000,8.82310693359375,-2.3324013298034667,-10.286388157653809,3.3315316101074215
1759163600982164000,8.8331640625,-3.3955765045166015,-11.991957565307617,3.584119885253906
1759163600992222000,8.843221923828125,-4.768202243804931,-13.976451466369628,3.22394217300415
1759163601002279000,8.85327880859375,-5.915473751831055,-15.023166504669188,1.2888286811828613
1759163601012336600,8.863336669921875,-5.599588770294189,-14.72269419631958,-1.0411784469604493
1759163601022395000,8.873394775390626,-3.8711248092651367,-13.538761475372313,-1.6430208892822264
1759163601032451800,8.883451904296875,-2.035370686340332,-12.09176584701538,-1.3187562019348145
1759163601042509800,8.893509765625,-0.14245499877929688,-10.755801320648192,-1.0402806213378906
1759163601052566800,8.90356689453125,2.6185084281921385,-9.631574003601074,-0.7513304084777832
1759163601062625000,8.913625,3.771166889953613,-8.566453540039062,-0.9183259742736816
1759163601072682000,8.923681884765625,3.262847949981689,-8.002020498657226,-1.4176666580200195
1759163601082739700,8.93373974609375,1.785625525665283,-7.583633758544922,-1.427542739868164
1759163601092797000,8.943796875,0.9290998817443847,-7.222109307861328,-0.625036270904541
1759163601102854700,8.953854736328125,0.9645639938354491,-7.570764924621582,0.06419453201293945
1759163601112912000,8.963911865234374,0.4740519287109375,-8.014440419769286,0.044292730712890624
1759163601122969900,8.973969970703125,-0.1906383071899414,-8.483853582763672,-0.3462614151000976
1759163601133026800,8.98402685546875,-0.828693049621582,-9.137620273590088,-0.32351649932861326
1759163601143084800,8.994084716796875,-1.2542623947143554,-9.652223992919922,0.05716156463623046
1759163601153141800,9.004141845703124,-1.1869254730224608,-10.120140779876708,0.6854898628234863
1759163601163200000,9.014199951171875,-0.3987842140197754,-10.682628532409668,1.5499462997436522
1759163601173257000,9.024257080078126,0.4376899909973144,-10.734253505706786,2.4467244590759276
1759163601183314700,9.034314697265625,1.0295067138671874,-10.302698656463622,2.8172271659851074
1759163601193371600,9.04437158203125,1.2955623733520507,-9.8311905670166,2.676418180847168
1759163601203430000,9.054429931640625,0.9302969825744628,-9.554361000061034,2.0355203239440915
1759163601213486800,9.06448681640625,-0.015861585998535155,-9.336189373779296,1.1186907257080076
1759163601223544800,9.074544921875,-1.1566986770629881,-8.815450512695312,0.38830958175659175
1759163601233601800,9.084601806640626,-2.1766285842895505,-8.467692721557617,-0.08364742050170898
1759163601243659800,9.09465966796875,-2.7774235633850095,-8.56061767349243,-0.5143044441223145
1759163601253717000,9.104717041015626,-2.4410382301330564,-8.915109156799316,-0.7867945205688476
1759163601263775000,9.11477490234375,-1.3519757499694824,-9.45470235595703,-0.7962216896057128
1759163601273832000,9.12483203125,-0.7998129920959473,-10.028412928771973,-0.7670423568725585
1759163601283889700,9.1348896484375,-0.6952163070678711,-10.52865143814087,-0.6929717430114746
1759163601293946600,9.144946533203125,-0.7960720520019531,-11.040112767791747,-0.639700756072998
1759163601304004900,9.1550048828125,-1.037437506866455,-11.55561431274414,-0.8506897773742675
1759163601314061800,9.165061767578125,-1.4362217208862305,-12.180650583648681,-1.3102268585205077
1759163601324119800,9.175119873046874,-1.8671780197143553,-12.821847715759276,-1.6536451591491699
1759163601334176800,9.1851767578125,-1.9527707290649412,-13.23454822692871,-1.7785925582885742
1759163601344235000,9.195235107421874,-1.3814543579101561,-13.117381983184814,-1.71739077835083
1759163601354292000,9.2052919921875,-0.12988544006347655,-12.641534403228759,-1.5459060844421386
1759163601364350000,9.215349853515624,1.4959271247863768,-12.065130353546142,-1.0223241088867188
1759163601374407000,9.225406982421875,3.100341512298584,-11.6193599319458,-0.2867056488037109
1759163601384464600,9.235464599609376,4.1472061882019045,-11.661707373809813,0.31588498153686523
1759163601394521600,9.245521484375,3.957465706634521,-12.306046895599364,0.5922656356811523
1759163601404579800,9.255579833984376,3.4671032791137693,-13.0497457862854,0.7749731498718261
1759163601414636800,9.26563671875,3.2242414482116697,-13.495366570281982,0.3167828071594238
1759163601424694800,9.27569482421875,2.8514941772460936,-13.499257147979735,-0.5017348854064941
1759163601434751700,9.285751708984375,2.1447557746887207,-13.24098264389038,-1.682824491882324
1759163601444810000,9.29581005859375,1.3588590797424316,-12.912827378845215,-2.8229133949279785
1759163601454867000,9.305866943359375,0.725892015838623,-12.398822209930419,-3.643526013946533
1759163601464925000,9.315925048828126,0.47973815765380856,-11.56264728012085,-4.070891010284424
1759163601474982000,9.32598193359375,0.7806593788146973,-10.87910270614624,-4.036474361419677
1759163601485039600,9.33603955078125,0.8544307174682617,-10.557232220458983,-3.2972645988464353
1759163601495096800,9.346096923828124,0.10205284576416015,-10.812813247680664,-1.7212813560485838
1759163601505154800,9.35615478515625,-1.1379939765930176,-11.678915698242188,0.6434416961669921
1759163601515211800,9.366211669921874,-2.8407202697753906,-13.054234914398192,3.4461540145874023
1759163601525269800,9.376269775390625,-4.491372676849365,-13.665953438568115,5.849483568572998
1759163601535326700,9.38632666015625,-5.144690454864501,-13.926173231506347,7.716960863494872
1759163601545385000,9.396385009765625,-4.359990860748291,-14.376582418823242,8.318204755401611
1759163601555442000,9.40644189453125,-3.4554315460205074,-14.346505260467529,8.167669326019286
1759163601565500000,9.4165,-1.9713257919311522,-13.411569512176513,8.39541775894165
1759163601575556900,9.426556884765626,-0.3672106796264648,-11.496956372070311,10.098742602539062
1759163601585614800,9.43661474609375,1.2559084083557128,-10.168623363494872,10.42495257873535
1759163601595671800,9.446671875,1.6279074913024902,-9.69831237487793,7.906701345062255
1759163601605729800,9.456729736328125,1.3980641319274902,-9.055319591522217,5.533897862243652
1759163601615786800,9.466786865234376,-0.730381143951416,-8.66296979446411,2.1461025131225586
1759163601625844700,9.4768447265625,-2.286163310241699,-9.036914166259765,-2.099116305541992
1759163601635902000,9.48690185546875,-0.32127193527221676,-10.16428387298584,-5.087528890228271
1759163601645960000,9.4969599609375,1.3880384124755858,-10.322600457763672,-4.875193130493164
1759163601656017000,9.507016845703125,0.3269581642150879,-9.44856721420288,-3.1681273468017577
1759163601666075000,9.517074951171875,-1.9879355659484863,-8.154650854492187,-1.6392799491882324
1759163601676131800,9.5271318359375,-3.540874617767334,-7.375637489318847,-1.6142904693603515
1759163601686189800,9.53718994140625,-3.2255881866455076,-7.038653605651855,-1.7579425689697266
1759163601696246800,9.547246826171875,-2.265214045715332,-6.994061599731445,-1.323544605255127
1759163601706304800,9.5573046875,-1.607556777191162,-7.088931840515136,-0.7402572257995605
1759163601716361700,9.56736181640625,-0.7936778503417968,-7.514950098419189,0.282815071105957
1759163601726420000,9.577419921875,-0.47973815765380856,-7.968800950622558,1.261594637298584
1759163601736477000,9.587476806640625,-0.5128080680847168,-8.40215145111084,2.0132243209838867
1759163601746535000,9.597534912109374,-0.619948592376709,-8.361150747680664,2.519897247314453
1759163601756591900,9.607591796875,-0.37454292221069335,-7.54008921585083,3.7166988021850584
1759163601766649600,9.617649658203124,-0.49410336761474605,-6.473023463439941,5.0100166114807125
1759163601776706800,9.627706787109375,-0.9509469718933105,-5.747580360412598,5.373785626220703
1759163601786764800,9.637764892578126,-1.0194809944152832,-5.215020128631592,4.800823241424561
1759163601796821800,9.64782177734375,-0.5603928260803223,-4.750694644165039,4.387823455047607
1759163601806879700,9.657879638671876,-0.21113865890502928,-4.637119702911376,3.6329017440795894
1759163601816936700,9.667936767578125,0.047584757995605464,-4.508730638885498,2.7443536529541013
1759163601826995000,9.677994873046876,0.6965630455017089,-4.577264661407471,2.0211551139831543
1759163601837052000,9.688052001953125,1.8525135345458983,-4.8141409881591795,1.4727332962036133
1759163601847110000,9.69810986328125,2.131886940765381,-5.258115758514404,0.8159738533020019
1759163601857166800,9.708166748046875,2.173785469818115,-5.56083263092041,0.6148609138488769
1759163601867224800,9.718224853515625,2.7162217834472653,-5.998672259521484,0.4504091873168945
1759163601877281800,9.72828173828125,3.544615557861328,-6.767809542846679,0.47494975433349607
1759163601887339800,9.73833984375,4.969015908050537,-7.895328887176513,0.0805050308227539
1759163601897397200,9.748397216796874,7.183203530883788,-9.266158975219726,-0.4756979423522949
1759163601907455500,9.75845556640625,9.345317267608642,-10.941052674102783,-1.0928034202575683
1759163601917512400,9.768512451171874,10.696993742370605,-13.173496084594726,-2.535160282897949
1759163601927570400,9.7785703125,10.89855559463501,-15.561562602996826,-4.295497053527832
1759163601937627400,9.78862744140625,8.980201514434814,-17.857601995086668,-6.039972238159179
1759163601947685000,9.79868505859375,5.494393534851074,-18.6295823928833,-6.934954746246338
1759163601957742300,9.808742431640624,3.202992908477783,-16.640749001312255,-6.134094290924072
1759163601967800300,9.81880029296875,3.1172505615234374,-12.821099527740477,-4.208707243347168
1759163601977857300,9.828857177734376,3.0355484298706052,-9.9468604347229,-2.8172271659851074
1759163601987915300,9.838915283203125,2.501791097259521,-7.799860095977783,-1.7458219230651855
1759163601997972200,9.84897216796875,1.7744027053833007,-5.850082118988037,-0.48407764816284177
1759163602008030500,9.859030517578125,1.2147580673217773,-4.537161783599854,0.7805097412109374
1759163602018087400,9.86908740234375,0.9229647399902343,-3.9667432380676266,1.9409493583679198
1759163602028145400,9.8791455078125,0.5425859512329101,-4.182371025085449,3.4428619873046875
1759163602038202400,9.889202392578126,0.48991351470947264,-5.327397969055175,4.5213001976013185
1759163602048260000,9.899260009765625,1.4935329231262207,-7.837119859313964,5.000140529632568
1759163602058317300,9.9093173828125,3.821744400024414,-12.39897184753418,6.234800398254394
1759163602068375300,9.919375244140625,2.5329157188415525,-19.9190096244812,7.594856578826904
1759163602078432300,9.929432373046875,-1.9303250885009764,-26.522965991210935,8.531887253570556
1759163602088490200,9.939490234375,-3.106027741241455,-25.10335404434204,8.353519229888915
1759163602098547200,9.949547119140625,-2.5802012016296385,-16.35808356781006,6.947225029754638
1759163602108605400,9.95960546875,-1.5722423027038572,-8.760982424926757,5.811924530029296
1759163602118662400,9.969662353515625,-0.743100340270996,-4.951358670806885,5.175665438842773
1759163602128720400,9.979720458984374,-0.5035305366516113,-3.4070986000061034,4.51351904220581
1759163602138777300,9.98977734375,-1.0084078117370605,-2.751087345123291,4.281131843566894
1759163602148835300,9.99983544921875,-1.6853683311462402,-2.9794343284606932,4.043806604003906
1759163602158892300,10.009892333984375,-2.071582986450195,-3.576488367462158,3.583521334838867
1759163602168950300,10.0199501953125,-2.306663661956787,-4.30926371307373,3.1331121475219725
1759163602179007200,10.03000732421875,-1.8900725730895995,-5.391143588256836,2.7829601547241207
1759163602189065200,10.040065185546876,-1.512536898803711,-6.510133589172363,2.5938182235717773
1759163602199122400,10.050122314453125,-1.6117466300964354,-7.241113283538818,2.381931376647949
1759163602209180400,10.060180419921876,-1.9696797782897948,-7.959224143981933,2.523787825012207
1759163602219237400,10.0702373046875,-2.6355671150207516,-8.966135579681396,2.7467478546142576
1759163602229295400,10.08029541015625,-4.0069957534790035,-10.437372499847411,2.966266219329834
1759163602239352300,10.090352294921875,-6.1179334297180175,-12.33432840270996,2.9234698646545407
1759163602249410300,10.100410400390626,-7.850287968444824,-14.365359598541259,1.8659809188842773
1759163602259467300,10.11046728515625,-8.509441613006592,-15.613337213897704,-0.9389759635925292
1759163602269525200,10.120525146484376,-7.098209371948242,-15.04770707168579,-3.2161610176086426
1759163602279582200,10.130582275390625,-3.605966975402832,-14.393940380859375,-3.8187516479492185
1759163602289640400,10.140640380859375,1.1387421646118163,-13.192200785064696,-3.471891682434082
1759163602299697400,10.150697509765624,5.159504577636718,-11.793538102722167,-3.182043643951416
1759163602309755400,10.16075537109375,6.71633420715332,-10.47597900161743,-2.850446714019775
1759163602319812400,10.170812255859374,5.901108541870117,-9.337685749816893,-2.6418518943786617
1759163602329869300,10.180869384765625,4.490175576019287,-8.290222523498535,-2.16420866317749
1759163602339927600,10.190927490234374,3.6125510299682615,-7.466766790008545,-0.902763663482666
1759163602349984500,10.200984619140625,2.3406313980102538,-7.456441795349121,0.5231330627441406
1759163602360042200,10.211042236328124,1.0043675964355467,-7.726537670135498,0.7077858657836914
1759163602370099200,10.22109912109375,-0.2528875503540039,-8.020425923919678,0.21039047088623045
1759163602380157200,10.2311572265625,-0.9715969612121581,-8.768314667510985,-0.07586626510620116
1759163602390214400,10.24121435546875,-1.099387474822998,-9.405172309112547,0.32082302246093747
1759163602400272400,10.2512724609375,-0.6771101570129394,-9.687837742614745,1.3148656242370604
1759163602410329300,10.261329345703125,-0.15367781906127928,-9.83208839263916,2.147000338745117
1759163602420387300,10.27138720703125,0.26740239791870113,-9.85109236831665,2.7920880485534667
1759163602430444300,10.2814443359375,0.39279870986938475,-9.74859060974121,3.030760026550293
1759163602440502500,10.29150244140625,0.44502223358154297,-9.485677339935302,2.9972412033081053
1759163602450559500,10.3015595703125,-0.23927052841186522,-9.230545225524901,2.6815058593749996
1759163602460617200,10.3116171875,-1.2307692909240722,-9.117718472290038,2.129941651916504
1759163602470674200,10.321674072265624,-2.3331495178222657,-9.022249681091308,1.7395371437072753
1759163602480732400,10.331732421875,-3.291129457092285,-8.91780263366699,1.2605471740722656
1759163602490789400,10.341789306640624,-3.7837364486694334,-8.88607946166992,0.7959224143981933
1759163602500847400,10.351847412109375,-3.538779691314697,-8.948179067230225,0.7173626724243164
1759163602510904300,10.361904296875,-2.799121015930176,-9.322871627044677,0.0579097526550293
1759163602520962300,10.37196240234375,-1.9788076721191405,-9.799018482208252,-0.7134720947265625
1759163602531019300,10.382019287109374,-0.5042787246704101,-10.23401499633789,-0.8476970252990722
1759163602541077200,10.3920771484375,0.7407061386108398,-10.969334181213378,-0.9478045822143554
1759163602551134500,10.402134521484374,1.515679288482666,-12.401814962005615,-1.4432546882629393
1759163602561192200,10.412192138671875,1.9322703773498533,-13.78311968231201,-2.2833201957702633
1759163602571249200,10.422249267578126,1.7069161460876463,-14.45424433517456,-3.273771495056152
1759163602581306000,10.43230615234375,1.1532570121765136,-14.213178155517577,-4.172943856048584
1759163602591364400,10.4423642578125,0.7263409286499023,-13.593977751159667,-4.5784617622375485
1759163602601421300,10.45242138671875,1.269824705505371,-13.193248248291015,-4.292055388641357
1759163602611479300,10.462479248046876,2.541594699859619,-13.03612876434326,-3.52396556854248
1759163602621536300,10.472536376953125,3.9755718566894527,-13.326575353240965,-2.5281273155212403
1759163602631594500,10.482594482421876,4.685003736114502,-14.16035608139038,-1.9803040481567382
1759163602641651500,10.4926513671875,4.843918871307372,-14.496741414642333,-1.5406687683105469
1759163602651709400,10.50270947265625,4.647145422363281,-14.074015184020995,-1.2928688964843749
1759163602661766400,10.512766357421874,4.228160131835938,-13.338995274353026,-1.5471031852722168
1759163602671824100,10.52282421875,3.8462849670410155,-12.428899368286132,-1.8517653465270996
1759163602681881300,10.53288134765625,2.9851205574035644,-11.526883892822266,-1.9360113174438476
1759163602691939300,10.542939208984375,1.9541174674987791,-10.97412258453369,-1.753752716064453
1759163602701996300,10.552996337890624,0.2796726814270019,-11.207706884002684,-1.3314753982543945
1759163602712054300,10.56305419921875,-2.015468885040283,-12.158504218292236,0.1409586227416992
1759163602722111200,10.573111328125,-4.113537727355957,-13.850905516815185,2.325667637634277
1759163602732169500,10.58316943359375,-5.579686968994141,-15.583708968353271,4.676175117492676
1759163602742226400,10.593226318359376,-6.385036552429199,-15.700127024078368,6.125415309906005
1759163602752284400,10.603284423828125,-6.788758807373046,-15.426140571594237,7.217919454956054
1759163602762341400,10.61334130859375,-6.51851329498291,-14.99084478225708,7.633911993408202
1759163602772398300,10.6233984375,-5.650465555572509,-14.194922367858887,6.399102487182617
1759163602782456300,10.633456298828126,-4.110844250488281,-12.485462382507324,6.048202306365966
1759163602792513300,10.64351318359375,-2.7352257591247557,-10.145279897308349,7.232583940124512
1759163602802571300,10.6535712890625,-0.004638765716552734,-8.955361672210692,7.588871074676513
1759163602812628200,10.663628173828124,4.180725011444092,-9.482834225463867,6.4080807434082026
1759163602822686500,10.6736865234375,5.984905599975586,-10.192415742492676,4.4659342842102046
1759163602832743400,10.683743408203124,2.57915373840332,-10.007912577056883,2.0796634170532227
1759163602842801400,10.693801513671875,0.049230771636962885,-10.133907439422607,-0.7012018112182616
1759163602852858400,10.7038583984375,0.9388263259887695,-10.68741693572998,-1.7833809616088867
1759163602862916400,10.713916259765625,-0.09501987838745117,-10.09335564880371,-1.1264718811035155
1759163602872973600,10.7239736328125,-2.1568764205932616,-9.217377116394042,-0.32486323776245113
1759163602883031300,10.73403125,-3.3328783485412594,-8.103025881195068,0.37005379409790035
1759163602893088800,10.7440888671875,-3.4949358734130858,-7.50791713104248,0.016160861206054686
1759163602903146800,10.754146728515625,-2.5591022994995116,-6.93974314956665,-0.15771803436279297
1759163602913203700,10.76420361328125,-1.7724574165344238,-6.53766690826416,0.28057050704956055
1759163602923261000,10.774260986328125,-1.0983400115966797,-6.463297019195556,0.8961796089172362
1759163602933319000,10.78431884765625,-0.8922890312194823,-6.13544102935791,1.2452841384887694
1759163602943376000,10.7943759765625,-0.7209539749145507,-6.2216322891235345,1.1761515655517578
1759163602953433900,10.804433837890626,0.07032967376708985,-6.432172397613525,1.6692074699401855
1759163602963490800,10.81449072265625,0.388159944152832,-6.398803211975097,2.3409306732177733
1759163602973548800,10.824548828125,0.3093009269714355,-6.050297232818603,3.0639795745849607
1759163602983605800,10.834605712890625,0.17507599639892577,-5.588365950012206,3.7630864593505855
1759163602993663700,10.844663818359376,-0.18749591751098632,-5.066429988098144,4.176235883331299
1759163603003720700,10.854720703125,-0.43933600463867184,-4.617816452026367,4.046350443267822
1759163603013779000,10.864779052734375,-0.12240355987548827,-4.347870214843749,3.5794811195373533
1759163603023836000,10.8748359375,0.28745383682250975,-4.333355367279053,2.926612254333496
1759163603033894000,10.884893798828125,0.49200844116210934,-4.4942157913208005,2.3880665184020993
1759163603043950800,10.894950927734374,0.8906430175781249,-4.746055878448486,1.6288053169250487
1759163603054007800,10.9050078125,1.4018050720214843,-5.048174200439453,1.022024833679199
1759163603064066000,10.915066162109374,1.7172411407470702,-5.665578953552246,0.4982932205200195
1759163603074123000,10.925123046875,2.0854992835998534,-6.457012239837646,0.0053869537353515625
1759163603084180700,10.9351806640625,2.7105355545043945,-7.265653850555419,-0.20231004028320312
1759163603094237700,10.94523779296875,3.7773020317077632,-8.223633789825438,-0.6890811653137207
1759163603104295700,10.955295654296876,5.031265151214599,-9.564985269927979,-1.4645032279968262
1759163603114353000,10.965352783203125,6.994660150146484,-11.160720676422118,-2.2294506584167477
1759163603124411000,10.975410888671876,9.031976125335692,-12.81346800994873,-3.393182302856445
1759163603134467800,10.9854677734375,10.213215369415282,-14.46067875213623,-4.5230958488464355
1759163603144525800,10.99552587890625,9.271396291351317,-15.956156964111328,-5.456235945892334
1759163603154582800,11.005582763671875,6.7933975730895995,-16.86056664123535,-6.246621768951416
1759163603164639700,11.0156396484375,4.354753544616699,-15.841684197235107,-5.695356836700439
1759163603174698000,11.025697998046875,3.508103982543945,-13.165266016387939,-4.135684092712402
1759163603184755000,11.0357548828125,3.75395856552124,-10.708964750671386,-2.638110954284668
1759163603194812700,11.045812744140624,3.26898309173584,-9.014169250488282,-1.6479589302062987
1759163603204869600,11.05586962890625,2.5424925254821775,-7.275380294799804,-0.47315410308837885
1759163603214928000,11.065927978515624,1.790713204193115,-5.682787277984619,0.6627449470520019
1759163603224984800,11.07598486328125,1.2933178092956543,-4.966023155975342,2.045396405792236
1759163603235042800,11.086042724609374,1.079635311126709,-5.105485402679443,3.7406408187866207
1759163603245099800,11.096099853515625,1.0956465347290039,-5.967398000335693,5.33098927154541
1759163603255158000,11.106157958984374,2.032527571868896,-7.7389575912475586,6.031442894744873
1759163603265215000,11.116215087890625,3.541473168182373,-11.143213076782226,5.356128388977051
1759163603275272000,11.12627197265625,5.533748224639893,-16.448315042877198,4.868309800720215
1759163603285330000,11.136329833984375,5.7703252761840815,-22.465392727661133,5.0760067947387695
1759163603295387000,11.146386962890626,1.234061318206787,-24.18293314361572,5.5720554512023925
1759163603305444600,11.156444580078125,-2.113930428314209,-19.20927846984863,5.7891796142578125
1759163603315501800,11.166501708984375,-3.0015806938171385,-12.181698046874999,4.91604419631958
1759163603325559800,11.176559814453125,-2.75183553314209,-7.511358795928954,3.913023338317871
1759163603335616800,11.18661669921875,-1.7706617652893066,-5.220407082366943,3.549254323577881
1759163603345674800,11.1966748046875,-1.2765583976745605,-3.774608554840088,3.516932601165771
1759163603355731700,11.206731689453125,-1.6077064147949218,-2.9376854370117185,3.690961134338379
1759163603365789000,11.216788818359374,-2.2610241928100585,-3.012204963684082,3.872621185302734
1759163603375847000,11.226846923828125,-2.6349685646057126,-3.7783494949340817,3.7579987808227537
1759163603385903900,11.23690380859375,-2.79014275970459,-5.103240838623047,3.4171243194580074
1759163603395961900,11.2469619140625,-3.110965782165527,-6.517914744567871,3.010858225250244
1759163603406018800,11.257018798828126,-3.0912136184692383,-7.615506568145752,2.840271356964111
1759163603416076800,11.267076904296875,-2.9677625953674314,-8.372972118377685,2.853140190887451
1759163603426133800,11.2771337890625,-3.173813575744629,-9.01461816329956,3.178751616668701
1759163603436191700,11.287191650390625,-3.405901499176025,-10.18882444000244,3.623175299835205
1759163603446248700,11.297248779296876,-4.058321451568603,-11.486182464599608,3.6610336135864254
1759163603456307000,11.307306884765625,-5.258714308929443,-12.945747651672363,3.4509424179077146
1759163603466364000,11.317364013671876,-5.639691648101806,-14.463372229003905,2.6288334228515624
1759163603476420900,11.3274208984375,-5.589862326049804,-14.993987171936034,0.2668038475036621
1759163603486478800,11.337478759765625,-4.6645033843994135,-14.318822303771972,-1.946485949707031
1759163603496535800,11.347535888671874,-2.415300562286377,-12.809278157043456,-2.5694272941589356
1759163603506594000,11.357593994140625,0.03232172241210937,-11.402535044097899,-2.673575066375732
1759163603516651000,11.367651123046874,2.372504207611084,-9.960926369476319,-2.479046181488037
1759163603526708700,11.377708740234375,4.066252244567871,-9.27588541946411,-2.3349451690673826
1759163603536765700,11.387765625,3.751414726257324,-8.754248732757567,-2.415300562286377
1759163603546823000,11.397822998046875,2.6295816108703614,-8.092102336120606,-1.9639935493469236
1759163603556880600,11.407880615234374,1.5572785423278808,-7.408857037353515,-0.8571241943359375
1759163603566937900,11.417937744140625,0.6892308029174804,-6.5963248489379875,0.3860650177001953
1759163603576995800,11.427995849609376,-0.00613514175415039,-6.298994930267334,1.0703577796936035
1759163603587052800,11.438052734375,-0.623090982055664,-7.529913858795165,1.2241852363586425
1759163603597110800,11.44811083984375,-1.1474211456298828,-9.143905052947998,1.2077250999450684
1759163603607167700,11.458167724609375,-1.0908581314086914,-10.429142431640624,1.458816999053955
1759163603617226000,11.46822607421875,-0.7951742263793945,-11.016021113586426,1.8375497741699218
1759163603627283000,11.478282958984375,-0.24765023422241209,-11.022754805755614,2.1580735214233395
1759163603637340000,11.48833984375,0.3066074501037597,-10.831667585754394,2.3687632675170898
1759163603647397600,11.498397705078125,0.6612485710144043,-10.54047280883789,2.4048259300231933
1759163603657454800,11.508454833984375,0.34102409896850583,-10.051756394958495,2.0211551139831543
1759163603667512800,11.518512939453124,-0.378583137512207,-9.421482807922363,1.280000062561035
1759163603677569800,11.52856982421875,-1.1046247909545899,-8.917353720855713,0.5383960983276367
1759163603687627800,11.538627685546874,-1.9741689064025878,-8.852111725616455,-0.0474351203918457
1759163603697684700,11.548684814453125,-2.6135703872680662,-8.959701162719726,-0.6042366439819336
1759163603707741700,11.55874169921875,-2.823212670135498,-9.069235888671875,-0.9826701438903808
1759163603717800000,11.568800048828125,-2.259378179168701,-9.083750736236572,-1.0167875175476073
1759163603727857000,11.57885693359375,-1.3799579818725585,-9.200916979980468,-0.8933364944458008
1759163603737915000,11.588914794921875,-0.4961982940673828,-9.670030867767334,-0.6985083343505859
1759163603747971800,11.598971923828126,-0.06853402252197265,-10.404751502227782,-0.4230255058288574
1759163603758029800,11.60902978515625,-0.11671733093261719,-11.16520980453491,-0.241964005279541
1759163603768086800,11.619086669921876,-0.4659714981079101,-11.77228956298828,-0.12165537185668944
1759163603778144000,11.62914404296875,-1.0079588989257813,-12.19980419692993,-0.10758943710327148
1759163603788201700,11.63920166015625,-1.4772224243164063,-12.485163107299805,-0.24944588546752927
1759163603798258700,11.6492587890625,-1.85146607131958,-12.732813341522217,-0.6696282768249512
1759163603808317000,11.65931689453125,-2.034772135925293,-12.74852528991699,-1.3575123413085937
1759163603818374000,11.669373779296874,-2.090138049316406,-12.509853311920166,-1.9672855766296387
1759163603828432000,11.679431884765625,-1.3319243110656738,-12.238859611511229,-2.1785738731384274
1759163603838488800,11.68948876953125,0.5850830307006836,-12.082039402770995,-2.143857949066162
1759163603848545800,11.6995458984375,3.3659482589721677,-11.934496725463866,-1.5158289260864257
1759163603858603800,11.709603759765624,5.516689537811279,-12.305298707580565,-0.43514615173339843
1759163603868661000,11.719660888671875,5.811774892425537,-13.251307638549804,-0.1988683753967285
1759163603878719000,11.729718994140624,5.403413871765136,-13.959093504333495,-0.6784568954467773
1759163603888776000,11.73977587890625,4.5455414894104,-13.752144698333739,-1.6436194396972654
1759163603898833200,11.749833251953126,3.6884172950744625,-12.732214791107177,-1.9179051673889158
1759163603908890400,11.759890380859375,2.743306189727783,-11.741164941406248,-1.9731214431762694
1759163603918947300,11.769947265625,1.7073650588989258,-11.044452258300781,-2.3503578422546387
1759163603929005300,11.78000537109375,1.025316860961914,-10.619331826019286,-2.8164789779663084
1759163603939062300,11.790062255859375,0.953191535949707,-10.619780738830565,-3.2631472251892086
1759163603949120300,11.800120361328124,0.3919008842468262,-10.890624801635742,-3.171868286895752
1759163603959177200,11.81017724609375,-0.9656114570617675,-11.554716487121581,-2.2005706008911132
1759163603969235500,11.8202353515625,-2.5668834548950192,-12.97283205795288,-0.7487865692138671
1759163603979292400,11.83029248046875,-4.4662335594177245,-14.995483547973633,1.6379332107543945
1759163603989349400,11.840349365234376,-5.805490113067626,-15.623213295745849,4.63487513885498
1759163603999407400,11.850407470703125,-5.96275923461914,-15.20692148208618,6.377704309844971
1759163604009464300,11.86046435546875,-5.652111569213867,-15.026608169555663,7.0373068672180175
1759163604019522300,11.870522216796875,-4.772392096710205,-14.355782791900634,7.200112580108642
1759163604029579500,11.88057958984375,-3.4802713882446286,-13.46379303588867,6.385485465240478
1759163604039637200,11.89063720703125,-1.6514005950927733,-11.585691471099853,7.95473501586914
1759163604049694200,11.900694091796876,0.6696282768249512,-9.36626653213501,10.95466969604492
1759163604059751200,11.910751220703125,2.2040122657775876,-8.724919762420654,10.903493635559082
1759163604069809400,11.920809326171875,2.890848867034912,-9.51904652557373,7.851335431671142
1759163604079866400,11.930866455078124,1.376516316986084,-9.541342528533935,4.531026641845703
1759163604089924400,11.94092431640625,-1.0601824226379395,-9.447819026184082,1.2006921325683593
1759163604099981300,11.950981201171874,-1.8026842124938964,-10.086173043823242,-2.955193036651611
1759163604110038300,11.961038330078125,0.18255787658691405,-10.237606298828124,-4.5213001976013185
1759163604120096500,11.971096435546874,0.9099462684631348,-9.388562535095215,-2.5157073944091795
1759163604130153500,11.981153564453125,-1.3628992950439451,-7.742848168945312,-0.7640496047973633
1759163604140211500,11.99121142578125,-3.450643142700195,-6.634482437896728,-0.9792284790039062
1759163604150268400,12.001268310546875,-3.222146521759033,-6.131251176452636,-1.1317091972351074
1759163604160325400,12.011325439453126,-2.1806687995910643,-6.33999563369751,-1.4603133750915527
1759163604170383000,12.021383056640625,-1.373822840118408,-6.3435869361877435,-1.0184335311889647
1759163604180440300,12.0314404296875,-1.1834838081359862,-6.529436840057373,-0.19333178405761717
1759163604190498300,12.041498291015625,-1.452382582092285,-6.846070009613037,0.5653308670043945
1759163604200555300,12.05155517578125,-1.3587094421386718,-7.051672077178955,1.3639467582702636
1759163604210613200,12.06161328125,-0.8735843307495117,-7.577797891998291,2.024896054077148
1759163604220670200,12.071670166015625,-0.09367313995361327,-7.763049245452881,3.240851222229004
1759163604230727400,12.0817275390625,-0.020350714111328123,-7.4703580924987785,4.079420353698731
1759163604240785400,12.091785400390625,-0.23612813873291014,-7.025784771728516,4.030937770080566
1759163604250842400,12.10184228515625,-0.20231004028320312,-6.359897434997558,3.386149335479736
1759163604260900400,12.111900390625,0.1710357810974121,-6.078728377532959,3.0946552833557126
1759163604270957300,12.121957275390624,0.46402620925903315,-5.915024839019775,3.041683571624756
1759163604281014500,12.1320146484375,0.6299743118286133,-5.885995143890381,2.7615619773864744
1759163604291072300,12.142072265625,0.9861118087768554,-6.071845047760009,2.0964228286743163
1759163604301129200,12.152129150390625,1.9642928245544433,-6.079476565551757,1.8882769218444824
1759163604311187200,12.162187255859376,2.5623943267822265,-6.334907955169677,1.5065513946533202
1759163604321244200,12.172244140625,2.5200468849182127,-6.6139820861816405,1.0925041450500488
1759163604331301000,12.182301025390625,3.427748589324951,-6.9241808387756345,1.3453916954040526
1759163604341359400,12.192359375,4.205115940856933,-7.297077747344971,1.1774983039855957
1759163604351416300,12.202416259765625,5.043086521911621,-7.724742018890381,1.1755530151367186
1759163604361474300,12.212474365234375,5.747580360412598,-8.308179035949706,0.8044517578125
1759163604371531300,12.22253125,6.552032118225097,-9.041852207183837,0.24570494537353516
1759163604381588200,12.232588134765624,7.510460970306396,-10.044124877166748,-0.38411972885131834
1759163604391646500,12.242646484375,8.621520178222656,-11.304372776031494,-1.412878254699707
1759163604401703400,12.252703369140624,9.223063345336913,-12.660837654113768,-2.6952725189208984
1759163604411761400,12.262761474609375,8.381052548980712,-13.94921742248535,-4.192546382141113
1759163604421818400,12.272818359375,5.887790795135498,-14.970643705749511,-5.562628282165527
1759163604431875300,12.282875244140625,3.199102330780029,-14.873079988098144,-5.571007987976074
1759163604441933300,12.292933349609376,2.6478373985290524,-13.073238890075682,-3.6686651313781735
1759163604451990300,12.302990234375,2.9249662406921386,-10.581473512268065,-2.3458687141418455
1759163604462048300,12.31304833984375,2.389562894439697,-8.624064017486571,-1.793406681060791
1759163604472105200,12.323105224609375,1.6352397338867186,-7.219864743804931,-0.572663109588623
1759163604482162200,12.333162109375,1.246181964111328,-6.462399193572998,0.9145850341796874
1759163604492220400,12.343220458984375,0.9762357269287109,-6.381594887542724,2.3965958618164063
1759163604502277400,12.35327734375,1.3186065643310547,-6.926425402832031,3.266888165283203
1759163604512335400,12.36333544921875,2.714126856994629,-8.53577783126831,3.481468489074707
1759163604522392300,12.373392333984375,4.434510387420654,-12.235717221832275,4.210502894592285
1759163604532449300,12.38344921875,4.574421546936035,-17.938705576324462,5.88659369430542
1759163604542507500,12.393507568359375,0.9425672660827636,-22.48454634094238,7.291990068817138
1759163604552564500,12.403564453125,-3.111713970184326,-21.619341716003415,7.734019550323486
1759163604562622200,12.413622314453125,-4.222174627685547,-15.108459938812254,7.678204724121093
1759163604572679200,12.42367919921875,-3.1830911071777344,-9.093327542877196,6.707056675720215
1759163604582736100,12.433736083984375,-2.104503259277344,-5.601384421539306,5.134664735412597
1759163604592794400,12.44379443359375,-1.4857517677307128,-3.8687306076049803,4.149899665069579
1759163604602851300,12.453851318359375,-1.6877625328063963,-3.250278391265869,3.810072666931152
1759163604612909300,12.463909423828126,-1.7012299171447753,-3.42849677734375,3.686771281433105
1759163604622966300,12.47396630859375,-1.9850924514770507,-4.031536320495605,3.5303999855041504
1759163604633023200,12.484023193359375,-2.2713491874694824,-5.072116217041016,3.1893758865356445
1759163604643081500,12.49408154296875,-2.3546973327636715,-6.381744525146484,2.900276036071777
1759163604653138400,12.504138427734375,-2.246060432434082,-7.543081967926025,2.6318261749267577
1759163604663195400,12.5141953125,-2.291250988769531,-8.07070415878296,2.446275546264648
1759163604673253400,12.52425341796875,-2.7563246612548826,-8.4406083152771,2.5125650047302246
1759163604683310300,12.534310302734376,-3.2582091842651364,-9.21962168045044,2.618957341003418
1759163604693368300,12.544368408203125,-3.856909236907959,-10.384550425720214,2.7385177864074706
1759163604703425300,12.55442529296875,-4.807856208801269,-11.628338188171385,2.7531822715759278
1759163604713482500,12.564482421875,-5.7885810638427735,-13.200281215667724,1.9508254402160643
1759163604723540200,12.574540283203126,-5.988197627258301,-13.884424340057372,-0.1240495735168457
1759163604733597200,12.58459716796875,-4.942829327392578,-14.015506880950927,-2.2706009994506835
1759163604743655400,12.594655517578126,-3.135356711578369,-13.348572080993652,-3.057245882415771
1759163604753712400,12.60471240234375,-0.4516062881469726,-12.313379138183594,-2.712780118560791
1759163604763769300,12.614769287109375,3.094505645751953,-11.24287172088623,-2.057816326904297
1759163604773827300,12.624827392578124,5.225794036102295,-10.352527978515624,-1.6928502113342283
1759163604783884300,12.63488427734375,5.3868040977478024,-9.731232647705077,-1.7987936347961424
1759163604793941200,12.644941162109374,4.077624702453613,-9.098864134216308,-2.11333187789917
1759163604803999500,12.65499951171875,2.804507969665527,-8.20403126373291,-1.7791911087036132
1759163604814056400,12.665056396484376,2.029684457397461,-7.462277661895752,-0.5735609352111816
1759163604824114400,12.675114501953125,1.107617543029785,-7.707982607269287,0.23912089080810545
1759163604834171400,12.68517138671875,-0.1883937431335449,-8.124424058532714,0.4557961410522461
1759163604844228400,12.695228271484375,-1.3570634284973144,-8.702773397064208,0.577152237701416
1759163604854286300,12.705286376953126,-1.92164610748291,-9.57037222366333,0.5529109458923339
1759163604864343300,12.71534326171875,-1.8368015861511229,-10.088716883087157,0.996586441040039
1759163604874400300,12.725400146484375,-1.158045415496826,-10.21531029586792,1.7395371437072753
1759163604884458200,12.735458251953125,-0.21113865890502928,-10.267683457183837,2.4084172325134277
1759163604894514700,12.7455146484375,0.5301660301208496,-9.97798505630493,2.8835166244506834
1759163604904572400,12.755572509765624,0.8372223930358886,-9.48088893661499,2.983324906158447
1759163604914629600,12.765629638671875,0.9338882850646972,-9.183259742736816,2.5966613380432126
