time,seconds_elapsed,z,y,x
1759347134754649600,0.046649658203125,1.3880384124755858,-9.011176498413086,3.348440659332275
1759347134764706600,0.05670654296875,1.3449427825927733,-9.01536635131836,3.339612040710449
1759347134774763800,0.066763671875,1.3238438804626464,-9.017311640167236,3.3879449867248534
1759347134784821800,0.07682177734375,1.3492822731018066,-9.037961629486084,3.4317888046264646
1759347134794878700,0.086878662109375,1.3986626823425292,-9.069834439086913,3.475034072113037
1759347134804935700,0.096935791015625,1.4559738845825194,-9.115473908233643,3.4940380477905273
1759347134814992600,0.10699267578125,1.4791677131652832,-9.110086954498291,3.512742748260498
1759347134825051000,0.11705078125,1.468992356109619,-9.069535163879394,3.5181297019958495
1759347134835107800,0.12710791015625,1.4429554130554199,-9.000103315734863,3.5072061569213866
1759347134845164800,0.137164794921875,1.4273931022644042,-8.96269391479492,3.5140894866943357
1759347134855222800,0.147222900390625,1.3865420364379881,-8.960449350738525,3.5468601219177245
1759347134865279700,0.15727978515625,1.3750199409484862,-8.964339928436278,3.5425206314086912
1759347134875336700,0.167336669921875,1.3763666793823242,-8.997709114074706,3.5338416503906247
1759347134885394700,0.177394775390625,1.4043489112854004,-9.023596419525147,3.518877890014648
1759347134895452000,0.187451904296875,1.4480430915832518,-9.056067779541015,3.4825159523010254
1759347134905508900,0.1975087890625,1.4682441680908203,-9.043647858428955,3.465606903076172
1759347134915565800,0.20756591796875,1.5023615417480467,-9.044695321655272,3.4503438674926756
1759347134925623600,0.21762353515625,1.5295955856323242,-9.056067779541015,3.4777275489807127
1759347134935680500,0.227680419921875,1.530343773651123,-9.048136986541747,3.493439497375488
1759347134945737700,0.23773779296875,1.5390227546691893,-9.050980101013183,3.4932898597717283
1759347134955795700,0.247795654296875,1.532887612915039,-9.023147506713867,3.491045295715332
1759347134965852700,0.257852783203125,1.4826093780517577,-9.01431888809204,3.4581250228881832
1759347134975909600,0.26790966796875,1.43652099609375,-9.028684098052977,3.4088942512512204
1759347134985967600,0.277967529296875,1.4094365898132324,-9.056965605163574,3.3898902755737303
1759347134996024600,0.288024658203125,1.3941735542297362,-9.100061235046386,3.3810616569519043
1759347135006081800,0.298081787109375,1.4140753555297851,-9.11023659210205,3.3946786788940426
1759347135016138800,0.308138671875,1.444751064300537,-9.09766703338623,3.393032665252685
1759347135026196700,0.31819677734375,1.4962263999938965,-9.095721744537354,3.3563714523315427
1759347135036253700,0.328253662109375,1.5327379753112793,-9.083002548217772,3.3310826972961425
1759347135046310700,0.338310546875,1.5460557220458984,-9.07207900314331,3.286041778564453
1759347135056369000,0.348368896484375,1.5361796401977539,-9.062053283691405,3.26224939956665
1759347135066425900,0.35842578125,1.5014637161254882,-9.086893125915527,3.2353146308898926
1759347135076482800,0.36848291015625,1.4600140998840332,-9.127594554138183,3.2193034072875975
1759347135086540800,0.378540771484375,1.4190133964538574,-9.139565562438964,3.228730576324463
1759347135096597800,0.38859765625,1.357362703704834,-9.138817374420166,3.2894834434509277
1759347135106654700,0.39865478515625,1.3380594528198242,-9.151985483551025,3.3508348609924314
1759347135116711700,0.408711669921875,1.3456909706115723,-9.133131145477295,3.3892917251586914
1759347135126769700,0.418769775390625,1.4103344154357909,-9.098564859008789,3.413682654571533
1759347135136827000,0.428826904296875,1.4791677131652832,-9.07821414489746,3.4385224967956542
1759347135146883800,0.4388837890625,1.5189713157653808,-9.030180474090576,3.4578257476806638
1759347135156941600,0.448941650390625,1.5081974082946776,-9.024344607543945,3.4501942298889157
1759347135166998500,0.45899853515625,1.4791677131652832,-9.035118515014648,3.421314172363281
1759347135177055700,0.4690556640625,1.4392144729614258,-9.082703273010253,3.4102409896850583
1759347135187112700,0.47911279296875,1.39821376953125,-9.108440940856934,3.4247558372497555
1759347135197170700,0.489170654296875,1.3965677558898926,-9.094375006103515,3.3960254173278805
1759347135207227600,0.4992275390625,1.4059949249267578,-9.051429013824462,3.355623264312744
1759347135217284600,0.50928466796875,1.4270938270568847,-9.01476780090332,3.368941011047363
1759347135227342600,0.519342529296875,1.4751274978637694,-9.028534460449219,3.342904067993164
1759347135237399800,0.52939990234375,1.4731822090148925,-9.022997869110107,3.2632968627929686
1759347135247456800,0.539456787109375,1.5327379753112793,-8.985289192962647,3.219752320098877
1759347135257514800,0.5495146484375,1.589001714324951,-9.00174932937622,3.238756295776367
1759347135267571700,0.55957177734375,1.7628806098937988,-8.866626573181152,3.2899323562622067
1759347135277628700,0.569628662109375,1.5547347030639647,-8.935459870910645,3.097049485015869
1759347135287685600,0.579685546875,1.5480010108947753,-8.805275155639649,3.105429190826416
1759347135297744000,0.589743896484375,1.4649521408081054,-8.910021478271483,3.161543292236328
1759347135307800800,0.59980078125,1.470339094543457,-8.939799361419677,3.2858921409606934
1759347135317857800,0.60985791015625,1.4472949035644531,-9.004442806243896,3.2600048355102538
1759347135327915800,0.619915771484375,1.4130278923034667,-9.02195040588379,3.1643864067077634
1759347135337972700,0.62997265625,1.4238017997741699,-8.965985942077635,3.1287726570129393
1759347135348029700,0.64002978515625,1.3639467582702636,-9.021800768280029,3.099144411468506
1759347135358087700,0.650087646484375,1.3052888175964354,-9.144503603363036,3.1000422370910643
1759347135368144600,0.66014453125,1.193359889984131,-9.32691184234619,3.0629321113586423
1759347135378201600,0.67020166015625,1.157446865081787,-9.566631283569336,3.1145570846557615
1759347135388258800,0.6802587890625,1.2702736183166503,-9.516652323913574,3.3004069885253906
1759347135398316500,0.690316650390625,1.3058873680114744,-9.36536870651245,3.4093431640625
1759347135408373800,0.700373779296875,1.2921207084655761,-8.923189587402343,3.3016040893554686
1759347135418430700,0.7104306640625,1.262791738128662,-8.649203134918212,3.100191874694824
1759347135428488700,0.72048876953125,1.2167033561706542,-8.473528588104248,2.8664579376220702
1759347135438545700,0.730545654296875,1.0500070655822753,-8.08851103363037,2.1920412574768067
1759347135448602600,0.7406025390625,1.089810668182373,-8.194155181884765,2.0802619674682616
1759347135458659600,0.75065966796875,1.193210252380371,-8.736890770721436,2.3778911613464353
1759347135468717800,0.7607177734375,1.115249060821533,-8.89266351623535,2.4824878463745117
1759347135478774800,0.77077490234375,0.8687959274291992,-8.626158943939208,2.437297290039062
1759347135488831700,0.780831787109375,0.6530185028076172,-8.348431551361083,2.2028151649475096
1759347135498889700,0.7908896484375,0.635211627960205,-8.360103284454345,1.9535189170837401
1759347135508946700,0.80094677734375,0.7363666481018066,-8.592041570281982,1.887828009033203
1759347135519003600,0.811003662109375,0.7411550514221191,-8.492831838989257,1.866729106903076
1759347135529062000,0.821061767578125,0.7330746208190918,-8.326584461212157,1.5984288833618163
1759347135539118800,0.831118896484375,0.845302823638916,-8.43342571029663,1.4586673614501953
1759347135549175800,0.84117578125,1.1192892761230469,-8.754996920776367,1.578227806854248
1759347135559232800,0.851232666015625,1.3156138122558594,-9.331849883270262,1.9916765060424804
1759347135569290800,0.861290771484375,1.265335577392578,-10.091260722351073,2.7253496772766113
1759347135579347700,0.87134765625,1.636885747528076,-10.882245095825194,3.6840778045654297
1759347135589405000,0.881405029296875,1.6778864509582518,-11.42123974456787,4.116829754638672
1759347135599462700,0.891462646484375,1.4341267944335936,-11.832144604492187,3.8212954872131344
1759347135609519600,0.90151953125,1.3608043685913085,-11.673379106903075,3.382408395385742
1759347135619576600,0.91157666015625,1.1305120964050293,-11.144709452819823,3.3283892204284666
1759347135629633800,0.9216337890625,1.087266828918457,-10.467748933410643,2.9496564453125
1759347135639691800,0.93169189453125,1.442207225036621,-9.956586878967284,2.6102783599853514
1759347135649748700,0.941748779296875,1.407042388153076,-9.56917512283325,2.410661796569824
1759347135659805700,0.9518056640625,1.0627262619018554,-9.328258580780028,2.258031440734863
1759347135669863700,0.96186376953125,0.7962216896057128,-9.220669143676757,2.286761860656738
1759347135679920600,0.971920654296875,0.41629181365966794,-8.990227233886719,2.2049100914001465
1759347135689977600,0.9819775390625,-0.09965864410400391,-8.904933799743652,2.0883423980712887
1759347135700035600,0.99203564453125,-0.6459855354309082,-9.016413814544677,1.827823329925537
1759347135710093600,1.002093505859375,-0.9561842880249023,-9.14195976409912,1.497722776031494
1759347135720150800,1.01215087890625,-0.93852705078125,-9.392752388000488,1.2502221794128416
1759347135730207700,1.022207763671875,-0.720804337310791,-9.780912332153319,0.8948328704833984
1759347135740265700,1.032265625,-0.5433341392517089,-10.181791472625731,0.5397428367614746
1759347135750322700,1.04232275390625,-0.5518634826660156,-10.51428622817993,0.05521627578735351
1759347135760379600,1.052379638671875,-0.8786720092773437,-10.778546236419677,-0.528669654083252
1759347135770436600,1.0624365234375,-0.24465748214721678,-11.201571742248534,-1.0503063407897948
1759347135780494600,1.07249462890625,-0.02977788314819336,-11.39625026473999,-1.3947721046447754
1759347135790551600,1.082551513671875,0.5482721801757812,-11.560402716064452,-2.0073884544372556
1759347135800608500,1.0926083984375,0.9371803123474121,-11.61337442779541,-2.2999299697875975
1759347135810666500,1.10266650390625,0.902763663482666,-11.290606116485595,-2.3968951370239258
1759347135820723500,1.112723388671875,1.2761094848632812,-10.485106895446776,-2.2272060943603513
1759347135830780400,1.122780517578125,1.3763666793823242,-9.78734674911499,-1.716792227935791
1759347135840838700,1.132838623046875,0.9156324974060058,-9.494655596160888,-1.4227543365478514
1759347135850895600,1.1428955078125,0.08035539321899414,-9.489567917633057,-1.1174936248779297
1759347135860952600,1.15295263671875,-0.8487444885253905,-9.726893157196045,-0.5289689292907714
1759347135871009500,1.163009521484375,-1.6386813987731932,-9.842263749694824,0.34311902542114253
1759347135881067500,1.173067626953125,-1.7654244491577147,-9.597905542755127,1.1323077476501464
1759347135891124500,1.18312451171875,-1.3461398834228515,-9.239224206542968,1.448492004394531
1759347135901181700,1.193181640625,-0.7682394577026367,-9.041253656768799,1.34703770904541
1759347135911239700,1.20323974609375,-0.22685060729980466,-8.990077596282958,1.3347674255371094
1759347135921296600,1.213296630859375,0.032920272827148434,-9.166051418304443,1.430685129547119
1759347135931353600,1.223353515625,0.4999392341613769,-9.388263259887696,1.7145476638793944
1759347135941410600,1.23341064453125,0.4815338088989258,-9.814580792999267,1.1240776794433593
1759347135951468800,1.24346875,0.2219125663757324,-10.288632721710204,0.04683656997680664
1759347135961525800,1.25352587890625,0.24600422058105467,-10.639233627319335,-0.6298246742248534
1759347135971582700,1.263582763671875,0.32456396255493164,-10.800094051361084,-1.0254664985656738
1759347135981640700,1.273640625,0.30181904678344723,-10.74457850036621,-1.0037690460205078
1759347135991697700,1.28369775390625,0.493504817199707,-10.430938082885742,-0.42182840499877927
1759347136001754600,1.293754638671875,0.5768529624938965,-9.9461122467041,0.2079962692260742
1759347136011811600,1.3038115234375,0.41748891448974607,-9.498246898651123,0.563086302947998
1759347136021869600,1.31386962890625,0.1484405029296875,-9.160215551757812,0.8183680549621581
1759347136031926500,1.323926513671875,0.05521627578735351,-9.044844959259033,0.8533832542419433
1759347136041983500,1.3339833984375,-0.022146365356445312,-8.920496110534668,0.8614636848449706
1759347136052041500,1.34404150390625,0.06733692169189452,-8.813505223846436,0.8328829025268554
1759347136062098400,1.354098388671875,-0.0704793113708496,-8.982894991302489,0.5406406623840332
1759347136072155600,1.36415576171875,-0.2171241630554199,-9.102455436706542,0.3694552436828613
1759347136082212600,1.374212646484375,-0.2072480812072754,-9.230694863128662,0.25842414169311523
1759347136092270600,1.3842705078125,-0.14170681076049804,-9.296834683990477,0.17342998275756835
1759347136102327600,1.39432763671875,0.040102877807617184,-9.505579141235351,-0.05461772537231445
1759347136112384500,1.404384521484375,0.23268647384643554,-9.683348614501952,-0.12330138549804687
1759347136122442500,1.4144423828125,0.3719990829467773,-9.822062673187256,-0.11701660614013672
1759347136132499700,1.424499755859375,0.35523967132568357,-9.917980377197265,-0.1605611488342285
1759347136142556700,1.434556640625,0.24121581726074218,-9.86381156463623,-0.22685060729980466
1759347136152613600,1.444613525390625,0.13691840744018555,-9.841964474487304,-0.3532943824768066
1759347136162671600,1.454671630859375,0.10265139617919922,-9.638906246185302,-0.20515315475463866
1759347136172728600,1.464728515625,0.1632546257019043,-9.3339448097229,0.06943184814453125
1759347136182785500,1.47478564453125,0.26830022354125976,-9.293393019104004,0.0909796630859375
1759347136192843800,1.48484375,0.2510918991088867,-9.437344393920897,0.1131260284423828
1759347136202900700,1.494900634765625,0.08215104446411133,-9.599701194000243,0.29343934097290036
1759347136212957700,1.504957763671875,-0.1788169364929199,-9.771036250305174,0.4447229583740234
1759347136223014700,1.5150146484375,-0.512658430480957,-10.08078609008789,0.474351203918457
1759347136233072600,1.52507275390625,-0.9519944351196289,-10.567407577514647,0.4439747703552246
1759347136243129600,1.535129638671875,-1.5189713157653808,-11.330110443878173,0.2914940521240234
1759347136253186800,1.545186767578125,-2.3288100273132324,-12.535291704559326,-0.21398177337646482
1759347136263244500,1.55524462890625,-2.886210101318359,-13.534122709655762,-0.781407566833496
1759347136273301500,1.565301513671875,-2.764854004669189,-13.371017721557616,-0.44891281127929683
1759347136283358500,1.5753583984375,-2.461987494659424,-12.900407457733154,0.015113397979736327
1759347136293415400,1.58541552734375,-1.913416039276123,-13.15793377380371,0.26710312271118164
1759347136303473700,1.5954736328125,-0.9231143775939941,-13.807211336517334,0.852934341430664
1759347136313530600,1.605530517578125,0.18734627990722655,-14.629170693969726,1.4657003288269042
1759347136323587600,1.615587646484375,1.2696750679016113,-15.491981117248534,1.8936638755798338
1759347136333645600,1.6256455078125,2.2656629585266113,-16.20949342727661,2.030881558227539
1759347136343702500,1.63570263671875,3.0864252151489255,-16.237625296783445,1.9633949989318846
1759347136353759500,1.645759521484375,3.554192364501953,-15.567099194335936,1.8519149841308593
1759347136363816400,1.65581640625,3.65175608215332,-14.827739794158935,1.43652099609375
1759347136373874700,1.665874755859375,3.482067039489746,-14.162002095031738,0.9472060317993164
1759347136383931600,1.675931640625,3.126528092956543,-13.396456114196777,0.610371785736084
1759347136393988600,1.685988525390625,2.7492916938781735,-12.581679361724852,0.2721908012390137
1759347136404046600,1.696046630859375,2.5131635551452636,-11.74086566619873,-0.18570026626586913
1759347136414103600,1.706103515625,2.4717139389038083,-11.053131239318848,-0.6313210502624511
1759347136424160500,1.716160400390625,2.5005939964294432,-10.567557215118407,-0.728435855102539
1759347136434217700,1.7262177734375,2.5954642372131347,-10.388740278625487,-0.6200982299804687
1759347136444275700,1.736275634765625,2.915090158843994,-10.612298858642578,-0.49739539489746093
1759347136454332700,1.746332763671875,3.3897406379699704,-11.174038423156738,-0.3781342247009277
1759347136464389600,1.7563896484375,3.7804444213867185,-11.908459782409667,0.0896329246520996
1759347136474446600,1.766446533203125,3.21765739364624,-12.552500028991698,0.9264064048767089
1759347136484504600,1.776504638671875,2.085050370788574,-12.814216197967529,1.9213468322753906
1759347136494561800,1.786561767578125,0.725892015838623,-12.588712329101561,2.659060218811035
1759347136504618800,1.79661865234375,-0.7010521736145019,-12.182146959686278,2.5665841796874997
1759347136514676500,1.806676513671875,-1.649604943847656,-11.814786642456054,1.9041385078430175
1759347136524733400,1.8167333984375,-2.1532851181030273,-11.021707342529297,3.098396223449707
1759347136534790400,1.826790283203125,-1.061080248260498,-11.23568911590576,4.51381831741333
1759347136544847600,1.83684765625,1.4739303970336912,-11.921627891540526,4.69921930847168
1759347136554905600,1.846905517578125,2.8948890823364257,-12.045827102661132,3.9585131698608396
1759347136564962600,1.856962646484375,2.597858438873291,-11.608137111663817,2.7219080123901365
1759347136575019500,1.86701953125,1.4980220512390137,-10.736946982574462,2.18321263885498
1759347136585077500,1.877077392578125,-0.2472013214111328,-9.881169526672362,1.150563535308838
1759347136595134500,1.887134521484375,0.26665420989990235,-9.569923310852051,1.2984054878234863
1759347136605191700,1.897191650390625,0.4424783943176269,-9.94671079711914,1.9385551567077635
1759347136615248600,1.90724853515625,-0.10354922180175781,-10.906636025238036,1.3006500518798827
1759347136625306600,1.917306640625,0.18255787658691405,-12.323404857635497,0.7601590270996094
1759347136635363600,1.927363525390625,0.8035539321899413,-13.278691320037842,0.14021043472290037
1759347136645420500,1.937420654296875,1.7718588661193846,-13.067403023529051,0.09696516723632811
1759347136655478800,1.947478759765625,1.501014803314209,-12.489801873016356,-0.24001871643066405
1759347136665535700,1.95753564453125,0.05102642288208008,-12.202946586608887,-0.8336310905456542
1759347136675592700,1.9675927734375,0.4445733207702636,-11.303325312805175,-0.5223848747253418
1759347136685649700,1.977649658203125,0.45804070510864253,-9.606584523773193,-0.03980360260009765
1759347136695707600,1.987707763671875,0.3628711891174316,-8.232612046051026,0.05970540390014648
1759347136705763800,1.997763916015625,0.3651157531738281,-6.941089888000488,0.014215572357177733
1759347136715820800,2.00782080078125,0.35134909362792965,-5.94330634613037,-0.28206688308715816
1759347136725877800,2.017877685546875,0.6872855140686035,-5.196016152954101,-0.34820670394897457
1759347136735935700,2.027935791015625,1.3807061698913574,-4.577264661407471,-0.18614917907714842
1759347136745993000,2.037992919921875,2.008435917663574,-3.655497022247314,-0.15592238311767578
1759347136756050000,2.0480498046875,1.7242741081237791,-2.96881005859375,0.1222539222717285
1759347136766108000,2.05810791015625,1.445349614715576,-2.5043349365234375,0.13572130661010742
1759347136776164900,2.068164794921875,1.5780781692504882,-1.8183961608886718,-0.01750759963989258
1759347136786221800,2.078221923828125,1.829020430755615,-1.425597451019287,0.06000467910766601
1759347136796278800,2.08827880859375,2.1275474502563476,-1.0723030685424804,0.08080430603027343
1759347136806336800,2.098336669921875,2.3497592918395993,-0.958877764892578,0.02259527816772461
1759347136816393700,2.108393798828125,2.8945898071289062,-1.4104840530395506,-0.008080430603027343
1759347136826451000,2.118450927734375,3.503315579223633,-1.4959271247863768,-0.04997895965576172
1759347136836508700,2.1285087890625,3.905990370941162,-1.4386159225463866,0.12419921112060546
1759347136846565600,2.138565673828125,4.395604610443115,-1.5483002861022948,-0.045938744354248044
1759347136856622600,2.14862255859375,4.766556230163574,-1.7751508934020994,-0.11118073959350586
1759347136866679800,2.1586796875,5.250184965515136,-2.257881803131103,-0.3603273498535156
1759347136876737800,2.16873779296875,5.352537086486816,-2.8458079483032224,-0.9299977073669433
1759347136886794800,2.178794677734375,5.1602527656555175,-3.1811458183288575,-1.5888520767211913
1759347136896851700,2.188851806640625,5.2371664939880365,-3.3577181907653806,-2.250998473358154
1759347136906908700,2.19890869140625,5.4433671119689935,-3.475632622528076,-2.7883471084594724
1759347136916967000,2.208966796875,5.428253713989258,-3.3533787002563473,-3.0877719535827635
1759347136927023900,2.21902392578125,5.571157625579834,-3.414131567382812,-3.2722751190185546
1759347136937080800,2.229080810546875,5.398326193237304,-3.6112042915344236,-3.446902202606201
1759347136947138800,2.239138916015625,5.178358915710449,-3.8007951354980465,-3.0283658248901366
1759347136957195800,2.24919580078125,4.893149642944335,-3.7187937286376953,-2.2342390617370604
1759347136967252700,2.259252685546875,4.800075053405761,-3.789572315216064,-1.3775637802124023
1759347136977309700,2.269309814453125,6.106560971832275,-4.231003246307373,-1.1379939765930176
1759347136987368000,2.279367919921875,12.869133198547363,-6.009296529388427,-3.7110125732421873
1759347136997425000,2.2894248046875,21.05475903701782,-9.606285248565673,-5.242254172515869
1759347137007481900,2.29948193359375,8.213308795166014,-15.142876587677002,-5.266046551513671
1759347137017538800,2.309538818359375,1.0862193656921386,-20.652682795715332,-3.751863639068603
1759347137027596800,2.3195966796875,3.6285622535705566,-19.345149414062497,-0.5647323165893554
1759347137037654000,2.329654052734375,7.6187985954284665,-18.90416739578247,-1.0920552322387695
1759347137047711000,2.3397109375,5.1994578178405755,-18.459444437408447,-1.0577882209777831
1759347137057768700,2.349768798828125,4.670488888549804,-13.530381769561767,-0.12434884872436523
1759347137067826000,2.359825927734375,4.169801466369629,-9.667487028503418,0.07990648040771484
1759347137077883000,2.3698828125,3.858704888153076,-7.20804337310791,0.5006874221801757
1759347137087939800,2.37993994140625,3.405302948760986,-5.781548096466064,0.7722796730041503
1759347137097997800,2.389997802734375,3.0123546012878415,-4.66091208190918,1.0342951171875
1759347137108054800,2.4000546875,3.0850784767150876,-3.8537668472290036,1.1221323905944824
1759347137118111700,2.41011181640625,2.7844565307617186,-3.83072265625,0.8462006492614745
1759347137128168700,2.420168701171875,2.354547695159912,-4.298789080810547,0.6215946060180664
1759347137138226700,2.430226806640625,2.101809782409668,-5.127631768035888,0.2180219886779785
1759347137148283600,2.44028369140625,1.8650830932617186,-6.562357112884521,0.2280477081298828
1759347137158340600,2.450340576171875,1.4061445625305176,-8.300397880554199,0.6257844589233398
1759347137168398800,2.46039892578125,1.162534543609619,-10.156951630401611,1.0339958419799804
1759347137178455800,2.470455810546875,1.0362404060363768,-12.261305252075195,1.403899998474121
1759347137188512800,2.4805126953125,1.1788450424194334,-14.059350698852539,1.6572364616394042
1759347137198569700,2.49056982421875,1.359158354949951,-14.820557189178466,1.9143138648986815
1759347137208627700,2.500627685546875,1.0185831687927245,-14.716858329772949,1.7021277427673338
1759347137218685000,2.510684814453125,0.3434183006286621,-13.849259503173828,1.2288240020751953
1759347137228742000,2.520741943359375,0.4471171600341797,-12.327744348144531,1.2671312286376952
1759347137238798800,2.530798828125,0.8716390419006347,-10.752958206176757,1.3204022155761719
1759347137248856800,2.54085693359375,1.1875240234375,-9.511564645385741,1.2981062126159668
1759347137258913800,2.550913818359375,1.2173019065856934,-8.5432597114563,1.2020388710021972
1759347137268970800,2.560970703125,0.7523778717041015,-8.206874378204345,0.9121908325195311
1759347137279029000,2.571029052734375,0.5991489654541016,-8.245181604766845,0.817769504547119
1759347137289086000,2.5810859375,0.6441898841857909,-8.45916337814331,0.7888894470214843
1759347137299143000,2.591142822265625,0.8777741836547851,-8.92513487625122,0.7166144844055176
1759347137309200000,2.601199951171875,1.0064625228881836,-9.725396781158446,0.6139630882263183
1759347137319257900,2.6112578125,0.9316437210083007,-10.780790800476074,0.1610100616455078
1759347137329314800,2.621314697265625,0.8737339683532714,-11.671134542846678,-0.5404910247802734
1759347137339372000,2.6313720703125,0.8300397880554199,-11.870451831054687,-1.051503441619873
1759347137349429000,2.641428955078125,0.787841983795166,-11.234641652679443,-0.725293465423584
1759347137359486700,2.65148681640625,0.4159925384521484,-10.61080248260498,-0.6669347999572753
1759347137369543700,2.661543701171875,-0.01780687484741211,-10.017938296508788,-0.7679401824951172
1759347137379600600,2.6716005859375,-0.429011009979248,-9.638008420562743,-1.0308534523010253
1759347137389658600,2.68165869140625,-0.2745850028991699,-9.271246653747559,-0.9549871871948241
1759347137399715800,2.6917158203125,0.39653964996337887,-8.743923738098143,-0.2645592834472656
1759347137409772800,2.701772705078125,1.5192705909729003,-8.06950705795288,0.21143793411254883
1759347137419829800,2.711829833984375,1.9716250671386717,-7.642590974426269,0.2693476867675781
1759347137429887700,2.7218876953125,1.8501193328857422,-7.579593543243408,-0.07930792999267577
1759347137439944700,2.73194482421875,1.8465280303955076,-7.746738746643066,-0.29014731369018554
1759347137450001700,2.742001708984375,1.7182886039733887,-8.24188957748413,-0.9172785110473632
1759347137460058600,2.75205859375,0.6959644950866699,-9.535057749176024,-2.238877827453613
1759347137470116900,2.762116943359375,0.6031891807556152,-9.988160413360594,-1.2990040382385253
1759347137480173800,2.772173828125,1.1713631622314453,-9.932794499969482,0.7499836700439453
1759347137490230800,2.782230712890625,1.6364368347167968,-10.602572414398193,1.6603788513183593
1759347137500288800,2.792288818359375,1.5457564468383789,-10.628758995056153,2.177825685119629
1759347137510345700,2.802345703125,1.345840608215332,-10.096946951293944,2.765751830291748
1759347137520403000,2.81240283203125,1.3420996681213377,-9.657760584259032,2.2176292877197263
1759347137530460000,2.8224599609375,0.7511807708740234,-9.165452867889403,1.7571943809509276
1759347137540518000,2.832517822265625,0.23837270278930664,-8.59353794631958,2.080411605072021
1759347137550574800,2.842574951171875,0.2454056701660156,-8.665663271331786,1.6880618080139158
1759347137560631800,2.8526318359375,0.5080196647644043,-9.122057962799072,0.5820902786254882
1759347137570688800,2.862688720703125,0.5000888717651367,-9.170390908813475,0.04234744186401367
1759347137580747000,2.8727470703125,0.5568015235900878,-9.466224451446532,-0.3844190040588379
1759347137590804000,2.882803955078125,0.776319888305664,-9.810540577697754,-0.6329670639038085
1759347137600861000,2.89286083984375,1.0525509048461914,-9.929203197479248,-0.7221510757446289
1759347137610918000,2.90291796875,1.055394019317627,-9.986364762115478,-0.854879630279541
1759347137620975600,2.9129755859375,0.6178536659240722,-9.906607919311522,-0.9262567672729491
1759347137631032800,2.92303271484375,0.25438392639160157,-9.620351183319091,-0.89378540725708
1759347137641089800,2.93308984375,0.16505027694702148,-9.185803582000732,-0.6868366012573242
1759347137651147000,2.94314697265625,0.07721300354003906,-8.843432744598388,-0.5823895538330078
1759347137661204700,2.953204833984375,-0.1370680450439453,-8.737040408325194,-0.47105917663574215
1759347137671261700,2.96326171875,-0.48811786346435543,-8.884433448028563,-0.316034619140625
1759347137681318700,2.973318603515625,-0.9944915145874023,-9.392752388000488,0.16774375381469725
1759347137691377000,2.983376953125,-1.744774459838867,-10.353425804138183,0.8054992210388183
1759347137701434400,2.993434326171875,-2.5239374626159665,-11.742960592651366,1.1909656883239745
1759347137711491300,3.0034912109375,-3.0219314079284665,-12.868833923339842,1.8171990600585937
1759347137721548300,3.01354833984375,-3.2791584487915038,-13.525294091033935,2.456600540924072
1759347137731606500,3.0236064453125,-2.8535891036987304,-13.832799366760254,2.906710453033447
1759347137741663500,3.03366357421875,-1.9889830291748045,-13.82142690887451,3.050362552642822
1759347137751720400,3.043720458984375,-0.9668085578918456,-13.405284732818602,3.2330700668334957
1759347137761777400,3.05377734375,-0.14679448928833008,-14.014160142517088,3.051260378265381
1759347137771835400,3.06383544921875,0.6953659446716308,-15.784672270202636,2.602347566986084
1759347137781892600,3.073892578125,1.5789759948730469,-17.681777810668944,2.741360900878906
1759347137791949600,3.083949462890625,2.3801357254028317,-18.571223727416992,3.190872262573242
1759347137802006500,3.094006591796875,2.9732991867065426,-18.604443275451658,2.7442040153503418
1759347137812064500,3.104064453125,3.6028245857238765,-17.12213317260742,1.7176900535583495
1759347137822121500,3.11412158203125,4.2211271644592285,-14.974534283447264,1.006163247680664
1759347137832178400,3.124178466796875,4.381837950897217,-13.17663847427368,0.8255506599426269
1759347137842235400,3.1342353515625,4.030039944458007,-11.725901905822754,0.8457517364501953
1759347137852293400,3.14429345703125,3.556736203765869,-10.582072062683105,0.5913678100585937
1759347137862350300,3.154350341796875,3.39018955078125,-9.852888019561767,0.11941080780029296
1759347137872407600,3.164407470703125,3.209277687835693,-9.529970070648194,-0.36212300109863277
1759347137882465300,3.17446533203125,2.8823195236206054,-9.534459198760986,-0.601393529510498
1759347137892522200,3.184522216796875,2.661454420471191,-9.941323843383788,-0.46851533737182616
1759347137902579500,3.194579345703125,2.3153426429748536,-10.64881043395996,-0.09756371765136718
1759347137912636400,3.204636474609375,1.1975497428894042,-11.21713405303955,0.7341220840454101
1759347137922694400,3.2146943359375,0.48288054733276364,-11.730989584350585,1.4420575874328612
1759347137932751400,3.22475146484375,0.3010708587646484,-11.97699380493164,1.9473837753295897
1759347137942808300,3.234808349609375,-0.4043208053588867,-11.73443124923706,2.440888592529297
1759347137952865300,3.244865234375,-1.0333972915649414,-11.405827071380614,3.0985458610534664
1759347137962923500,3.254923583984375,-1.2452841384887694,-11.142764163970947,3.766079211425781
1759347137972980500,3.26498046875,0.0770633659362793,-11.073332315826415,4.836885903930664
1759347137983037400,3.275037353515625,1.68551796875,-11.042506969451903,5.839607486724853
1759347137993094400,3.285094482421875,3.4153286682128905,-10.828824471282958,6.333710854339599
1759347138003152400,3.29515234375,3.4775779113769527,-10.037241547393798,6.278943491363525
1759347138013209300,3.305209228515625,1.3660416847229002,-9.247454274749755,4.460248055267334
1759347138023266300,3.315266357421875,-0.20425532913208005,-8.61927561416626,2.7706898712158203
1759347138033323500,3.325323486328125,-0.43035774841308594,-8.884433448028563,1.0447697494506836
1759347138043381500,3.335381591796875,0.5946598373413086,-9.504082765197753,0.23687632675170897
1759347138053438500,3.3454384765625,1.56416187210083,-10.345345373535155,-0.01705868682861328
1759347138063495400,3.355495361328125,2.301127070617676,-10.876259591674804,-0.299424845123291
1759347138073552400,3.365552490234375,2.308459313201904,-10.84708025894165,-0.2332850242614746
1759347138083610600,3.375610595703125,1.9048866958618162,-10.844386782073974,-0.14350246200561523
1759347138093667600,3.38566748046875,1.3395558288574219,-10.7635824760437,-0.39668928756713867
1759347138103724500,3.395724609375,0.3510498184204101,-10.82702882003784,-1.1080664558410644
1759347138113781500,3.405781494140625,-0.3178302703857422,-10.720935758972168,-1.5004162528991698
1759347138123839500,3.415839599609375,-0.20605098037719724,-10.19570776977539,-1.6086042404174803
1759347138133896400,3.425896484375,0.6751648681640625,-9.278279621124266,-1.3736732025146483
1759347138143953400,3.435953369140625,1.696890426635742,-8.622418003845214,-1.3548188644409178
1759347138154011400,3.446011474609375,2.188749230194092,-7.911789023590088,-1.4308347671508788
1759347138164068400,3.456068359375,1.868075845336914,-7.30994658126831,-1.0627262619018554
1759347138174125300,3.466125244140625,1.5433622451782225,-6.9147536697387695,-0.6862380508422851
1759347138184182500,3.4761826171875,1.7558476425170897,-6.608894407653808,-0.4836287353515625
1759347138194240300,3.486240234375,2.099116305541992,-6.168959852600097,-0.6353612655639648
1759347138204297500,3.49629736328125,2.5112182662963867,-5.758204630279541,-0.43514615173339843
1759347138214354400,3.5063544921875,2.6740239791870115,-4.923376438903809,0.09576806640624999
1759347138224411400,3.516411376953125,2.096123553466797,-3.9106291366577146,0.1984194625854492
1759347138234469400,3.526469482421875,2.048089882659912,-3.310731983184814,0.27608137893676754
1759347138244526300,3.5365263671875,2.259378179168701,-2.532466806030273,0.4230255058288574
1759347138254583300,3.546583251953125,2.327014376068115,-1.7135002006530762,0.7781155395507812
1759347138264640300,3.55664013671875,2.414103461456299,-1.2342109558105467,0.637156916809082
1759347138274698500,3.566698486328125,2.747196767425537,-0.8589198455810546,0.3464110527038574
1759347138284755500,3.57675537109375,3.1061773788452145,-0.8346785537719726,0.05551555099487304
1759347138294812400,3.5868125,3.493589134979248,-0.9702502227783203,-0.1958756233215332
1759347138304869400,3.596869384765625,3.624372400665283,-1.2795511497497558,-0.4468178848266601
1759347138314927400,3.60692724609375,3.875913212585449,-1.8933646003723144,-0.6414964073181152
1759347138324984600,3.616984619140625,4.287566260528564,-2.6259903083801266,-0.726490566253662
1759347138335041500,3.62704150390625,4.370166217803955,-3.2290298515319824,-0.7806593788146973
1759347138345098500,3.637098388671875,4.587290380859375,-3.8021418739318844,-0.8307879760742187
1759347138355156500,3.647156494140625,4.8883612396240235,-4.388422005462647,-1.0155904167175291
1759347138365213400,3.65721337890625,4.905270288848877,-4.83284568862915,-1.3244424308776854
1759347138375270400,3.6672705078125,5.232378090667725,-5.223848747253418,-1.649604943847656
1759347138385327400,3.677327392578125,5.705382556152343,-5.67530539779663,-1.8186954360961913
1759347138395385600,3.687385498046875,6.140827983093262,-6.049549044799805,-2.090138049316406
1759347138405442600,3.697442626953125,8.275558038330077,-6.820033066558837,-3.2158617424011227
1759347138415499500,3.70749951171875,12.071714408111571,-8.436418462371826,-5.099948811340331
1759347138425556500,3.717556396484375,9.02060366744995,-9.977386505889893,-4.940435125732422
1759347138435614500,3.727614501953125,1.999008748626709,-11.999140170288085,-5.006425308990479
1759347138445671400,3.73767138671875,1.0260650489807128,-13.11274321746826,-4.859780457305908
1759347138455728600,3.747728759765625,6.50549482345581,-13.096881631469726,-3.451391330718994
1759347138465785600,3.75778564453125,6.548440815734863,-15.990124700164793,-3.8344635963439937
1759347138475843300,3.76784326171875,6.49965895690918,-16.93942565841675,-3.094356008148193
1759347138485900300,3.777900390625,4.572476258087158,-15.721974114227294,-2.1594202598571774
1759347138495957200,3.787957275390625,4.148253651428222,-13.825317486572265,-1.347785897064209
1759347138506014500,3.798014404296875,3.641580725097656,-11.758822178649902,-0.6929717430114746
1759347138516072400,3.808072509765625,2.645742472076416,-9.712378309631347,0.32097266006469727
1759347138526129400,3.81812939453125,2.544737089538574,-7.813028205108642,0.8863035270690918
1759347138536186400,3.828186279296875,2.332700605010986,-6.455366226196289,0.8812158485412597
1759347138546243300,3.838243408203125,2.420238603210449,-5.683236190795898,0.6552630668640136
1759347138556301300,3.84830126953125,2.5487773048400877,-5.194669414520264,0.45415012741088867
1759347138566358300,3.858358154296875,2.4646809715270996,-5.144241542053222,0.4745008415222168
1759347138576415500,3.86841552734375,2.287958961486816,-5.213972665405273,0.9196727127075195
1759347138586472400,3.878472412109375,1.772307778930664,-5.684283654022217,1.3940239166259765
1759347138596530400,3.888530517578125,1.1763012031555176,-6.659621555328369,1.5261539207458494
1759347138606587400,3.89858740234375,0.8616133224487305,-8.191012792205811,1.5828665725708007
1759347138616644400,3.908644287109375,0.6697779144287109,-9.97933179473877,1.9651906501770018
1759347138626701300,3.918701416015625,0.3006219459533691,-11.821669972229003,2.499546533203125
1759347138636759600,3.928759521484375,-0.07556698989868163,-13.315202895355224,3.1013889755249022
1759347138646816500,3.93881640625,-0.18555062866210936,-14.055460121154784,3.444956913757324
1759347138656873500,3.94887353515625,-0.011372457885742187,-14.146140509033202,3.1561563385009763
1759347138666930400,3.958930419921875,0.6965630455017089,-14.154220939636229,2.7870003700256345
1759347138676988400,3.968988525390625,1.424250712585449,-13.884424340057372,2.542043612670898
1759347138687045400,3.97904541015625,1.8891747474670408,-13.576769426727294,1.956212393951416
1759347138697102600,3.9891025390625,2.0133739585876462,-12.949338954162597,0.9639654434204101
1759347138707159000,3.999158935546875,2.0465935066223144,-11.931204698181151,0.16041151123046873
1759347138717216000,4.009216064453125,1.8966566276550292,-10.836605626678466,-0.21398177337646482
1759347138727274000,4.01927392578125,1.7673697380065916,-9.789441675567627,0.12943652725219726
1759347138737331200,4.029331298828125,1.4784195251464842,-9.120411949157715,0.5725134719848632
1759347138747388200,4.03938818359375,1.0589853218078613,-8.826224420166016,0.736067372894287
1759347138757445000,4.049445068359375,0.8051999458312988,-8.86064106903076,0.5297171173095703
1759347138767503000,4.059503173828125,0.6133645378112793,-8.858396504974365,0.24435820693969726
1759347138777560000,4.06956005859375,0.36795886764526364,-8.813205948638915,-0.1640028137207031
1759347138787617000,4.079616943359375,-0.0469862075805664,-8.832658837127685,-0.4997895965576172
1759347138797674000,4.089674072265625,-0.2998737579345703,-8.77115778198242,-0.663343497467041
1759347138807732200,4.099732177734375,-0.5163993705749511,-8.585457515716552,-0.6757634185791015
1759347138817789200,4.1097890625,-0.5080196647644043,-8.385242401885986,-0.405368268585205
1759347138827846100,4.11984619140625,-0.41314942398071286,-8.141482745361328,-0.2813186950683594
1759347138837903000,4.129903076171875,-0.1470937644958496,-7.760954319000244,-0.17073650588989256
1759347138847960800,4.1399609375,0.09636661682128905,-7.556549352264404,-0.20649989318847656
1759347138858018000,4.15001806640625,0.5933130989074706,-7.662941688537598,-0.17417817077636719
1759347138868075000,4.160074951171875,0.9804255798339843,-7.882908966064453,0.04638765716552734
1759347138878132200,4.17013232421875,1.3557166900634765,-8.207173653411864,-0.04249707946777344
1759347138888190000,4.18018994140625,1.1843816337585449,-8.683470146179198,-0.27952304382324217
1759347138898247000,4.190246826171875,1.5688006378173827,-9.192237998962401,-0.1714846939086914
1759347138908304000,4.200303955078125,1.9319711021423338,-9.672724344635009,0.043245267486572266
1759347138918360800,4.21036083984375,2.2082021186828613,-9.8702459815979,0.7818564796447753
1759347138928419000,4.220419189453125,2.2842180213928223,-10.094702387237549,1.1201871017456053
1759347138938476000,4.23047607421875,2.34287596206665,-10.479869579315185,0.9849147079467773
1759347138948533000,4.240532958984375,2.170044529724121,-10.217105947113037,0.9127893829345702
1759347138958590000,4.25058984375,1.7381904052734374,-9.931447761535644,0.5927145484924317
1759347138968648000,4.26064794921875,1.0473135887145995,-9.643993924713135,0.3672106796264648
1759347138978705200,4.270705078125,0.48198272171020506,-9.328557855987547,0.9539397239685058
1759347138988762000,4.28076220703125,0.4408323806762695,-9.146448892211913,1.1079168182373047
1759347138998819000,4.290819091796875,0.7851485069274902,-9.21962168045044,0.9421183532714843
1759347139008876000,4.3008759765625,1.0396820709228516,-9.466074813842773,0.5204395858764648
1759347139018934000,4.31093408203125,1.0483610519409179,-9.738115977478026,-0.12719196319580078
1759347139028991000,4.320990966796875,1.052251629638672,-9.938031816101073,-0.5943605621337891
1759347139039048000,4.3310478515625,1.0525509048461914,-10.001777435302733,-0.738012661743164
1759347139049105200,4.341105224609375,1.1266215187072752,-10.083180291748047,-0.979976667022705
1759347139059163100,4.3511630859375,1.078288572692871,-10.233117170715332,-1.3711293632507324
1759347139069220000,4.36122021484375,0.6388029304504395,-10.154856703948974,-1.376516316986084
1759347139079277000,4.371277099609375,-0.06150105514526367,-10.005368737792969,-0.9947907897949219
1759347139089334000,4.381333984375,-0.5618892021179199,-9.828646727752686,-0.2498947982788086
1759347139099392000,4.39139208984375,-0.975487538909912,-9.632022916412353,0.5915174476623535
1759347139109449200,4.40144921875,-1.1929109771728514,-9.432256715393066,1.1088146438598632
1759347139119506200,4.411506103515625,-0.9542389991760253,-9.234286165618895,1.225232699584961
1759347139129563100,4.421563232421875,-0.6980594215393066,-9.298331060028076,1.1513117233276366
1759347139139621000,4.43162109375,-0.8505401397705078,-9.59610989151001,1.2560580459594726
1759347139149678000,4.441677978515625,-1.5415665939331054,-10.128670123291014,1.6925509361267088
1759347139159735000,4.451735107421875,-2.66220260848999,-11.163863066101074,2.130390564727783
1759347139169792300,4.461792236328125,-3.40260947189331,-12.704382196807861,1.9897312171936035
1759347139179850000,4.47185009765625,-3.6559459350585937,-13.986327548217773,1.7081132469177245
1759347139189907200,4.4819072265625,-3.367594272613525,-14.719102893829344,1.8867805458068847
1759347139199964200,4.491964111328125,-2.48338567199707,-15.485397062683104,1.8046295013427733
1759347139210021000,4.502021240234375,-1.1577461402893066,-16.07003118057251,1.43008657913208
1759347139220078000,4.512078125,0.0992097312927246,-16.13841556549072,1.2247837867736815
1759347139230136000,4.522135986328125,1.1321581100463867,-15.66077233428955,1.097442185974121
1759347139240193000,4.532193115234375,1.9032406822204588,-14.835969862365722,0.9232640151977538
1759347139250250000,4.54225,2.5579051986694332,-14.041992736816406,0.8396165946960449
1759347139260307200,4.55230712890625,2.7117326553344725,-13.595923040008545,0.6061819328308106
1759347139270365000,4.562364990234375,2.809745285797119,-13.014431311798095,0.649277562713623
1759347139280422000,4.572421875,2.9466636932373045,-12.343007383728027,0.6886322525024413
1759347139290478800,4.582478759765625,3.0584429832458495,-11.58090306777954,0.4970961196899414
1759347139300536000,4.5925361328125,3.151218297576904,-10.8532154006958,0.14514847564697264
1759347139310594000,4.602593994140625,3.1980548675537106,-10.301800830841064,-0.25363573837280273
1759347139320651000,4.612651123046875,3.1196447631835937,-10.03604444656372,-0.5262754524230957
1759347139330708000,4.6227080078125,3.030760026550293,-10.110264698028564,-0.6474819114685059
1759347139340765000,4.632764892578125,2.8021137680053707,-10.657639052581786,-0.42437224426269526
1759347139350823200,4.6428232421875,1.9789573097229003,-11.373206073760986,0.09501987838745117
1759347139360880000,4.652880126953125,1.1394903526306153,-11.920730065917969,0.7188590484619141
1759347139370937000,4.66293701171875,1.2204442962646485,-12.286145094299316,1.3754688537597655
1759347139380994000,4.672994140625,1.4419079498291014,-12.362609909820556,2.0473416946411134
1759347139391051000,4.683051025390625,1.3148656242370604,-12.051962244415282,2.7630583534240722
1759347139401109000,4.69310888671875,1.5885528015136718,-12.021735448455809,3.365798621368408
1759347139411166000,4.703166015625,1.9026421318054199,-12.043732176208495,4.161870673370361
1759347139421223200,4.71322314453125,1.6909049224853514,-11.859229010772705,4.856638067626953
1759347139431280000,4.723280029296875,1.9099743743896482,-11.986869886779784,5.405209523010254
1759347139441338000,4.733338134765625,2.4142530990600584,-11.91968260269165,5.719598128509521
1759347139451395000,4.74339501953125,1.295412735748291,-11.148600030517578,5.254823731231689
1759347139461452000,4.7534521484375,0.6904279037475586,-10.426897867584229,4.006247565460205
1759347139471509000,4.763509033203125,0.4676175117492676,-9.885957929992676,2.6880899139404297
1759347139481567200,4.773567138671875,0.0579097526550293,-9.648931965637207,0.8759785324096679
1759347139491624200,4.783624267578125,0.7441478034973145,-10.198550884246826,-0.5379471855163573
1759347139501681200,4.79368115234375,1.598578520965576,-10.873416477203369,-0.7094318794250488
1759347139511738000,4.803738037109375,2.033425397491455,-11.613524065399169,-0.000748188018798828
1759347139521795000,4.813795166015625,1.5164274765014647,-12.077699912261963,-0.5904699844360352
1759347139531853000,4.82385302734375,1.5915455535888672,-12.305448345184326,-1.3009493270874022
1759347139541910300,4.83391015625,2.0555717628479004,-11.825111637115478,-0.7933785751342773
1759347139551967200,4.84396728515625,1.0078092613220215,-11.31245320663452,-1.431433317565918
1759347139562024200,4.854024169921875,0.23104046020507812,-10.951377668762206,-2.084451820373535
1759347139572082000,4.86408203125,0.05461772537231445,-9.97274774017334,-1.6959926010131834
1759347139582139100,4.87413916015625,-0.2255038688659668,-9.205106832885741,-1.8592472267150877
1759347139592196000,4.884196044921875,0.3016694091796875,-8.302492807006836,-1.7552490921020507
1759347139602253000,4.894253173828125,1.0366893188476562,-7.192331424713134,-1.5310919616699217
1759347139612310300,4.904310302734375,1.3859434860229491,-6.444741956329345,-1.497722776031494
1759347139622368000,4.914367919921875,1.3067851936340331,-6.006154139709472,-1.229572190093994
1759347139632425000,4.924425048828125,1.3064859184265136,-5.830030680084228,-0.8921393936157226
1759347139642482000,4.93448193359375,1.3052888175964354,-5.888239707946777,-0.6407482192993164
1759347139652539100,4.9445390625,1.6412252380371093,-5.857264723968505,-0.506224013519287
1759347139662596900,4.954596923828125,2.0923826133728025,-5.1337669097900385,-0.31004911499023435
1759347139672654000,4.964654052734375,1.6723498596191406,-4.291307200622558,-0.1836053398132324
1759347139682711000,4.9747109375,1.600523809814453,-3.2803555496215817,-0.055066638183593745
1759347139692768000,4.98476806640625,1.7331027267456054,-2.5602994003295896,-0.018555062866210937
1759347139702826000,4.994825927734375,1.8242320274353025,-1.9174562545776366,-0.44143093109130854
1759347139712884000,5.004884033203125,2.2294506584167477,-1.3467384338378905,-0.4709095390319824
1759347139722941000,5.01494091796875,2.6062381446838376,-1.0877157417297363,-0.5276221908569335
1759347139732998000,5.024997802734375,3.183390382385254,-0.8855553390502929,-0.49470191802978514
1759347139743054800,5.035054931640625,3.7276223472595214,-1.0785878479003905,-0.6576572685241698
1759347139753113000,5.045113037109375,4.23938295211792,-1.4733318466186522,-0.6974608711242676
1759347139763170000,5.055170166015625,4.356698833465576,-1.9469348625183105,-0.852934341430664
1759347139773227000,5.06522705078125,4.380491212463379,-2.354547695159912,-0.9944915145874023
1759347139783284000,5.075283935546875,4.281431118774414,-2.595164962005615,-1.0571896705627442
1759347139793342000,5.085342041015625,4.326172762298584,-2.73866742401123,-1.3060370056152344
1759347139803399000,5.09539892578125,4.502595497131347,-2.8983307472229,-1.6192285102844237
1759347139813456000,5.105455810546875,4.825363808441161,-3.117400199127197,-1.938255881500244
1759347139823513000,5.11551318359375,5.502324327850341,-3.473836971282959,-2.3108535148620604
1759347139833570000,5.125570068359375,5.904699844360351,-4.03482834777832,-2.899228572845459
1759347139843628000,5.1356279296875,5.849782843780517,-4.801721067047119,-3.616142332458496
1759347139853685000,5.14568505859375,5.027673848724365,-5.257517208099365,-4.527584976959228
1759347139863742000,5.155741943359375,8.393023557281493,-6.138882694244384,-6.474220564270019
1759347139873799000,5.165798828125,12.144438283538818,-8.071153071594237,-7.448361364746093
1759347139883857000,5.17585693359375,7.497292861175537,-10.321852269744872,-5.666776054382324
1759347139893914000,5.1859140625,2.5192986968994138,-13.323432963562011,-4.234295273590088
1759347139903971000,5.19597119140625,4.164264875030518,-14.864999557495116,-2.4347534507751463
1759347139914028000,5.206028076171875,10.268282007598877,-16.2928415725708,-1.7515081520080564
1759347139924085000,5.2160849609375,5.872228484344482,-18.899827905273437,-2.5980080764770506
1759347139934142700,5.226142822265625,5.203946945953369,-17.860894022369383,-2.195482922363281
1759347139944200000,5.236199951171875,2.8291981742858887,-15.390676459503172,-0.4408323806762695
1759347139954257000,5.2462568359375,2.1300912895202635,-12.43593233566284,0.8792705596923828
1759347139964313900,5.25631396484375,3.6342484825134274,-9.757419228363036,1.1189900009155274
1759347139974371800,5.266371826171875,3.838803086853027,-7.804349224090576,1.1818377944946288
1759347139984428800,5.2764287109375,3.468450017547607,-6.366182214355469,1.152359186553955
1759347139994485800,5.28648583984375,3.3623569564819333,-5.610213040161132,0.9642647186279296
1759347140004542700,5.296542724609375,3.4358290199279784,-5.300612837982177,0.7670423568725585
1759347140014601000,5.30660107421875,3.3735797767639157,-5.1882349975585935,0.8786720092773437
1759347140024658000,5.316657958984375,3.059490446472168,-5.435735594177245,1.034893667602539
1759347140034715000,5.32671484375,2.8381764305114743,-5.720645591735839,1.272368544769287
1759347140044771800,5.336771728515625,2.2937948280334473,-6.429778195953369,1.486948868560791
1759347140054828800,5.346828857421875,1.71739077835083,-7.650970680236816,1.4797662635803221
1759347140064887000,5.356886962890625,1.4309844047546385,-9.1424086769104,1.3814543579101561
1759347140074944000,5.366944091796875,1.1611878051757811,-10.47642791442871,1.1745055519104004
1759347140085001000,5.3770009765625,0.7498340324401855,-11.646893251037596,0.9311948081970214
1759347140095058000,5.387057861328125,0.4665700485229492,-12.383858449554443,0.4704606262207031
1759347140105116000,5.397115966796875,0.14694412689208983,-12.687922060394285,0.18749591751098632
1759347140115172900,5.4071728515625,-0.2962824554443359,-12.693309014129637,0.2075473564147949
1759347140125229800,5.417229736328125,-0.503680174255371,-12.377723307800292,0.36571430358886714
1759347140135287000,5.427287109375,-0.5479729049682617,-11.73488016204834,0.2524386375427246
1759347140145344000,5.437343994140625,-0.18644845428466797,-11.10191309814453,-0.04534019393920898
1759347140155402000,5.447402099609375,0.17911621170043945,-10.8149081741333,-0.46312838363647457
1759347140165459000,5.457458984375,0.6992565223693847,-10.774954933929443,-0.6347627151489258
1759347140175516000,5.467515869140625,1.3314753982543945,-10.644171668243407,-0.9715969612121581
1759347140185572900,5.47757275390625,1.873163523864746,-10.447547856903075,-1.0161889671325683
1759347140195629800,5.4876298828125,2.0816087059020996,-9.973346290588378,-0.6425438705444335
1759347140205688000,5.49768798828125,2.1794716987609863,-9.551667523193359,-0.2614168937683105
1759347140215745000,5.5077451171875,2.0771195777893063,-9.432705628204346,-0.22700024490356444
1759347140225802000,5.517802001953125,1.5411176811218261,-9.637559507751464,-0.617404753112793
1759347140235859000,5.52785888671875,1.103876602935791,-10.193463205718993,-0.979976667022705
1759347140245917000,5.5379169921875,0.44532150878906246,-11.024999369812011,-1.573140128326416
1759347140255974000,5.547973876953125,-0.12000935821533203,-11.639710646057129,-1.8662801940917968
1759347140266031000,5.558031005859375,-0.5961562133789062,-11.244517734527587,-1.717989328765869
1759347140276088000,5.568088134765625,-0.6691793640136718,-10.466551832580565,-1.1002853004455566
1759347140286145000,5.57814501953125,-0.5961562133789062,-9.782408708190918,-0.5681739814758301
1759347140296203000,5.588203125,-0.3667617668151855,-9.166350693511962,-0.10654197387695312
1759347140306260000,5.598260009765625,0.13781623306274413,-8.630648072052,-0.13033435287475587
1759347140316317000,5.60831689453125,0.6914753669738769,-8.33780728149414,-0.303913973236084
1759347140326374000,5.618373779296875,1.179293955230713,-8.270769635009765,-0.3580827857971191
1759347140336431900,5.628431884765625,1.5509937629699706,-8.14582223587036,-0.1833060646057129
1759347140346488800,5.63848876953125,1.569848101043701,-7.995735719299316,-0.09382277755737305
1759347140356546000,5.648546142578125,1.5346832641601562,-8.161683821868897,-0.10100538253784179
1759347140366603000,5.65860302734375,0.7658452560424804,-8.521711896514892,-0.9012672874450683
1759347140376660000,5.668659912109375,-0.19856910018920898,-9.121459412384032,-1.802983487701416
1759347140386718000,5.678718017578125,-0.3007715835571289,-9.425822298431395,-0.7655459808349608
1759347140396775000,5.68877490234375,0.3091512893676758,-9.549722234344483,1.0758943710327147
1759347140406831900,5.698831787109375,1.7223288192749022,-9.540893615722656,2.5650878036499023
1759347140416888800,5.708888916015625,2.5469816535949708,-9.265261149597167,3.6439749267578123
1759347140426946000,5.718946044921875,2.7822119667053222,-8.790461032867432,4.115034103393555
1759347140437003800,5.729003662109375,2.1452046874999997,-8.44569599380493,3.5275568710327145
1759347140447060700,5.739060791015625,1.0085574493408203,-8.448988021087645,2.992901712799072
1759347140457118000,5.749117919921875,1.0280103378295897,-8.57408505783081,3.21152225189209
1759347140467175000,5.7591748046875,1.5881038887023924,-9.178920252227783,2.953397385406494
1759347140477233000,5.76923291015625,2.0880431228637693,-9.56917512283325,2.245611519622803
1759347140487289900,5.779289794921875,1.8598457771301269,-9.810690215301513,1.1296142707824706
1759347140497346800,5.789346923828125,0.9546879119873046,-9.92755718383789,0.14993687896728514
1759347140507403800,5.79940380859375,0.20829554443359374,-9.919027840423583,-0.4177881896972656
1759347140517460700,5.809460693359375,-0.09202712631225586,-9.828497090148925,-0.5476736297607422
1759347140527519000,5.81951904296875,-0.17941548690795897,-9.818172095489501,-0.479438882446289
1759347140537576000,5.829575927734375,-0.31693244476318355,-9.858424610900878,-0.4230255058288574
1759347140547633000,5.8396328125,-0.3016694091796875,-9.971999552154541,-0.4531026641845703
1759347140557689900,5.84968994140625,-0.4326023124694824,-9.902866979217528,-0.6789058082580566
1759347140567746800,5.859746826171875,-0.7341220840454101,-9.76190835647583,-0.9135375709533691
1759347140577805000,5.86980517578125,-0.972943699645996,-9.540145427703857,-0.7767688011169434
1759347140587862000,5.879862060546875,-1.1139023223876952,-9.450662140655517,-0.48078562088012694
1759347140597919000,5.8899189453125,-1.2795511497497558,-9.821015209960937,-0.28446108474731446
1759347140607976000,5.899975830078125,-1.5978303329467773,-10.52745433731079,-0.18375497741699218
1759347140618034000,5.910033935546875,-2.214636535644531,-11.576862852478026,-0.013916297149658202
1759347140628091000,5.9200908203125,-2.3419781364440917,-12.799402075195312,0.053420624542236325
1759347140638147800,5.93014794921875,-1.8748095375061034,-13.268515962982177,0.7113771682739257
1759347140648205000,5.940205078125,-1.5676035369873047,-13.11319213027954,1.9195511810302732
1759347140658262000,5.950261962890625,-1.2761094848632812,-13.04346100692749,2.836081504058838
1759347140668320000,5.960320068359375,-0.6772597946166992,-13.299939859771728,3.219004132080078
1759347140678377000,5.970376953125,-0.07811082916259765,-14.170980351257324,3.1398458396911617
1759347140688434000,5.980433837890625,0.4147954376220703,-15.405939495086669,2.919728924560547
1759347140698491000,5.990490966796875,0.8066963218688964,-16.552163539886475,2.6020482917785643
1759347140708547600,6.000547607421875,1.2572551467895507,-17.04641654510498,2.355295883178711
1759347140718605600,6.01060546875,1.7802385719299316,-16.837372812652585,1.8595465019226074
1759347140728662500,6.02066259765625,2.2092495819091797,-16.067636978912354,0.9469067565917968
1759347140738719500,6.030719482421875,2.5377041221618653,-14.994735359954833,0.26051906814575193
1759347140748776700,6.040776611328125,2.6972178077697753,-13.761422229766845,0.012719196319580078
1759347140758834700,6.050834716796875,2.95609086227417,-12.38580373840332,0.1466448516845703
1759347140768891600,6.0608916015625,3.0992940490722654,-11.342380727386473,0.2032078659057617
1759347140778948600,6.070948486328125,3.1118636077880857,-10.577582934570312,0.1470937644958496
1759347140789005600,6.081005615234375,3.1606454666137695,-10.070161820220946,0.042048166656494135
1759347140799062500,6.0910625,3.1262288177490234,-9.911695597839355,-0.1566705711364746
1759347140809120800,6.101120849609375,3.0014310562133786,-9.954940865325927,-0.2855085479736328
1759347140819177700,6.111177734375,2.614168937683105,-10.215609571075438,-0.13078326568603516
1759347140829234700,6.121234619140625,2.484582772827148,-10.709862576293945,0.2699462371826172
1759347140839291600,6.131291748046875,2.0982184799194337,-11.4415904586792,1.177947216796875
1759347140849348600,6.1413486328125,1.3949217422485352,-12.07859773788452,2.003946789550781
1759347140859406600,6.151406494140625,0.5998971534729004,-12.41707799758911,2.52169289855957
1759347140869463600,6.161463623046875,0.009576806640625,-12.151770526123046,2.591573659515381
1759347140879520800,6.171520751953125,-0.03890577697753906,-11.431714376831055,2.8104934738159177
1759347140889577700,6.18157763671875,1.026513961791992,-11.076025792694091,3.5517981628417967
1759347140899634700,6.191634765625,1.6519991455078125,-10.947038178253173,4.101267443847656
1759347140909692400,6.2016923828125,1.9131167640686033,-10.9804073638916,4.403535403442382
1759347140919749400,6.211749267578125,1.942745009613037,-10.695198091125487,4.936245272827148
1759347140929806600,6.221806640625,-0.11566986770629882,-10.628010807037352,2.8260557846069334
1759347140939863600,6.231863525390625,0.20126257705688474,-10.747271977233886,1.6250643768310546
1759347140949921500,6.241921630859375,1.776647269439697,-10.787973405456542,1.9743185440063475
1759347140959978500,6.251978515625,1.6386813987731932,-10.529100350952147,1.529745223236084
1759347140970035500,6.262035400390625,0.6429927833557129,-10.338162768554687,0.5888239707946777
1759347140980092400,6.272092529296875,0.43574470214843747,-10.606462992095947,0.7300818687438965
1759347140990149400,6.2821494140625,0.27877485580444333,-11.017218214416504,0.4837783729553222
1759347141000207600,6.29220751953125,0.5777507881164551,-11.245714835357665,-0.370951619720459
1759347141010264600,6.3022646484375,0.8168716789245605,-11.362132891082762,-1.8516157089233398
1759347141020321500,6.312321533203125,1.558475643157959,-11.57506720123291,-2.542193250274658
1759347141030378500,6.32237841796875,2.379836450195312,-11.026495745849608,-1.6741455108642578
1759347141040435500,6.332435546875,1.6124948181152343,-9.674669633483886,-1.158793603515625
1759347141050493400,6.342493408203125,0.1427542739868164,-8.56151549911499,-1.2735656455993651
1759347141060550400,6.35255029296875,-0.1906383071899414,-7.436988906860351,-1.0084078117370605
1759347141070607600,6.362607666015625,0.1605611488342285,-6.331017377471923,-0.7417536018371581
1759347141080664600,6.37266455078125,0.6398503936767578,-5.775263317108154,-0.8794201972961425
1759347141090721500,6.382721435546875,1.2211924842834472,-5.6401405609130855,-0.9427169036865234
1759347141100779500,6.392779541015625,1.4700398193359374,-5.638644184875488,-0.6016928047180176
1759347141110836500,6.40283642578125,1.4312836799621582,-5.914875201416015,-0.5882254203796387
1759347141120893400,6.4128935546875,1.6367361099243163,-5.776310780334472,-0.3398269981384277
1759347141130950400,6.422950439453125,1.497872413635254,-5.295225884246826,-0.04713584518432617
1759347141141007600,6.433007568359375,1.352275025177002,-4.573673358917236,0.32231939849853514
1759347141151065600,6.443065673828125,1.2364555198669434,-4.060566015625,0.17806874847412107
1759347141161122600,6.45312255859375,1.6124948181152343,-3.7339071266174315,-0.30481179885864257
1759347141171179500,6.463179443359375,1.7884686401367187,-2.6786627449035643,0.02319382858276367
1759347141181236500,6.473236572265625,2.2221184158325196,-2.184559377288818,-0.004339490509033203
1759347141191293400,6.48329345703125,2.817975354003906,-1.8659809188842773,-0.02319382858276367
1759347141201351700,6.4933515625,3.2152631919860837,-1.4558242469787597,-0.047584757995605464
1759347141211408600,6.50340869140625,3.441664886474609,-1.5682020874023437,-0.10339958419799804
1759347141221465600,6.513465576171875,3.6885669326782224,-1.9017443061828612,-0.3238157745361328
1759347141231522600,6.5235224609375,3.981856636047363,-2.3350948066711426,-0.6401496688842773
1759347141241579500,6.53357958984375,4.1374797439575195,-2.8088474601745603,-1.0694599540710448
1759347141251637500,6.543637451171875,4.273350688171386,-3.4763808105468748,-1.4636054023742675
1759347141261694700,6.55369482421875,4.444087194061279,-4.0985739669799806,-1.77485161819458
1759347141271751700,6.563751708984375,4.564994377899169,-4.44378791885376,-1.9690812278747558
1759347141281808600,6.57380859375,4.615272612762451,-4.722113861846924,-2.2533926750183104
1759347141291866600,6.58386669921875,4.656871866607665,-4.878185882568359,-2.407968319702148
1759347141301923600,6.593923583984375,4.920234049224853,-4.9622822158813475,-2.7551275604248047
1759347141311980500,6.60398046875,5.704185455322265,-4.932055419921875,-3.1639374938964844
1759347141322037500,6.61403759765625,6.823325093841552,-5.306897617340088,-4.307468061828613
1759347141332094700,6.6240947265625,9.581295768737792,-6.608445494842529,-6.201730487823486
1759347141342152700,6.634152587890625,11.041309868621825,-9.074024291992187,-7.799860095977783
1759347141352209700,6.644209716796875,7.151480358886718,-12.191873403930664,-8.47801771621704
1759347141362266600,6.6542666015625,3.4620156005859375,-13.541155677032469,-5.92445200805664
1759347141372323600,6.664323486328125,3.349338484954834,-12.708123136901854,-4.302081108093262
1759347141382380500,6.674380615234375,5.568164873504639,-12.454038485717772,-3.240701584625244
1759347141392438500,6.6844384765625,4.409670545196533,-13.98752464904785,-2.220921315002441
1759347141402495700,6.694495849609375,3.9769185951232906,-14.142698844146727,-2.0690391471862792
1759347141412552700,6.704552734375,5.499331575775146,-13.109301552581787,-1.835604485321045
1759347141422609700,6.714609619140625,4.320037620544434,-11.757475440216064,-1.045667575073242
1759347141432666600,6.72466650390625,4.393509683990478,-10.38065984802246,-0.4607341819763183
1759347141442724400,6.734724365234375,3.6891654830932614,-9.194033650207519,-0.09711480484008789
1759347141452781300,6.74478125,2.8688521392822266,-8.583063314056396,0.3833715408325195
1759347141462838500,6.754838623046875,2.4944588546752926,-8.052897283935547,0.816572403717041
1759347141472895700,6.764895751953125,2.6677391998291013,-7.6385507591247555,0.9739911628723144
1759347141482952700,6.77495263671875,2.7883471084594724,-7.546972545623779,1.02786070022583
1759347141493010400,6.785010498046875,2.553116795349121,-7.608024687957763,1.3634978454589843
1759347141503067400,6.7950673828125,2.2049100914001465,-7.899668377685546,1.5346832641601562
1759347141513124400,6.805124267578125,1.933916390991211,-8.361001110076904,1.4960767623901365
1759347141523181300,6.815181396484375,1.3064859184265136,-8.939200811004637,1.546205359649658
1759347141533238500,6.825238525390625,0.7038952880859375,-9.526378768157958,1.534084713745117
1759347141543296500,6.835296630859375,0.3194762840270996,-10.228628042602539,1.260247898864746
1759347141553353500,6.845353515625,0.18121113815307616,-10.92923130340576,1.3061866432189941
1759347141563410400,6.855410400390625,0.04369418029785156,-11.54903025817871,1.4163199195861815
1759347141573467400,6.86546728515625,-0.037409400939941405,-11.770344274139404,1.3748703033447265
1759347141583524400,6.8755244140625,0.028880057525634766,-11.745803707122802,1.203984159851074
1759347141593582600,6.88558251953125,0.08693944778442382,-11.49186869354248,0.8111854499816894
1759347141603639600,6.8956396484375,0.42332478103637694,-11.082160934448241,0.654365241241455
1759347141613696500,6.905696533203125,0.7977180656433105,-10.52820252532959,0.8994716361999511
1759347141623753500,6.91575341796875,1.1137526847839354,-10.130166499328613,1.1023802268981933
1759347141633810400,6.925810546875,1.3637971206665038,-10.009259315490722,1.1329062980651854
1759347141643868400,6.935868408203125,1.4006079711914061,-10.201244361114501,0.8761281700134277
1759347141653925600,6.945925537109375,1.4270938270568847,-10.501267756652831,0.5787982513427734
1759347141663982600,6.955982666015625,1.5089455963134766,-10.628010807037352,0.36376901473999024
1759347141674039600,6.96603955078125,1.542464419555664,-10.832715048980713,0.14155717315673827
1759347141684096500,6.976096435546875,1.3293804718017577,-10.796652386474609,-0.37663784866333005
1759347141694154500,6.986154541015625,0.941070890045166,-10.39936454849243,-0.967257470703125
1759347141704211500,6.99621142578125,0.38411972885131834,-10.251522595977782,-1.2482768905639647
1759347141714268400,7.006268310546875,-0.004489128112792969,-9.965415497589111,-1.0339958419799804
1759347141724325400,7.016325439453125,-0.27667992935180663,-9.623493572998047,-1.0015244819641114
1759347141734382300,7.02638232421875,-0.870142665863037,-9.468917928314209,-1.2764087600708007
1759347141744440300,7.0364404296875,-1.0814309623718261,-9.292644831085205,-1.1941080780029296
1759347141754497500,7.04649755859375,-1.1067197174072265,-9.213336901092529,-1.045667575073242
1759347141764554500,7.056554443359375,-0.8699930282592773,-9.171588009643553,-1.275510934448242
1759347141774611500,7.066611572265625,-0.6979097839355468,-9.185354669189453,-1.4009072463989256
1759347141784668400,7.07666845703125,-0.5225345123291015,-9.09138225402832,-1.5155296508789062
1759347141794725400,7.086725341796875,0.2593219673156738,-8.74676685256958,-1.364994221496582
1759347141804783400,7.096783447265625,0.7257423782348632,-8.398260873413085,-1.3019967903137206
1759347141814840300,7.10684033203125,0.7894879974365234,-8.131457025909423,-1.628655679321289
1759347141824897500,7.1168974609375,0.4556465034484863,-8.200888874053955,-1.4335282440185546
1759347141834954500,7.12695458984375,0.020051438903808592,-8.415918110656738,-1.0404302589416503
1759347141845011500,7.137011474609375,1.1882722114562987,-8.684667247009276,-0.0032920272827148436
1759347141855069400,7.1470693359375,2.87289235458374,-9.216030377960205,1.6621745025634764
1759347141865126400,7.15712646484375,3.6112042915344236,-9.600299744415283,2.9562404998779295
1759347141875183400,7.167183349609375,3.3915362892150878,-9.60149684524536,2.973149549102783
1759347141885240300,7.177240234375,2.69422505569458,-9.420136069488525,3.8832454551696776
1759347141895297500,7.187297607421875,1.2636895637512207,-9.073575379180907,4.1946413085937495
1759347141905355500,7.19735546875,0.8013093681335449,-9.189843797302245,2.707991715240478
1759347141915412500,7.20741259765625,0.8152256652832031,-9.687837742614745,0.6046855567932129
1759347141925469400,7.217469482421875,1.126172605895996,-9.903016616821288,-0.3555389465332031
1759347141935526400,7.2275263671875,1.2280758140563963,-9.760860893249511,-0.49410336761474605
1759347141945583400,7.237583251953125,0.7893383598327637,-9.432107077789306,-0.24705168380737302
1759347141955641600,7.2476416015625,0.26171616897583005,-9.374646237945557,-0.1710357810974121
1759347141965698600,7.257698486328125,0.015113397979736327,-9.612270752716064,-0.3983353012084961
1759347141975755500,7.267755615234375,-0.014814122772216796,-9.706692080688477,-0.3066074501037597
1759347141985812500,7.2778125,-0.038756139373779294,-9.961375282287596,-0.421978042602539
1759347141995869400,7.287869384765625,-0.08155249404907226,-10.281599754333495,-0.6766612442016601
1759347142005927400,7.297927490234375,-0.17208324432373046,-10.395922883605957,-0.8563760063171386
1759347142015984600,7.307984619140625,-0.37978023834228514,-10.115053101348876,-0.7044938385009765
1759347142026041600,7.31804150390625,-0.6507739387512207,-9.494356320953369,-0.14335282440185546
1759347142036098600,7.3280986328125,-0.8150760276794433,-8.908974015045166,0.2856581855773926
1759347142046155500,7.338155517578125,-0.7164648468017578,-8.929624004364014,0.14454992523193358
1759347142056213500,7.348213623046875,-0.520289948272705,-9.21213980026245,0.10519523544311522
1759347142066270500,7.3582705078125,-0.7802104660034179,-9.336039736175536,0.8164227661132812
1759347142076327400,7.368327392578125,-0.9521440727233886,-10.091859272766113,0.9566332008361815
1759347142086384600,7.378384521484375,-1.150563535308838,-10.977115336608886,1.0760440086364746
1759347142096441600,7.388441650390625,-1.6952444129943847,-12.309488560485839,1.1263222434997557
1759347142106498600,7.39849853515625,-2.2399252906799316,-13.984831172180176,1.0667664772033691
1759347142116556300,7.408556396484375,-2.4224831672668454,-14.884153170776367,1.5363292778015136
1759347142126613500,7.418613525390625,-2.20236625213623,-14.993388621520996,2.0452467681884765
1759347142136670500,7.42867041015625,-1.623568000793457,-15.23969211730957,1.8959084396362305
1759347142146727400,7.4387275390625,-1.1059715293884276,-15.451878239440918,1.6326958946228027
1759347142156784600,7.44878466796875,-0.5315127685546874,-15.069404524230956,1.7699135772705077
1759347142166842400,7.45884228515625,-0.2629132698059082,-14.525771109771728,1.8924667747497557
1759347142176899300,7.4688994140625,-0.3708019821166992,-14.430601593780517,1.9490297889709471
1759347142186956300,7.478956298828125,-0.3268085266113281,-14.305354919433594,2.370409281158447
1759347142197013500,7.489013427734375,-0.012719196319580078,-13.967922122955322,2.934842322540283
1759347142207070500,7.499070556640625,0.3865139305114746,-13.173944997406005,3.574393441009521
1759347142217128400,7.50912841796875,0.670975015258789,-12.378471495819092,3.8423943893432613
1759347142227185400,7.519185302734375,0.7077858657836914,-11.612476602172851,3.6174890708923337
1759347142237242400,7.529242431640625,0.6383540176391601,-10.68143143157959,3.275866421508789
1759347142247299300,7.53929931640625,0.5018845230102539,-9.757119953155517,2.7009587478637695
1759347142257356300,7.549356201171875,0.40776247024536133,-9.166649968719481,1.7504606887817382
1759347142267414300,7.559414306640625,0.6494272003173828,-8.792256684112548,0.9578303016662597
1759347142277471500,7.569471435546875,0.9304466201782225,-8.761431337738037,0.23478140029907224
1759347142287528400,7.579528564453125,0.8346785537719726,-9.03377177658081,-0.4756979423522949
1759347142297585400,7.58958544921875,0.9389759635925292,-9.54478419342041,-0.9651625442504882
1759347142307642400,7.599642333984375,1.1709142494201659,-10.027215827941895,-1.1148001480102538
1759347142317699300,7.60969921875,1.2388497215270995,-10.51383731536865,-1.1981482933044434
1759347142327757300,7.61975732421875,1.3563152404785155,-10.91696101989746,-1.1731588134765625
1759347142337814300,7.629814208984375,1.7102081733703611,-11.0953290435791,-0.8631096984863281
1759347142347871500,7.63987158203125,1.9615993476867675,-11.0577700050354,-0.4396352798461914
1759347142357928400,7.649928466796875,2.1212626708984375,-11.06450369720459,-0.24316110610961914
1759347142367985400,7.6599853515625,2.2138883476257325,-11.087697525787354,0.18824410552978516
1759347142378043400,7.67004345703125,2.113930428314209,-11.016470026397704,0.9403227020263671
1759347142388100400,7.680100341796875,1.7194857048034666,-10.901697984313964,1.9844939010620115
1759347142398157300,7.6901572265625,0.8456020988464354,-10.491092399597168,3.1989526931762695
1759347142408214300,7.70021435546875,-0.239420166015625,-9.820566297149657,4.239532589721679
1759347142418271500,7.710271484375,-0.5958569381713866,-9.258677095031738,5.006874221801757
1759347142428329500,7.72032958984375,-0.289848038482666,-8.860790706634521,5.380220043182373
1759347142438386400,7.730386474609375,0.1427542739868164,-8.307730123138427,5.3856069969177245
1759347142448443400,7.740443359375,0.08723872299194335,-7.517643575286865,5.194070864105225
1759347142458500400,7.750500244140625,-0.04234744186401367,-6.927772141265868,4.94118331375122
1759347142468557300,7.760557373046875,-0.2501940734863281,-6.642113955688476,4.735431608581543
1759347142478614300,7.7706142578125,-1.1363479629516602,-6.722020436096191,4.3902176567077635
1759347142488672500,7.780672607421875,-0.6670844375610351,-6.752696144866943,4.658068967437744
1759347142498729500,7.7907294921875,-0.5089174903869629,-6.22477467880249,4.849305825042724
1759347142508786400,7.800786376953125,-0.6772597946166992,-5.999719722747803,3.921103768920898
1759347142518843400,7.810843505859375,-0.21966800231933592,-6.258592777252197,2.636016027832031
1759347142528900400,7.820900390625,0.7205050621032715,-6.549937191772461,1.22583125
1759347142538958600,7.83095849609375,1.0902595809936524,-6.817189952087402,-0.1562216583251953
1759347142549015600,7.841015625,1.3148656242370604,-6.888118176269531,-1.5988777961730956
1759347142559072500,7.851072509765625,1.188122573852539,-6.948122855377197,-2.4097639709472656
1759347142569129500,7.86112939453125,0.5141548065185546,-6.794594673919677,-1.8537106353759765
1759347142579186400,7.8711865234375,-0.013916297149658202,-6.503399897003173,-0.34267011260986324
1759347142589244400,7.881244384765625,0.28221652069091796,-6.125265672302246,0.49200844116210934
1759347142599301400,7.89130126953125,0.36840778045654293,-6.2593409652709955,0.6138134506225585
1759347142609358600,7.901358642578125,0.31528643112182614,-6.58270782699585,0.8756792572021483
1759347142619415600,7.91141552734375,0.31648353195190426,-6.808510971069335,1.1254244178771973
1759347142629472500,7.921472412109375,0.35613749694824215,-6.947973217773437,1.3165116378784179
1759347142639529500,7.931529541015625,0.46402620925903315,-7.123797402191162,1.4145242683410644
1759347142649587500,7.94158740234375,0.4257189826965332,-7.314884622192382,1.356015965270996
1759347142659644400,7.95164453125,0.25692776565551756,-7.46317548751831,1.4740800346374512
1759347142669701400,7.961701416015625,0.19078794479370115,-7.726836945343017,1.3570634284973144
1759347142679758600,7.971758544921875,0.5367500846862793,-7.91014300994873,1.2758102096557618
1759347142689815600,7.981815673828125,0.8113350875854491,-8.108712110137938,1.1665747589111328
1759347142699873500,7.99187353515625,1.1486182464599608,-8.387786241149902,0.943614729309082
1759347142709930800,8.0019306640625,1.6325462570190428,-8.655487914276122,0.7068880401611328
1759347142719987700,8.01198779296875,2.1538836685180662,-9.14255831451416,0.4713584518432617
1759347142730044700,8.022044677734375,2.63676421585083,-9.789591313171385,0.42182840499877927
1759347142740101600,8.0321015625,2.9415760147094723,-10.15111576385498,0.5874772323608398
1759347142750158600,8.04215869140625,3.3131261848449705,-10.52206738357544,0.7273883918762206
1759347142760216600,8.052216552734375,3.7199908294677733,-10.39382795715332,0.8415618835449218
1759347142770273500,8.0622734375,4.061763116455078,-9.724947868347167,1.025316860961914
1759347142780330800,8.072330810546875,4.395903885650634,-8.92528451385498,1.2062287239074707
1759347142790387700,8.0823876953125,4.678419681549072,-8.226327266693115,1.5634136840820312
1759347142800444700,8.092444580078125,4.738573998260498,-7.803451398468017,2.048239520263672
1759347142810502700,8.102502685546876,4.178480447387695,-7.553257324981689,2.710086641693115
1759347142820559600,8.1125595703125,3.0611364601135254,-7.481580912780761,3.272574394226074
1759347142830616600,8.122616455078125,1.9541174674987791,-7.470208454895019,3.5453637458801266
1759347142840673500,8.132673583984374,0.8577227447509765,-7.6562079963684075,3.597138356781006
1759347142850730800,8.142730712890625,-0.016759411621093748,-8.141482745361328,3.5425206314086912
1759347142860787700,8.15278759765625,-0.5467758041381836,-8.947430879211426,3.6547488342285153
1759347142870845400,8.162845458984375,-0.9093477180480957,-10.225036740112303,3.883694367980957
1759347142880902700,8.172902587890626,-1.1513117233276366,-11.605293997192382,3.8914755233764646
1759347142890959600,8.182959716796875,-1.055394019317627,-12.456582324981689,3.4391210472106932
1759347142901016600,8.1930166015625,-0.5991489654541016,-13.037325865173338,2.9625252792358396
1759347142911073500,8.203073486328124,0.6947673942565917,-13.907468531036375,2.796876451873779
1759347142921130800,8.213130859375,3.5972879943847653,-14.674361250305175,2.675819630432129
1759347142931188500,8.2231884765625,6.760327662658691,-14.17232708969116,1.9027917694091796
1759347142941245400,8.233245361328125,6.944830828094482,-12.081590489959716,1.0624269866943359
1759347142951302700,8.243302734375,5.334580574035644,-10.236409197998046,0.8007108177185058
1759347142961359600,8.253359619140625,3.4204163467407223,-9.098265583801268,0.7119757186889648
1759347142971416600,8.26341650390625,1.0516530792236327,-7.493701558685302,0.4975450325012207
1759347142981474600,8.273474609375,-1.446696353149414,-6.561459287261963,-0.2570774032592773
1759347142991531500,8.283531494140625,-2.0020015007019043,-8.343044597625733,-0.3184288208007812
1759347143001588500,8.29358837890625,-1.865382368469238,-9.859771349334716,0.20470424194335937
1759347143011645400,8.3036455078125,-2.0624550926208496,-9.502736026763916,1.1192892761230469
1759347143021702400,8.313702392578126,-2.1224597717285154,-8.343643148040771,1.922244657897949
1759347143031759600,8.323759521484375,-1.5869067878723144,-8.205527639770507,1.898003366088867
1759347143041817600,8.333817626953126,-1.2370540702819823,-8.82383021850586,1.5830162101745604
1759347143051874600,8.34387451171875,-1.0205284576416016,-9.617358431243895,1.58331548538208
1759347143061931500,8.353931640625,-0.5217863243103027,-10.15769981842041,1.9074305351257324
1759347143071988500,8.363988525390624,1.0735001693725585,-10.701033957672118,2.2487539093017577
1759347143082045400,8.37404541015625,3.8886324089050293,-11.009736334228515,2.5489269424438477
1759347143092102400,8.384102294921876,5.850979944610596,-10.80907230758667,2.7521348083496093
1759347143102160400,8.394160400390625,6.346280413055419,-10.311377637481689,3.0080151107788082
1759347143112217600,8.404217529296876,5.548562347412109,-9.903914442443847,2.9786861404418943
1759347143122274600,8.414274658203125,4.121917433166503,-9.478644372558593,2.769642407989502
1759347143132331500,8.42433154296875,2.524236737823486,-9.10978767929077,2.535309920501709
1759347143142388500,8.434388427734374,1.0634744499206543,-8.964040653228759,2.523638187408447
1759347143152446500,8.444446533203125,-0.10429740982055663,-9.00189896697998,2.4916157402038572
1759347143162503400,8.45450341796875,-1.0289081634521484,-9.086593850708008,2.3171382942199705
1759347143172560400,8.464560302734375,-1.5316905120849609,-9.172186560058593,2.085200008392334
1759347143182617600,8.47461767578125,-1.4113818786621093,-9.125499627685546,1.7504606887817382
1759347143192674600,8.484674560546875,-1.1278186195373534,-9.17443112411499,1.3967173934936523
1759347143202731500,8.4947314453125,-0.7942764007568359,-9.191938723754882,1.1013327636718748
1759347143212789500,8.50478955078125,-0.5422866760253906,-9.222315157318114,0.7944260383605957
1759347143222846500,8.514846435546875,-0.1322796417236328,-9.361178853607177,0.5125087928771972
1759347143232903400,8.5249033203125,0.5572504364013672,-9.393949488830566,0.35449148330688474
1759347143242960400,8.53496044921875,1.2342109558105467,-9.108740216064453,0.4400841926574707
1759347143253017600,8.545017578125,1.6678607315063476,-9.561842880249023,0.8830114997863769
1759347143263074600,8.555074462890625,2.0355203239440915,-9.905261180877686,1.4252981758117675
1759347143273132500,8.565132568359376,2.1850082901000976,-10.082282466125488,1.9226935707092283
1759347143283189500,8.575189453125,2.1535843933105467,-9.855132583618163,2.403628829193115
1759347143293246500,8.58524658203125,1.9084779983520506,-9.477596909332275,2.5583541114807127
1759347143303303400,8.595303466796874,1.4809633644104003,-8.933664219665527,2.610727272796631
1759347143313360400,8.6053603515625,1.107767180633545,-8.39496884613037,2.657114929962158
1759347143323417600,8.61541748046875,0.7215525253295898,-8.283488831329345,2.6843489738464354
1759347143333475600,8.6254755859375,0.42317514343261714,-8.442553604125976,2.8947394447326658
1759347143343532500,8.635532470703126,0.26051906814575193,-9.02135185546875,3.157054164123535
1759347143353589500,8.645589599609375,0.28446108474731446,-9.885060104370117,3.125779904937744
1759347143363646500,8.655646484375,0.4875193130493164,-10.698789393615723,2.79627790145874
1759347143373703400,8.665703369140624,0.7914332862854003,-11.177629725646971,2.379836450195312
1759347143383760400,8.675760498046875,1.0500070655822753,-11.260678595733642,2.1166239051818847
1759347143393818600,8.685818603515624,1.2964601989746094,-11.17224277191162,1.9888333915710448
1759347143403875600,8.69587548828125,1.3682862487792968,-10.896161392974854,2.1429601234436033
1759347143413932500,8.7059326171875,1.3875894996643066,-10.402806213378906,2.577208449554443
1759347143423989500,8.715989501953125,1.1887211242675781,-9.747243871307372,3.046322337341308
1759347143434046500,8.72604638671875,0.977432827758789,-9.028235185241698,3.5324949119567868
1759347143444103400,8.736103515625,0.6521206771850585,-8.609249894714354,3.974674031066894
1759347143454161700,8.74616162109375,0.36391865234375,-8.470236560821533,4.088697885131836
1759347143464218600,8.756218505859374,0.15023615417480468,-8.525901749420166,4.003554088592529
1759347143474275600,8.766275634765625,0.0713771369934082,-8.717587519836425,3.937863180541992
1759347143484332500,8.77633251953125,0.13736732025146484,-8.79165813369751,4.005649015045166
1759347143494389500,8.786389404296875,0.28865093765258787,-8.903287786102295,4.122216708374023
1759347143504446500,8.796446533203126,0.6561608924865723,-9.190442347717285,4.298938718414306
1759347143514504700,8.806504638671875,0.8922890312194823,-9.018808016204833,4.450820886230469
1759347143524561700,8.816561767578126,1.1463736824035644,-8.738836059570312,4.491971227264404
1759347143534618600,8.82661865234375,1.4477438163757324,-8.960299713134765,4.406677793121338
1759347143544675600,8.836675537109375,1.6320973442077635,-9.152733671569823,4.456956027984619
1759347143554732500,8.846732666015624,1.8641852676391601,-9.235034353637694,4.51381831741333
1759347143564790500,8.85679052734375,1.824680940246582,-9.024344607543945,4.204218115234375
1759347143574847500,8.866847412109376,1.530942324066162,-8.941894287872314,3.7454292221069334
1759347143584904700,8.87690478515625,1.193359889984131,-9.002946430206299,3.5591304054260253
1759347143594961700,8.886961669921876,0.9264064048767089,-9.108291303253173,3.3821091201782223
1759347143605018600,8.8970185546875,0.87463179397583,-9.144802878570555,3.030760026550293
1759347143615075600,8.90707568359375,0.5265747276306152,-9.16814634475708,2.713977219390869
1759347143625133600,8.917133544921874,0.013916297149658202,-9.131784407043456,2.6005519157409664
1759347143635190500,8.9271904296875,0.21173720932006834,-8.992471797943114,2.516605220031738
1759347143645247500,8.93724755859375,0.49425300521850585,-8.863783458709717,2.59830735168457
1759347143655304700,8.9473046875,0.8553285430908203,-8.794351610565185,2.699761647033691
1759347143665361700,8.957361572265626,1.2767080352783202,-8.748861779022215,2.7768250129699705
1759347143675418600,8.967418701171875,1.5538368774414062,-8.727463601684569,2.7670985687255856
1759347143685475600,8.9774755859375,1.753752716064453,-8.864531646728516,2.787299645233154
1759347143695533600,8.987533447265625,1.7969979835510252,-9.125499627685546,2.99424845123291
1759347143705590000,8.997590087890625,1.8647838180541991,-9.275586144256591,3.2062849357604977
1759347143715647000,9.00764697265625,1.992574331665039,-9.371354210662842,3.1007904251098632
1759347143725704000,9.017703857421875,1.9327192901611328,-9.398288979339599,2.9798832412719727
1759347143735761200,9.02776123046875,1.8017863868713377,-9.426420848846435,2.96222600402832
1759347143745818000,9.037818115234375,1.7471686614990234,-9.454403080749511,3.0205846694946286
1759347143755876000,9.0478759765625,1.716792227935791,-9.42312882156372,3.085377751922607
1759347143765933000,9.05793310546875,1.6391303115844726,-9.35264951019287,3.1938650146484373
1759347143775990000,9.067989990234375,1.5587749183654784,-9.292794468688964,3.296217135620117
1759347143786047000,9.078046875,1.497872413635254,-9.241319132995605,3.413682654571533
1759347143796104000,9.08810400390625,1.4260463638305663,-9.18131445388794,3.5058594184875487
1759347143806161200,9.0981611328125,1.30873048248291,-9.11741919708252,3.580229307556152
1759347143816219100,9.10821923828125,1.2069769119262694,-9.015515988922118,3.606565525817871
1759347143826276000,9.118276123046876,1.1661258460998534,-8.935310233306884,3.662829264831543
1759347143836333000,9.1283330078125,1.1686696853637695,-8.906280538177489,3.7083190963745114
1759347143846390000,9.13839013671875,1.201589958190918,-8.890269314575194,3.7681741378784177
1759347143856447000,9.148447021484374,1.2720692695617675,-8.897302281951903,3.8295255554199215
1759347143866504000,9.15850390625,1.3492822731018066,-8.955062397003173,3.810222304534912
1759347143876562200,9.168562255859374,1.4514847564697264,-8.993668898773192,3.680037589263916
1759347143886619100,9.178619140625,1.548898836517334,-8.997858751678466,3.5488054107666014
1759347143896676000,9.188676025390626,1.64077632522583,-9.015515988922118,3.4472014778137203
1759347143906733000,9.198733154296875,1.7440262718200683,-9.045742784881591,3.369090648651123
1759347143916790000,9.2087900390625,1.8309657196044922,-9.061005820465088,3.261052298736572
1759347143926847000,9.218846923828124,1.8535609977722167,-9.098714496612548,3.193565739440918
1759347143936904000,9.228904052734375,1.8230349266052246,-9.163357941436766,3.1747114013671873
1759347143946962200,9.238962158203124,1.7763479942321776,-9.22545754699707,3.1950621154785153
1759347143957019100,9.24901904296875,1.706467233276367,-9.23862565612793,3.186832047271728
1759347143967076000,9.259076171875,1.57688106842041,-9.20076734237671,3.1503204719543456
1759347143977133000,9.269133056640625,1.4419079498291014,-9.161711927795409,3.086275577545166
1759347143987190000,9.27918994140625,1.3545195892333983,-9.15437968521118,3.0442274108886718
1759347143997247000,9.2892470703125,1.3468880714416502,-9.126696728515624,3.0343513290405273
1759347144007305200,9.29930517578125,1.390582251739502,-9.10993731689453,3.067720514678955
1759347144017362200,9.309362060546874,1.422455061340332,-9.082104722595215,3.1592987281799316
1759347144027419100,9.319419189453125,1.44924019241333,-9.10440072555542,3.263446500396728
1759347144037476000,9.32947607421875,1.5230115310668944,-9.163806854248046,3.348440659332275
1759347144047533000,9.339532958984375,1.5544354278564452,-9.178920252227783,3.362057681274414
1759347144057590000,9.349590087890626,1.5758336051940918,-9.138069186401367,3.323002266693115
1759347144067648300,9.359648193359375,1.5560814414978026,-9.080159433746337,3.171868286895752
1759347144077705200,9.369705322265625,1.5732897659301757,-9.079860158538818,3.0698154411315914
1759347144087762200,9.37976220703125,1.579424907684326,-9.137320998382569,3.020285394287109
1759347144097819100,9.389819091796875,1.6080056900024413,-9.217826029205321,3.008164748382568
1759347144107876000,9.3998759765625,1.6229694503784178,-9.203909732055664,3.001879969024658
1759347144117933000,9.40993310546875,1.6006734474182127,-9.152733671569823,3.0303111137390135
1759347144127990000,9.419989990234376,1.590348452758789,-9.101407973480224,3.0602386344909664
1759347144138048300,9.43004833984375,1.5701473762512206,-9.093926093292236,3.085976302337646
1759347144148105200,9.440105224609376,1.5361796401977539,-9.098265583801268,3.1153052726745605
1759347144158162200,9.450162109375,1.528398484802246,-9.134328246307373,3.174262488555908
1759347144168219100,9.46021923828125,1.493383285522461,-9.16096373977661,3.1989526931762695
1759347144178276000,9.470276123046874,1.4698901817321777,-9.113977532196044,3.1937153770446773
1759347144188333000,9.4803330078125,1.4757260482788086,-9.112930068969726,3.1893758865356445
1759347144198391000,9.49039111328125,1.486948868560791,-9.08584566268921,3.2065842109680176
1759347144208448300,9.5004482421875,1.6347908210754394,-9.137021723175048,3.26224939956665
1759347144218505200,9.510505126953126,1.6977882522583008,-9.163507579040527,3.2905309066772457
1759347144228562200,9.520562255859375,1.6147393821716307,-9.148992731475829,3.3414076919555664
1759347144238619100,9.530619140625,1.5508441253662109,-9.120561586761474,3.395875779724121
1759347144248676000,9.540676025390624,1.5447089836120604,-9.107842390441894,3.384353684234619
1759347144258733000,9.550733154296875,1.6494553062438964,-9.127295278930664,3.349937035369873
1759347144268791000,9.560791015625,1.8173486976623534,-9.151686208343506,3.3054946670532224
