time,seconds_elapsed,z,y,x
1759347134757162800,0.049162841796875,-0.004613693803548813,0.11207392066717148,0.04757509008049965
1759347134767220700,0.059220703125,0.0017539933323860168,0.07096657156944275,0.0027473075315356255
1759347134777277700,0.069277587890625,0.004701313562691212,0.03573934733867645,-0.030306784436106682
1759347134787334700,0.079334716796875,0.005795623641461134,0.015918370336294174,-0.05214894190430641
1759347134797392600,0.089392578125,0.00909900851547718,0.011670893989503384,-0.05682971328496933
1759347134807449900,0.099449951171875,0.01494732778519392,0.0171331986784935,-0.043382905423641205
1759347134817506800,0.1095068359375,0.015978235751390457,0.03044207952916622,-0.02234552800655365
1759347134827563800,0.119563720703125,0.017614055424928665,0.0397539958357811,-0.000015311408787965775
1759347134837621800,0.129621826171875,0.016467832028865814,0.04308827221393585,0.017018266022205353
1759347134847678700,0.1396787109375,0.011660506948828697,0.036412306129932404,0.02221069298684597
1759347134857735700,0.149735595703125,0.008210914209485054,0.025758862495422363,0.019543005153536797
1759347134867794000,0.1597939453125,0.008511388674378395,0.014959593303501606,0.007754173595458269
1759347134877851000,0.169850830078125,0.00656994478777051,0.011019179597496986,-0.007674849592149258
1759347134887907800,0.179907958984375,0.004895155318081379,0.011999605223536491,-0.024011295288801193
1759347134897964800,0.18996484375,0.009125053882598877,0.011520235799252987,-0.03198293223977089
1759347134908022500,0.2000224609375,0.010960008949041367,0.008011373691260815,-0.03683089092373848
1759347134918079500,0.21007958984375,0.010657738894224167,0.009462529793381691,-0.03189126029610634
1759347134928136700,0.22013671875,0.010158484801650047,0.011551964096724987,-0.019877370446920395
1759347134938194700,0.230194580078125,0.012212846428155899,0.01797790452837944,-0.007153320591896772
1759347134948251600,0.240251708984375,0.00818695593625307,0.029322152957320213,0.00398778822273016
1759347134958308600,0.25030859375,0.0064220791682600975,0.04139452427625656,0.010591361671686172
1759347134968366600,0.26036669921875,0.004539990331977606,0.04936371371150017,0.009216412901878357
1759347134978423800,0.270423828125,0.008905177935957909,0.04416069760918617,0.0010378449223935604
1759347134988480800,0.280480712890625,0.014143215492367744,0.03386354073882103,-0.008491640910506248
1759347134998537700,0.290537841796875,0.01289221178740263,0.016911927610635757,-0.022902129217982292
1759347135008595700,0.300595703125,0.010594704188406467,0.0031998436897993088,-0.03691328316926956
1759347135018652700,0.310652587890625,0.010563675314188004,-0.0008407222339883447,-0.04602416604757309
1759347135028709600,0.320709716796875,0.011674480512738228,0.0025604008696973324,-0.0513257198035717
1759347135038767900,0.330767822265625,0.012796026654541492,0.016133980825543404,-0.044154953211545944
1759347135048824800,0.340824951171875,0.016136962920427322,0.02996137924492359,-0.03437502682209015
1759347135058881800,0.3508818359375,0.019881224259734154,0.04033073037862778,-0.017124012112617493
1759347135068939800,0.360939697265625,0.025768941268324852,0.04183488339185715,-0.002047324553132057
1759347135078996700,0.370996826171875,0.038410838693380356,0.03120116889476776,0.01274088118225336
1759347135089053700,0.3810537109375,0.04963766038417816,0.005224430002272129,0.021029969677329063
1759347135099111000,0.39111083984375,0.05215824395418167,-0.01945454254746437,0.02424020692706108
1759347135109168600,0.401168701171875,0.05237555503845215,-0.03847350552678108,0.020783158019185066
1759347135119225900,0.411225830078125,0.05337078124284744,-0.03683379665017128,0.00985514186322689
1759347135129282800,0.42128271484375,0.04946582019329071,-0.02063586562871933,-0.00016637472435832024
1759347135139340500,0.431340576171875,0.05031856521964073,0.0015714368782937527,-0.010353232733905315
1759347135149397500,0.4413974609375,0.048797015100717545,0.007291900925338268,-0.017233671620488167
1759347135159454700,0.451454833984375,0.04791524261236191,-0.0074436357244849205,-0.018068306148052216
1759347135169512700,0.4615126953125,0.0519818477332592,-0.03680901601910591,-0.00943300686776638
1759347135179569700,0.471569580078125,0.05818727985024452,-0.06280839443206787,-0.0029961462132632732
1759347135189626600,0.481626708984375,0.0634273961186409,-0.07154390215873718,0.0024686777032911777
1759347135199683600,0.49168359375,0.06931005418300629,-0.06838832795619965,-0.0000956803560256958
1759347135209741800,0.501741943359375,0.06985700130462646,-0.05526801943778992,-0.010160868987441063
1759347135219798800,0.511798828125,0.0697382241487503,-0.04233571141958237,-0.024453256279230118
1759347135229855700,0.521855712890625,0.07875267416238785,-0.03800808638334274,-0.040187910199165344
1759347135239913700,0.531913818359375,0.09110520780086517,-0.04227739945054054,-0.05479721352458
1759347135249970700,0.541970703125,0.09876125305891037,-0.04810961335897446,-0.05828113853931427
1759347135260027600,0.552027587890625,0.08413330465555191,-0.0027029854245483875,-0.06503651291131973
1759347135270084600,0.562084716796875,0.07831396162509918,0.043278537690639496,-0.07513144612312317
1759347135280142800,0.572142822265625,0.1138661801815033,0.07127100229263306,-0.09207187592983246
1759347135290199800,0.58219970703125,0.1271878480911255,0.08654316514730453,-0.10315089672803879
1759347135300256800,0.5922568359375,0.14539216458797455,0.06638170778751373,-0.09834495186805725
1759347135310314800,0.602314697265625,0.12663380801677704,0.0684700757265091,-0.09560278058052063
1759347135320371700,0.612371826171875,0.14344368875026703,0.04991370812058449,-0.08900320529937744
1759347135330429000,0.622428955078125,0.1437504142522812,0.08593462407588959,-0.09931573271751404
1759347135340486700,0.632486572265625,0.1469438076019287,0.12257705628871918,-0.11077558249235153
1759347135350543600,0.642543701171875,0.1413477212190628,0.13650155067443848,-0.11719675362110138
1759347135360600800,0.652600830078125,0.1604268103837967,0.1153508797287941,-0.11710665374994278
1759347135370657800,0.66265771484375,0.2179154008626938,0.05015350505709648,-0.10852355509996414
1759347135380715500,0.672715576171875,0.2687638998031616,-0.006420719902962446,-0.10365340858697891
1759347135390772700,0.682772705078125,0.2978467047214508,-0.07690952718257904,-0.10965804010629654
1759347135400829700,0.69282958984375,0.3053564131259918,-0.12664741277694702,-0.13776683807373047
1759347135410887700,0.7028876953125,0.32099583745002747,-0.17690259218215942,-0.18263044953346252
1759347135420944600,0.712944580078125,0.33786556124687195,-0.21170203387737274,-0.23908290266990662
1759347135431001600,0.723001708984375,0.41457313299179077,-0.24692340195178986,-0.30897143483161926
1759347135441059800,0.733059814453125,0.5454409718513489,-0.30567553639411926,-0.3684757351875305
1759347135451116800,0.74311669921875,0.6298173666000366,-0.27915340662002563,-0.42543676495552063
1759347135461173800,0.753173828125,0.6639223694801331,-0.24805113673210144,-0.45627108216285706
1759347135471230700,0.763230712890625,0.6959894895553589,-0.24130402505397797,-0.48724788427352905
1759347135481288700,0.773288818359375,0.7598191499710083,-0.23873518407344818,-0.536162257194519
1759347135491345700,0.783345703125,0.8544197082519531,-0.2755882740020752,-0.555148184299469
1759347135501402600,0.793402587890625,0.9637669324874878,-0.3184129595756531,-0.5347384810447693
1759347135511460900,0.8034609375,1.0669467449188232,-0.3042587339878082,-0.5195214152336121
1759347135521517800,0.813517822265625,1.1897499561309814,-0.2420598268508911,-0.5265225768089294
1759347135531574800,0.82357470703125,1.3421282768249512,-0.14026272296905518,-0.5393208265304565
1759347135541631700,0.8336318359375,1.5007025003433228,0.04153796285390854,-0.5466721653938293
1759347135551689700,0.843689697265625,1.621718168258667,0.3472803235054016,-0.5315475463867188
1759347135561747000,0.853746826171875,1.6565810441970825,0.6701921224594116,-0.5378831028938293
1759347135571804000,0.863803955078125,1.5125247240066528,1.1266885995864868,-0.5601864457130432
1759347135581861600,0.873861572265625,1.244278907775879,1.6254891157150269,-0.573202908039093
1759347135591918600,0.883918701171875,0.9575702548027039,1.9730138778686523,-0.6116989850997925
1759347135601975600,0.8939755859375,0.7857135534286499,2.0210957527160645,-0.6555428504943848
1759347135612032800,0.90403271484375,0.6337595582008362,1.8482555150985718,-0.6896251440048218
1759347135622090800,0.9140908203125,0.47998568415641785,1.5255069732666016,-0.6963123679161072
1759347135632147700,0.924147705078125,0.350261390209198,1.183365821838379,-0.6000298261642456
1759347135642204700,0.93420458984375,0.24688203632831573,0.9374301433563232,-0.4160429537296295
1759347135652262700,0.9442626953125,0.165541410446167,0.7288544178009033,-0.19917747378349304
1759347135662319600,0.954319580078125,0.09063521027565002,0.5837987065315247,0.013599234633147717
1759347135672376600,0.96437646484375,0.021154403686523438,0.49438953399658203,0.1910114884376526
1759347135682434800,0.974434814453125,-0.054499078541994095,0.4101678729057312,0.3092989921569824
1759347135692491800,0.98449169921875,-0.11509612947702408,0.2976888418197632,0.3347518742084503
1759347135702549800,0.9945498046875,-0.14734727144241333,0.12215936183929443,0.28470391035079956
1759347135712606700,1.004606689453125,-0.1524999439716339,-0.04744255915284157,0.1889296919107437
1759347135722664700,1.014664794921875,-0.14171600341796875,-0.17164599895477295,0.08163360506296158
1759347135732721700,1.0247216796875,-0.11705677956342697,-0.2590901553630829,0.0034746178425848484
1759347135742778600,1.034778564453125,-0.08256325125694275,-0.33942919969558716,-0.03991387039422989
1759347135752836600,1.044836669921875,-0.026432335376739502,-0.4562724530696869,-0.07513843476772308
1759347135762893600,1.0548935546875,0.026900924742221832,-0.5387768149375916,-0.09682369977235794
1759347135772950500,1.064950439453125,0.07328572869300842,-0.49387139081954956,-0.09881094843149185
1759347135783007700,1.0750078125,0.13330504298210144,-0.3330008387565613,-0.13694791495800018
1759347135793065500,1.0850654296875,0.24641375243663788,0.05051085352897644,-0.20390750467777252
1759347135803122400,1.095122314453125,0.36823591589927673,0.44151604175567627,-0.2911125421524048
1759347135813179400,1.105179443359375,0.4705337882041931,0.7001579999923706,-0.3322064280509949
1759347135823237600,1.115237548828125,0.5584304928779602,0.8403128385543823,-0.2961071729660034
1759347135833294600,1.125294677734375,0.6461777091026306,0.8623078465461731,-0.2015388458967209
1759347135843351600,1.1353515625,0.7581499218940735,0.826768159866333,-0.14703041315078735
1759347135853408500,1.145408447265625,0.8743447065353394,0.9559487700462341,-0.22657157480716705
1759347135863466500,1.155466552734375,0.9259517788887024,1.2448029518127441,-0.4597809314727783
1759347135873523700,1.165523681640625,0.8589407801628113,1.335499882698059,-0.69097501039505
1759347135883580700,1.17558056640625,0.7096037268638611,1.262068271636963,-0.8380845785140991
1759347135893638700,1.185638671875,0.5615301728248596,1.0310670137405396,-0.8681378364562988
1759347135903695600,1.195695556640625,0.4488917589187622,0.6916894316673279,-0.79593825340271
1759347135913752600,1.205752685546875,0.3717074990272522,0.278679758310318,-0.6589471697807312
1759347135923809500,1.2158095703125,0.2346620410680771,-0.22199080884456635,-0.4475630521774292
1759347135933867800,1.22586767578125,0.10125977545976639,-0.6320860981941223,-0.22722716629505157
1759347135943924700,1.2359248046875,0.03847043216228485,-0.8559340834617615,-0.10837773978710175
1759347135953981700,1.245981689453125,0.050939302891492844,-0.7981753945350647,-0.11223527044057846
1759347135964039700,1.256039794921875,0.09569026529788971,-0.5137410163879395,-0.1829184889793396
1759347135974096600,1.2660966796875,0.16012835502624512,-0.21614491939544678,-0.2577439844608307
1759347135984153600,1.276153564453125,0.1840938776731491,0.00066514837089926,-0.28912562131881714
1759347135994210600,1.28621044921875,0.14732518792152405,0.1136297956109047,-0.26548609137535095
1759347136004268500,1.2962685546875,0.08852925151586533,0.14421752095222473,-0.22231465578079224
1759347136014325500,1.306325439453125,0.04225943982601166,0.11016879975795746,-0.1917036920785904
1759347136024382500,1.316382568359375,0.013948173262178898,0.0704253762960434,-0.16288907825946808
1759347136034440400,1.3264404296875,0.0021256133913993835,0.013158729299902916,-0.13788540661334991
1759347136044497400,1.336497314453125,-0.02720031887292862,-0.01702154241502285,-0.09351846575737
1759347136054554600,1.3465546875,-0.048222120851278305,-0.03027747943997383,-0.06020887941122055
1759347136064612600,1.356612548828125,-0.058080609887838364,-0.04776592552661896,-0.059103935956954956
1759347136074669600,1.366669677734375,-0.08208967745304108,-0.01907147839665413,-0.09696279466152191
1759347136084726500,1.3767265625,-0.12494099885225296,0.05674205720424652,-0.15961818397045135
1759347136094783500,1.386783447265625,-0.1655234396457672,0.15529365837574005,-0.21344523131847382
1759347136104841700,1.396841796875,-0.20968078076839447,0.23332135379314423,-0.2392464578151703
1759347136114898700,1.406898681640625,-0.26847004890441895,0.31164097785949707,-0.24455790221691132
1759347136124955600,1.41695556640625,-0.31399664282798767,0.3855150640010834,-0.24661298096179962
1759347136135013600,1.427013671875,-0.33011460304260254,0.40515372157096863,-0.24520470201969147
1759347136145070600,1.437070556640625,-0.3084636628627777,0.38032135367393494,-0.2446979135274887
1759347136155127600,1.44712744140625,-0.2792379558086395,0.3271237015724182,-0.22877830266952515
1759347136165184500,1.4571845703125,-0.29436320066452026,0.32050004601478577,-0.21229152381420135
1759347136175242800,1.46724267578125,-0.33136114478111267,0.3731856346130371,-0.1876130849123001
1759347136185299700,1.4772998046875,-0.3526882827281952,0.4602118730545044,-0.16246937215328217
1759347136195356700,1.487356689453125,-0.3759530782699585,0.5679275393486023,-0.16156268119812012
1759347136205413600,1.49741357421875,-0.41158244013786316,0.6777290105819702,-0.18664857745170593
1759347136215471600,1.5074716796875,-0.4523237347602844,0.7587881684303284,-0.22251975536346436
1759347136225528800,1.51752880859375,-0.4863044023513794,0.7959003448486328,-0.2619510591030121
1759347136235585800,1.527585693359375,-0.504277765750885,0.8340059518814087,-0.3239140510559082
1759347136245643500,1.5376435546875,-0.46197250485420227,0.8668991923332214,-0.4299098551273346
1759347136255700500,1.547700439453125,-0.3379102349281311,0.7353717684745789,-0.5322966575622559
1759347136265757400,1.55775732421875,-0.2450934499502182,0.4508960545063019,-0.5797829627990723
1759347136275814700,1.567814697265625,-0.2766340970993042,0.17495135962963104,-0.6057425737380981
1759347136285872600,1.57787255859375,-0.35952097177505493,-0.026163367554545403,-0.6115831732749939
1759347136295929600,1.5879296875,-0.454192191362381,-0.06844686716794968,-0.5988073945045471
1759347136305986600,1.597986572265625,-0.5648678541183472,-0.009928958490490913,-0.5410913825035095
1759347136316044500,1.60804443359375,-0.6769867539405823,0.06609790772199631,-0.4291055202484131
1759347136326101500,1.6181015625,-0.7709356546401978,0.21381519734859467,-0.2861097455024719
1759347136336158500,1.628158447265625,-0.8229401707649231,0.4342786371707916,-0.12314973771572113
1759347136346215400,1.63821533203125,-0.8405237197875977,0.6890878081321716,0.04323950037360191
1759347136356273700,1.648273681640625,-0.8109468817710876,0.8266413807868958,0.2432449460029602
1759347136366330600,1.65833056640625,-0.7179908156394958,0.82691890001297,0.4844982922077179
1759347136376387600,1.6683876953125,-0.6106361150741577,0.7711108922958374,0.7439171671867371
1759347136386445600,1.678445556640625,-0.5319937467575073,0.7290555834770203,1.0030882358551025
1759347136396502500,1.68850244140625,-0.4654723107814789,0.7072575092315674,1.2540150880813599
1759347136406559700,1.698559814453125,-0.39293554425239563,0.6669953465461731,1.5018459558486938
1759347136416616700,1.70861669921875,-0.33210277557373047,0.586107611656189,1.7387542724609375
1759347136426674700,1.7186748046875,-0.29737770557403564,0.5040099620819092,1.9247605800628662
1759347136436731600,1.728731689453125,-0.25532904267311096,0.43528681993484497,2.07067608833313
1759347136446788600,1.73878857421875,-0.17919166386127472,0.45335957407951355,2.1862146854400635
1759347136456846600,1.7488466796875,-0.08305880427360535,0.6227353811264038,2.2902023792266846
1759347136466903800,1.75890380859375,0.008647944778203964,0.9948759078979492,2.330160140991211
1759347136476960800,1.768960693359375,0.05809495970606804,1.461777687072754,2.278712511062622
1759347136487017700,1.779017822265625,0.0678115040063858,1.8979853391647339,2.1556200981140137
1759347136497075500,1.789075439453125,0.10305217653512955,2.1849515438079834,1.9957702159881592
1759347136507132400,1.79913232421875,0.29982781410217285,2.2580251693725586,1.7748639583587646
1759347136517189400,1.809189453125,0.46636858582496643,2.213589668273926,1.510024905204773
1759347136527247600,1.81924755859375,0.45381417870521545,2.172973871231079,1.2937639951705933
1759347136537304600,1.8293046875,0.4403172731399536,2.521486520767212,1.2532496452331543
1759347136547361500,1.839361572265625,0.5413228869438171,3.05015230178833,1.4172817468643188
1759347136557418500,1.84941845703125,0.7804161310195923,3.4353690147399902,1.5948307514190674
1759347136567476500,1.8594765625,1.0157065391540527,3.445906400680542,1.6743313074111938
1759347136577533400,1.869533447265625,1.274580955505371,2.7858479022979736,1.5530980825424194
1759347136587590700,1.879590576171875,1.5974462032318115,2.109365940093994,1.3355896472930908
1759347136597648600,1.889648681640625,1.81101655960083,1.7635895013809204,1.0987550020217896
1759347136607705600,1.89970556640625,2.0396552085876465,1.3929551839828491,0.9019315242767334
1759347136617762600,1.909762451171875,2.2852988243103027,1.06373929977417,0.7760964035987854
1759347136627819500,1.919819580078125,2.524857521057129,0.7058040499687195,0.8189368844032288
1759347136637877800,1.929877685546875,2.7094125747680664,0.5201614499092102,1.0314701795578003
1759347136647934700,1.939934814453125,2.829223155975342,0.5046466588973999,1.3805406093597412
1759347136657991700,1.94999169921875,2.952768087387085,0.14193423092365265,1.7569783926010132
1759347136668048600,1.960048583984375,3.015307903289795,-0.2990620732307434,2.1125705242156982
1759347136678106600,1.970106689453125,2.9332947731018066,-0.5713708400726318,2.3763396739959717
1759347136688163600,1.98016357421875,2.739316701889038,-0.8745664358139038,2.5687499046325684
1759347136698220500,1.990220458984375,2.4939322471618652,-1.1287788152694702,2.6568825244903564
1759347136708277800,2.00027783203125,2.2448456287384033,-1.3361542224884033,2.6410624980926514
1759347136718335000,2.0103349609375,2.039501905441284,-1.4679991006851196,2.570589780807495
1759347136728392000,2.020391845703125,1.8094886541366577,-1.4917746782302856,2.4640393257141113
1759347136738449000,2.030448974609375,1.612138271331787,-1.4148072004318237,2.3073391914367676
1759347136748507000,2.0405068359375,1.41750168800354,-1.386175274848938,2.096820831298828
1759347136758563800,2.050563720703125,1.2235629558563232,-1.520649790763855,1.9206398725509644
1759347136768620800,2.060620849609375,1.0308972597122192,-1.6410784721374512,1.7787649631500244
1759347136778678800,2.0706787109375,0.8640975952148438,-1.6453114748001099,1.6505508422851562
1759347136788735700,2.08073583984375,0.7413652539253235,-1.5199453830718994,1.5094579458236694
1759347136798793000,2.09079296875,0.6427171230316162,-1.4378228187561035,1.3276317119598389
1759347136808850000,2.100849853515625,0.5756209492683411,-1.3001620769500732,1.06401789188385
1759347136818907600,2.11090771484375,0.5476609468460083,-1.13033127784729,0.7397100925445557
1759347136828964600,2.120964599609375,0.4835171699523926,-0.9795097708702087,0.4351605474948883
1759347136839021800,2.131021728515625,0.42024168372154236,-0.8427823781967163,0.16987016797065735
1759347136849078800,2.141078857421875,0.37872594594955444,-0.6871120929718018,-0.06990860402584076
1759347136859136800,2.15113671875,0.35028865933418274,-0.5224816203117371,-0.2653076946735382
1759347136869193700,2.16119384765625,0.3466619551181793,-0.29052454233169556,-0.4615059494972229
1759347136879250700,2.171250732421875,0.33544450998306274,-0.17404082417488098,-0.6169992089271545
1759347136889308700,2.18130859375,0.3087812066078186,-0.13623282313346863,-0.7367536425590515
1759347136899366000,2.191365966796875,0.2842492461204529,-0.026302866637706757,-0.8929991722106934
1759347136909422800,2.2014228515625,0.24716980755329132,0.06567605584859848,-1.0836378335952759
1759347136919479800,2.211479736328125,0.18102416396141052,0.17886851727962494,-1.2899880409240723
1759347136929537800,2.221537841796875,0.12929262220859528,0.23717831075191498,-1.4747897386550903
1759347136939594800,2.2315947265625,0.0624062642455101,0.26270580291748047,-1.6448568105697632
1759347136949651700,2.241651611328125,-0.08977600187063217,0.2478535920381546,-1.8165982961654663
1759347136959710000,2.2517099609375,-0.33332422375679016,0.21775799989700317,-1.999432921409607
1759347136969767000,2.261766845703125,-0.636328399181366,0.1972811222076416,-2.1361465454101562
1759347136979823900,2.271823974609375,-0.7377788424491882,0.4288152754306793,-2.0065553188323975
1759347136989880800,2.281880859375,-0.4773240089416504,1.2683440446853638,-1.1237819194793701
1759347136999938800,2.291938720703125,-0.42607760429382324,0.9379516839981079,-0.7430183291435242
1759347137009995800,2.301995849609375,-0.40259212255477905,0.842719316482544,-1.5310025215148926
1759347137020053000,2.312052978515625,-0.8195387125015259,0.7941256761550903,-1.8573517799377441
1759347137030110000,2.32210986328125,-1.2135401964187622,-0.9818160533905029,-0.9880631566047668
1759347137040168000,2.33216796875,-1.178116798400879,-1.7027260065078735,-0.6185802221298218
1759347137050225000,2.342224853515625,-1.0297664403915405,-1.312061071395874,-0.602351188659668
1759347137060281900,2.35228173828125,-0.8785765767097473,-1.0381865501403809,-0.5706817507743835
1759347137070338800,2.3623388671875,-0.7175480127334595,-0.9093236327171326,-0.6432180404663086
1759347137080396800,2.372396728515625,-0.5579977631568909,-0.615544855594635,-0.9337811470031738
1759347137090453800,2.382453857421875,-0.44144824147224426,-0.20981653034687042,-1.3307377099990845
1759347137100510700,2.3925107421875,-0.4632575809955597,0.14499901235103607,-1.6892037391662598
1759347137110568700,2.402568603515625,-0.589333713054657,0.44208261370658875,-1.9891406297683716
1759347137120625700,2.412625732421875,-0.7573338150978088,0.73666912317276,-2.2458577156066895
1759347137130682600,2.4226826171875,-0.9281540513038635,1.0060726404190063,-2.4582719802856445
1759347137140739800,2.43273974609375,-1.055280327796936,1.2602224349975586,-2.6301560401916504
1759347137150797800,2.4427978515625,-1.1757819652557373,1.4627186059951782,-2.7630722522735596
1759347137160854800,2.452854736328125,-1.2785471677780151,1.5661062002182007,-2.828606128692627
1759347137170911700,2.462911865234375,-1.3755570650100708,1.5828611850738525,-2.7965445518493652
1759347137180968700,2.47296875,-1.4370648860931396,1.5080623626708984,-2.6227786540985107
1759347137191026700,2.483026611328125,-1.4616355895996094,1.434631586074829,-2.322169542312622
1759347137201084000,2.493083984375,-1.443880558013916,1.3310047388076782,-1.9852640628814697
1759347137211140900,2.503140869140625,-1.3703283071517944,1.063581109046936,-1.681312084197998
1759347137221198800,2.51319873046875,-1.279335618019104,0.7031726241111755,-1.4065828323364258
1759347137231255800,2.523255859375,-1.2158151865005493,0.3181256353855133,-1.1235135793685913
1759347137241312800,2.533312744140625,-1.1852024793624878,-0.011536264792084694,-0.8493697643280029
1759347137251369700,2.54336962890625,-1.202826976776123,-0.2482667863368988,-0.6254788637161255
1759347137261428000,2.553427978515625,-1.225260615348816,-0.5413028597831726,-0.464220255613327
1759347137271485000,2.56348486328125,-1.2447903156280518,-0.8936076760292053,-0.3509189784526825
1759347137281542000,2.5735419921875,-1.2784345149993896,-1.2281078100204468,-0.2680128812789917
1759347137291598800,2.583598876953125,-1.3025628328323364,-1.5050612688064575,-0.20105762779712677
1759347137301656800,2.59365673828125,-1.2869524955749512,-1.7025996446609497,-0.13277098536491394
1759347137311713800,2.6037138671875,-1.2050336599349976,-1.9266276359558105,-0.041770778596401215
1759347137321771000,2.61377099609375,-1.0169728994369507,-2.123899459838867,0.017065878957509995
1759347137331828700,2.623828857421875,-0.739607572555542,-2.201141357421875,-0.014416691847145557
1759347137341885700,2.6338857421875,-0.5382065773010254,-2.173077344894409,-0.11364101618528366
1759347137351942700,2.643942626953125,-0.44793620705604553,-2.036159038543701,-0.28202152252197266
1759347137362000000,2.653999755859375,-0.38209566473960876,-1.8700230121612549,-0.5006707906723022
1759347137372057900,2.664057861328125,-0.29439491033554077,-1.7382763624191284,-0.721662700176239
1759347137382114800,2.67411474609375,-0.1383185088634491,-1.5588780641555786,-0.9504894614219666
1759347137392171800,2.684171875,-0.045660752803087234,-1.287134051322937,-1.1331934928894043
1759347137402228700,2.694228759765625,-0.03575272858142853,-0.8915867209434509,-1.1949373483657837
1759347137412286700,2.70428662109375,-0.07022974640130997,-0.45091482996940613,-1.1249566078186035
1759347137422343700,2.71434375,-0.07480357587337494,-0.11614789813756943,-1.0100408792495728
1759347137432400600,2.724400634765625,-0.008051712065935135,0.09764347970485687,-0.9077707529067993
1759347137442459000,2.734458984375,0.12332654744386673,0.25589171051979065,-0.8070468306541443
1759347137452515800,2.744515869140625,0.4490055739879608,0.41172710061073303,-0.8521775603294373
1759347137462572800,2.75457275390625,0.7771719694137573,0.5970718860626221,-1.0379706621170044
1759347137472629800,2.764629638671875,0.8436527252197266,0.6593016982078552,-1.2042720317840576
1759347137482687700,2.774687744140625,0.6772834658622742,0.5924214124679565,-1.2301418781280518
1759347137492745000,2.784744873046875,0.4516383707523346,0.3464718461036682,-1.1007615327835083
1759347137502802000,2.794802001953125,0.17598110437393188,0.06033767759799957,-0.9321397542953491
1759347137512859000,2.80485888671875,-0.0002306741662323475,-0.048074282705783844,-0.7536816000938416
1759347137522916900,2.814916748046875,-0.04287591204047203,0.059963297098875046,-0.6237168908119202
1759347137532973800,2.824973876953125,-0.08573842793703079,0.1932787448167801,-0.5384659171104431
1759347137543030800,2.83503076171875,-0.14133426547050476,0.11081513017416,-0.4096474349498749
1759347137553087700,2.845087646484375,-0.1175471693277359,-0.06476281583309174,-0.24873735010623932
1759347137563146000,2.85514599609375,-0.05995350703597069,-0.15539894998073578,-0.13198700547218323
1759347137573203000,2.865202880859375,-0.04473487660288811,-0.16316260397434235,-0.0787016898393631
1759347137583260000,2.875260009765625,-0.0565534345805645,-0.15001362562179565,-0.0531686507165432
1759347137593317600,2.885317626953125,-0.09370213747024536,-0.06323158740997314,-0.04264650121331215
1759347137603374600,2.89537451171875,-0.1309581696987152,0.08186951279640198,-0.051299091428518295
1759347137613431800,2.905431884765625,-0.15525871515274048,0.1921430379152298,-0.08692286908626556
1759347137623489000,2.915489013671875,-0.17474089562892914,0.22646644711494446,-0.15044592320919037
1759347137633546800,2.925546630859375,-0.20832228660583496,0.2362642139196396,-0.19573724269866943
1759347137643603700,2.935603759765625,-0.26757991313934326,0.2592316269874573,-0.19803854823112488
1759347137653660700,2.94566064453125,-0.3199356496334076,0.3013804256916046,-0.16275154054164886
1759347137663717600,2.955717529296875,-0.36605414748191833,0.333181232213974,-0.14181935787200928
1759347137673775900,2.96577587890625,-0.4216953217983246,0.3391062319278717,-0.17454853653907776
1759347137683832800,2.975832763671875,-0.4983941316604614,0.3507492244243622,-0.29189053177833557
1759347137693889800,2.985889892578125,-0.551243007183075,0.27803561091423035,-0.4511297047138214
1759347137703947500,2.995947509765625,-0.5869013071060181,0.06614873558282852,-0.5868614315986633
1759347137714005500,3.006005615234375,-0.6399219632148743,-0.1989365965127945,-0.6774466037750244
1759347137724062500,3.0160625,-0.7030945420265198,-0.3248825669288635,-0.727688729763031
1759347137734119400,3.026119384765625,-0.7701188325881958,-0.2537288963794708,-0.7017253041267395
1759347137744176400,3.03617626953125,-0.8233525156974792,-0.1434367448091507,-0.5754560828208923
1759347137754234400,3.046234375,-0.8792316317558289,-0.12320028245449066,-0.37072423100471497
1759347137764291600,3.05629150390625,-0.8519946932792664,-0.14288343489170074,-0.15358684957027435
1759347137774348500,3.0663486328125,-0.7412388920783997,-0.02752797119319439,0.040458276867866516
1759347137784406500,3.076406494140625,-0.6654290556907654,0.18108409643173218,0.20684832334518433
1759347137794463500,3.08646337890625,-0.5857087969779968,0.31671401858329773,0.37206241488456726
1759347137804520400,3.0965205078125,-0.42166075110435486,0.3348027467727661,0.5516659617424011
1759347137814577400,3.106577392578125,-0.18445059657096863,0.4129340350627899,0.7274343371391296
1759347137824635400,3.116635498046875,0.008823401294648647,0.5067600607872009,0.950610339641571
1759347137834692400,3.1266923828125,0.08907509595155716,0.5910525321960449,1.2131061553955078
1759347137844749600,3.13674951171875,0.09444781392812729,0.6046518087387085,1.4878339767456055
1759347137854806500,3.146806640625,0.10903874039649963,0.6073144674301147,1.7609302997589111
1759347137864864300,3.1568642578125,0.17584818601608276,0.6294235587120056,2.02498197555542
1759347137874921200,3.166921142578125,0.2859632074832916,0.7053204774856567,2.239288091659546
1759347137884978400,3.176978515625,0.41166481375694275,0.8129323720932007,2.3934338092803955
1759347137895035400,3.187035400390625,0.5395532846450806,0.9985538721084595,2.481083631515503
1759347137905093400,3.19709326171875,0.6300504207611084,1.2566559314727783,2.4243993759155273
1759347137915150300,3.207150390625,0.6645447015762329,1.4797166585922241,2.2238845825195312
1759347137925207300,3.217207275390625,0.7235963940620422,1.6660187244415283,2.0030083656311035
1759347137935264300,3.22726416015625,0.8002647757530212,1.5866451263427734,1.8232718706130981
1759347137945322500,3.237322509765625,0.8645129799842834,1.2260688543319702,1.6775447130203247
1759347137955379500,3.24737939453125,0.882999062538147,0.8251674771308899,1.5088821649551392
1759347137965436400,3.2574365234375,0.854664146900177,0.71970134973526,1.3486934900283813
1759347137975494400,3.267494384765625,0.779507040977478,0.9977282285690308,1.2620000839233398
1759347137985551400,3.27755126953125,0.6870226860046387,1.6270684003829956,1.2703673839569092
1759347137995608300,3.2876083984375,0.5862939357757568,2.3733768463134766,1.3788901567459106
1759347138005665500,3.29766552734375,0.5826427340507507,2.725003480911255,1.3445754051208496
1759347138015723500,3.3077236328125,0.7422688603401184,2.6078362464904785,1.1374601125717163
1759347138025780500,3.317780517578125,1.0556997060775757,2.155461549758911,0.8210172057151794
1759347138035837400,3.32783740234375,1.456563949584961,1.8367700576782227,0.5564539432525635
1759347138045894400,3.337894287109375,1.7971714735031128,1.8701691627502441,0.3282594084739685
1759347138055952600,3.34795263671875,2.0968966484069824,2.0946366786956787,0.19953998923301697
1759347138066009600,3.358009521484375,2.3052139282226562,2.1741297245025635,0.2532058656215668
1759347138076066600,3.368066650390625,2.4022178649902344,1.8099257946014404,0.4800211787223816
1759347138086123500,3.37812353515625,2.422050714492798,1.3201873302459717,0.7328589558601379
1759347138096181500,3.388181396484375,2.439751148223877,0.7196721434593201,0.9517409801483154
1759347138106238500,3.398238525390625,2.5114035606384277,0.07979311048984528,1.0688905715942383
1759347138116295400,3.40829541015625,2.56697940826416,-0.5390362739562988,1.214095950126648
1759347138126352600,3.4183525390625,2.5404422283172607,-0.9105753898620605,1.4267152547836304
1759347138136410400,3.428410400390625,2.4307408332824707,-0.9721320867538452,1.6748675107955933
1759347138146467300,3.43846728515625,2.2540409564971924,-0.9333801865577698,1.918163537979126
1759347138156524500,3.448524658203125,2.016099452972412,-1.0144144296646118,2.0839881896972656
1759347138166581500,3.45858154296875,1.7205820083618164,-1.2168351411819458,2.1112215518951416
1759347138176639200,3.46863916015625,1.4356133937835693,-1.3562945127487183,1.9960930347442627
1759347138186696400,3.478696533203125,1.2061587572097778,-1.4357938766479492,1.835453987121582
1759347138196753400,3.48875341796875,1.087407112121582,-1.4737415313720703,1.7176499366760254
1759347138206810400,3.498810302734375,0.9838833808898926,-1.3241102695465088,1.5657639503479004
1759347138216868400,3.508868408203125,0.8379520177841187,-1.3413639068603516,1.5139989852905273
1759347138226925300,3.51892529296875,0.6713621616363525,-1.4943867921829224,1.493876338005066
1759347138236982300,3.528982177734375,0.5490460991859436,-1.5097273588180542,1.4327906370162964
1759347138247039200,3.539039306640625,0.4351446032524109,-1.4598346948623657,1.3131606578826904
1759347138257097500,3.549097412109375,0.34348177909851074,-1.3781908750534058,1.134397029876709
1759347138267154400,3.559154541015625,0.295424222946167,-1.247721791267395,0.8960942029953003
1759347138277211400,3.56921142578125,0.2727988064289093,-1.0261731147766113,0.6150510311126709
1759347138287268400,3.579268310546875,0.2531733810901642,-0.7339555621147156,0.3105789124965668
1759347138297326300,3.589326416015625,0.2064194530248642,-0.435727059841156,0.015307866036891937
1759347138307383600,3.599383544921875,0.16106711328029633,-0.2118479162454605,-0.24018724262714386
1759347138317440500,3.6094404296875,0.14071257412433624,0.06968123465776443,-0.4772186875343323
1759347138327497500,3.61949755859375,0.12749210000038147,0.2663039565086365,-0.6744076013565063
1759347138337555500,3.629555419921875,0.09110985696315765,0.33422601222991943,-0.8233534097671509
1759347138347612400,3.6396123046875,0.03870635852217674,0.4204559624195099,-0.9631378054618835
1759347138357669400,3.64966943359375,-0.03567067161202431,0.4364181458950043,-1.1012495756149292
1759347138367726300,3.659726318359375,-0.12907877564430237,0.41098442673683167,-1.2171066999435425
1759347138377784600,3.66978466796875,-0.24597689509391785,0.34707096219062805,-1.3319411277770996
1759347138387841500,3.679841552734375,-0.3866768181324005,0.2612893879413605,-1.4268630743026733
1759347138397898500,3.6898984375,-0.509954035282135,0.20087343454360962,-1.480164885520935
1759347138407955500,3.69995556640625,-0.43007251620292664,0.3058667480945587,-1.3246079683303833
1759347138418013400,3.710013427734375,-0.322879821062088,0.4159505367279053,-1.1933177709579468
1759347138428070700,3.720070556640625,-0.3298772871494293,0.5535765886306763,-1.5574443340301514
1759347138438127600,3.730127685546875,-0.3515857756137848,0.5270786285400391,-1.883233904838562
1759347138448184600,3.7401845703125,-0.5553805232048035,-0.1720268279314041,-1.473439335823059
1759347138458242300,3.7502421875,-0.7706883549690247,-0.7123544812202454,-1.179016351699829
1759347138468299300,3.76029931640625,-1.0456277132034302,-0.5368566513061523,-1.2311687469482422
1759347138478356500,3.7703564453125,-1.3521555662155151,-0.3532853424549103,-1.2519326210021973
1759347138488413400,3.780413330078125,-1.5100882053375244,-0.5925421714782715,-1.2280651330947876
1759347138498471400,3.790471435546875,-1.4578758478164673,-0.7129649519920349,-1.177538275718689
1759347138508528400,3.8005283203125,-1.3042250871658325,-0.7239473462104797,-1.1984939575195312
1759347138518585300,3.81058544921875,-1.1393959522247314,-0.6936464905738831,-1.2057478427886963
1759347138528642300,3.820642333984375,-0.9945513606071472,-0.6919212937355042,-1.2200013399124146
1759347138538700300,3.8307001953125,-0.8703663349151611,-0.6639411449432373,-1.281744122505188
1759347138548757200,3.84075732421875,-0.7759668231010437,-0.5244426131248474,-1.4051249027252197
1759347138558814500,3.850814453125,-0.6925205588340759,-0.34050166606903076,-1.5570989847183228
1759347138568871400,3.860871337890625,-0.6885170340538025,-0.11668508499860764,-1.7130558490753174
1759347138578929400,3.870929443359375,-0.7836328744888306,0.08560436964035034,-1.8503040075302124
1759347138588986400,3.880986328125,-0.9485129714012146,0.19911842048168182,-1.950667381286621
1759347138599043300,3.891043212890625,-1.0999258756637573,0.221744105219841,-1.9782713651657104
1759347138609100300,3.901100341796875,-1.219365119934082,0.24820248782634735,-1.8983428478240967
1759347138619158500,3.911158447265625,-1.3139945268630981,0.2243291139602661,-1.7305232286453247
1759347138629215500,3.921215576171875,-1.4033563137054443,0.15215733647346497,-1.5150530338287354
1759347138639272400,3.9312724609375,-1.487962007522583,0.06466317176818848,-1.2521803379058838
1759347138649329400,3.941329345703125,-1.4661517143249512,-0.20128092169761658,-0.903172492980957
1759347138659387400,3.951387451171875,-1.3271868228912354,-0.5249953866004944,-0.5351566672325134
1759347138669444400,3.9614443359375,-1.1476680040359497,-0.7661789655685425,-0.2562785744667053
1759347138679501600,3.97150146484375,-0.9963225722312927,-0.9972785115242004,-0.08607248961925507
1759347138689558500,3.98155859375,-0.8353087902069092,-1.2097774744033813,0.004020088817924261
1759347138699616500,3.991616455078125,-0.6994172930717468,-1.432919979095459,0.03761879354715347
1759347138709673200,4.001673095703125,-0.5929853320121765,-1.6320782899856567,0.023523099720478058
1759347138719730200,4.011730224609375,-0.5210222005844116,-1.743635654449463,-0.0060033658519387245
1759347138729787100,4.021787109375,-0.51799476146698,-1.7767583131790161,-0.03710661455988884
1759347138739845000,4.03184521484375,-0.5429624319076538,-1.7888966798782349,-0.060060400515794754
1759347138749902000,4.041902099609375,-0.5484816431999207,-1.7944196462631226,-0.06150148808956146
1759347138759959000,4.051958984375,-0.5286499261856079,-1.685986876487732,-0.08948172628879547
1759347138770016000,4.06201611328125,-0.4639362692832947,-1.4492837190628052,-0.17964781820774078
1759347138780074200,4.07207421875,-0.3349955976009369,-1.1793403625488281,-0.34191635251045227
1759347138790131200,4.082131103515625,-0.15714146196842194,-0.959643542766571,-0.5438260436058044
1759347138800188200,4.092188232421875,0.0019461903721094131,-0.8354121446609497,-0.7535800337791443
1759347138810245000,4.1022451171875,0.13625700771808624,-0.7439566850662231,-0.9750299453735352
1759347138820302800,4.112302734375,0.22735287249088287,-0.613145112991333,-1.2074438333511353
1759347138830360000,4.122360107421875,0.3002214729785919,-0.4001965820789337,-1.4312480688095093
1759347138840417000,4.1324169921875,0.36724624037742615,-0.08954586833715439,-1.6247808933258057
1759347138850474200,4.14247412109375,0.4412440359592438,0.18441005051136017,-1.74678373336792
1759347138860532000,4.152531982421875,0.4814184308052063,0.3988533616065979,-1.7827750444412231
1759347138870589000,4.1625888671875,0.5214627981185913,0.6170296669006348,-1.7372796535491943
1759347138880646000,4.17264599609375,0.587593138217926,0.8460823893547058,-1.7120647430419922
1759347138890702800,4.182702880859375,0.6251698136329651,1.0124313831329346,-1.707013726234436
1759347138900761000,4.192760986328125,0.6322578191757202,1.0455063581466675,-1.632140040397644
1759347138910818000,4.202818115234375,0.5650467872619629,1.0318326950073242,-1.5203917026519775
1759347138920875000,4.212875,0.3888362944126129,0.9016603827476501,-1.3477798700332642
1759347138930932000,4.222931884765625,0.23826676607131958,0.7263407707214355,-1.1732256412506104
1759347138940989000,4.232989013671875,0.10113633424043655,0.5233354568481445,-0.9875039458274841
1759347138951047000,4.243046875,-0.014677969738841057,0.34337118268013,-0.780673086643219
1759347138961104100,4.253104248046875,-0.026388954371213913,0.2410314679145813,-0.6654045581817627
1759347138971161000,4.2631611328125,-0.06389788538217545,0.22476902604103088,-0.6472393274307251
1759347138981218000,4.273218017578125,-0.1321680098772049,0.18286259472370148,-0.6275684237480164
1759347138991276000,4.283276123046875,-0.20292425155639648,0.1166113093495369,-0.5257655382156372
1759347139001333000,4.2933330078125,-0.2419789880514145,0.07968871295452118,-0.3613733947277069
1759347139011390000,4.303389892578125,-0.22545219957828522,0.0753401517868042,-0.20449215173721313
1759347139021447000,4.313447021484375,-0.16045509278774261,0.08681944012641907,-0.07966314256191254
1759347139031505200,4.323505126953125,-0.0963895171880722,0.15970174968242645,0.0022419928573071957
1759347139041562000,4.33356201171875,-0.02762802317738533,0.33988991379737854,0.0579846166074276
1759347139051619000,4.343619140625,0.06893137842416763,0.48997607827186584,0.11620833724737167
1759347139061676000,4.353676025390625,0.1729816049337387,0.5449205040931702,0.1452820599079132
1759347139071734000,4.363734130859375,0.19235460460186005,0.5056408047676086,0.09211582690477371
1759347139081791200,4.373791259765625,0.09539318084716797,0.4180465042591095,-0.019546525552868843
1759347139091848200,4.38384814453125,-0.08411019295454025,0.3500095307826996,-0.12923642992973328
1759347139101905200,4.3939052734375,-0.28922608494758606,0.327675461769104,-0.19647565484046936
1759347139111962000,4.403962158203125,-0.4440847337245941,0.4036383330821991,-0.21248582005500793
1759347139122020000,4.41402001953125,-0.5339597463607788,0.5071849226951599,-0.19470256567001343
1759347139132077000,4.4240771484375,-0.5831360220909119,0.5477652549743652,-0.1744142770767212
1759347139142134000,4.434134033203125,-0.6290086507797241,0.5234639048576355,-0.21907177567481995
1759347139152191200,4.444191162109375,-0.6873666048049927,0.4987603425979614,-0.376361608505249
1759347139162249200,4.454249267578125,-0.6930537819862366,0.3603326976299286,-0.5515033602714539
1759347139172306200,4.46430615234375,-0.6283500790596008,0.06549517065286636,-0.6515898108482361
1759347139182363100,4.474363037109375,-0.5949585437774658,-0.1908053159713745,-0.7030697464942932
1759347139192420000,4.484420166015625,-0.6216450333595276,-0.24530397355556488,-0.691425621509552
1759347139202478000,4.49447802734375,-0.667937159538269,-0.12375997006893158,-0.5754846334457397
1759347139212535000,4.50453515625,-0.7126173377037048,0.06989376246929169,-0.3496707081794739
1759347139222592000,4.514592041015625,-0.7498844861984253,0.23437382280826569,-0.04610686004161835
1759347139232649000,4.52464892578125,-0.7636173367500305,0.33342745900154114,0.29971179366111755
1759347139242707000,4.53470703125,-0.7160791158676147,0.46958670020103455,0.620317280292511
1759347139252764000,4.544763916015625,-0.5363146662712097,0.6011703014373779,0.8671424984931946
1759347139262820900,4.55482080078125,-0.28381791710853577,0.6657862067222595,1.0090539455413818
1759347139272878000,4.564878173828125,-0.06019920855760574,0.6602923274040222,1.102035641670227
1759347139282936000,4.57493603515625,0.06818991154432297,0.600727915763855,1.2286558151245117
1759347139292993000,4.584992919921875,0.14616088569164276,0.5491361021995544,1.3877328634262085
1759347139303050000,4.595050048828125,0.21203771233558655,0.5044965147972107,1.578570008277893
1759347139313107000,4.60510693359375,0.297929972410202,0.4564427137374878,1.7762575149536133
1759347139323164000,4.615163818359375,0.404375284910202,0.42039382457733154,1.9539530277252197
1759347139333222100,4.62522216796875,0.529793381690979,0.4477381110191345,2.097100019454956
1759347139343279000,4.635279052734375,0.6235811114311218,0.49511146545410156,2.165311574935913
1759347139353336000,4.645336181640625,0.6732426285743713,0.495747447013855,2.112217426300049
1759347139363393000,4.65539306640625,0.6835224032402039,0.5320916175842285,2.0268054008483887
1759347139373451000,4.665450927734375,0.6821570992469788,0.7062915563583374,1.9518959522247314
1759347139383508000,4.675508056640625,0.6769383549690247,0.9836595058441162,1.868142008781433
1759347139393565000,4.68556494140625,0.6742095351219177,1.417776346206665,1.7965656518936157
1759347139403622100,4.6956220703125,0.6621968150138855,1.9037292003631592,1.745466709136963
1759347139413680000,4.70568017578125,0.593573808670044,2.2674429416656494,1.7029870748519897
1759347139423737000,4.715737060546875,0.5297365188598633,2.4965579509735107,1.607496738433838
1759347139433794000,4.7257939453125,0.4831283390522003,2.756179094314575,1.5228720903396606
1759347139443851000,4.73585107421875,0.4792907238006592,2.914532423019409,1.36959969997406
1759347139453908000,4.745907958984375,0.596625030040741,2.8186588287353516,1.132647156715393
1759347139463966200,4.75596630859375,0.8356919288635254,2.5779011249542236,0.8945661783218384
1759347139474023200,4.766023193359375,1.2132866382598877,2.345006227493286,0.5943167209625244
1759347139484080000,4.776080078125,1.6769033670425415,2.1071524620056152,0.38144755363464355
1759347139494137000,4.78613720703125,2.1202232837677,2.09818172454834,0.24372780323028564
1759347139504195000,4.796195068359375,2.391575574874878,2.1925950050354004,0.27870574593544006
1759347139514252000,4.806251953125,2.5156819820404053,1.9543266296386719,0.45843929052352905
1759347139524309200,4.816309326171875,2.6435956954956055,1.3775973320007324,0.7443171143531799
1759347139534366200,4.8263662109375,2.7133893966674805,1.001660704612732,1.0514565706253052
1759347139544424000,4.836423828125,2.713099956512451,0.8542572259902954,1.2462588548660278
1759347139554481200,4.846481201171875,2.762941360473633,0.572641134262085,1.2844258546829224
1759347139564538000,4.8565380859375,2.7654366493225098,0.1808989942073822,1.3185385465621948
1759347139574595000,4.866594970703125,2.675790786743164,-0.38496676087379456,1.4085972309112549
1759347139584652000,4.876652099609375,2.5094823837280273,-0.9665269255638123,1.5802953243255615
1759347139594710000,4.8867099609375,2.248940944671631,-1.2583750486373901,1.758439302444458
1759347139604767000,4.89676708984375,1.9865479469299316,-1.2790789604187012,1.8901447057724
1759347139614824000,4.906823974609375,1.7553057670593262,-1.2951668500900269,1.9498709440231323
1759347139624881200,4.916881103515625,1.544228196144104,-1.3435797691345215,1.9310529232025146
1759347139634939000,4.92693896484375,1.388355016708374,-1.4085478782653809,1.862898349761963
1759347139644996000,4.93699609375,1.2933971881866455,-1.4367504119873047,1.7862735986709595
1759347139655053000,4.947052978515625,1.2230889797210693,-1.3287280797958374,1.703660011291504
1759347139665110000,4.957110107421875,1.1274584531784058,-1.2884838581085205,1.5763671398162842
1759347139675167000,4.9671669921875,0.9941841959953308,-1.5017156600952148,1.5136626958847046
1759347139685225000,4.977224853515625,0.8404014110565186,-1.542811393737793,1.401636004447937
1759347139695282000,4.987281982421875,0.7062747478485107,-1.576346516609192,1.268555998802185
1759347139705340000,4.99733984375,0.6097455620765686,-1.5328600406646729,1.116796851158142
1759347139715396900,5.00739697265625,0.5139287114143372,-1.4434959888458252,0.947279691696167
1759347139725455000,5.017455078125,0.422450453042984,-1.2607883214950562,0.7229315638542175
1759347139735512000,5.027511962890625,0.32873937487602234,-1.0722962617874146,0.4619586169719696
1759347139745569000,5.037569091796875,0.24347110092639923,-0.8759374618530273,0.19312477111816406
1759347139755626000,5.0476259765625,0.16858258843421936,-0.7246823906898499,-0.0692664161324501
1759347139765684000,5.05768408203125,0.14029528200626373,-0.575897753238678,-0.31595662236213684
1759347139775741000,5.067740966796875,0.12957550585269928,-0.44405680894851685,-0.5216066241264343
1759347139785798000,5.0777978515625,0.12060225009918213,-0.33057525753974915,-0.6788386106491089
1759347139795855000,5.087855224609375,0.10391812026500702,-0.22222045063972473,-0.8131824135780334
1759347139805912000,5.097912109375,0.06573078781366348,-0.08872151374816895,-0.9689850211143494
1759347139815970000,5.107969970703125,0.0018953918479382992,0.09322550892829895,-1.1538034677505493
1759347139826027000,5.118027099609375,-0.08955676108598709,0.2901151478290558,-1.3378263711929321
1759347139836084000,5.128083984375,-0.20324860513210297,0.5641372203826904,-1.5156272649765015
1759347139846141000,5.138140869140625,-0.33091458678245544,0.7323878407478333,-1.7284389734268188
1759347139856199000,5.148198974609375,-0.36156144738197327,0.7913787364959717,-1.7738679647445679
1759347139866256000,5.158255859375,-0.16919732093811035,1.2198745012283325,-1.5755140781402588
1759347139876313000,5.16831298828125,-0.07219967246055603,1.2126026153564453,-1.5367465019226074
1759347139886370000,5.1783701171875,-0.22484886646270752,0.9229425191879272,-1.6808879375457764
1759347139896427000,5.188427001953125,-0.5414431095123291,0.07907349616289139,-1.581514596939087
1759347139906484700,5.198484619140625,-0.9633206129074097,-0.8210187554359436,-0.8744671940803528
1759347139916541700,5.208541748046875,-1.2839573621749878,-1.3191452026367188,-0.6871669292449951
1759347139926599000,5.218598876953125,-1.4777171611785889,-1.1682062149047852,-0.7304915189743042
1759347139936656000,5.22865576171875,-1.5324691534042358,-1.0566508769989014,-0.6736662983894348
1759347139946713900,5.2387138671875,-1.5312440395355225,-1.247294306755066,-0.6628301739692688
1759347139956770800,5.248770751953125,-1.422587275505066,-1.234554648399353,-0.6459248065948486
1759347139966827800,5.258827880859375,-1.2466404438018799,-1.0278371572494507,-0.6902890801429749
1759347139976884700,5.268884765625,-1.0987162590026855,-0.7797658443450928,-0.834272027015686
1759347139986941700,5.278941650390625,-1.0094760656356812,-0.4645291566848755,-1.0892680883407593
1759347139997000000,5.289,-0.9086946249008179,-0.0781063511967659,-1.3767414093017578
1759347140007057000,5.299056884765625,-0.8483031988143921,0.33730778098106384,-1.6545549631118774
1759347140017113900,5.30911376953125,-0.8583012223243713,0.7446582913398743,-1.8865575790405273
1759347140027170800,5.3191708984375,-0.9168508052825928,0.9928422570228577,-2.020066738128662
1759347140037228800,5.329228759765625,-1.0486637353897095,1.128671407699585,-2.0870938301086426
1759347140047286000,5.3392861328125,-1.1736642122268677,1.1970785856246948,-2.1320645809173584
1759347140057343000,5.349343017578125,-1.3004456758499146,1.2144641876220703,-2.1402392387390137
1759347140067400000,5.35939990234375,-1.3865998983383179,1.2638157606124878,-2.0598933696746826
1759347140077457000,5.369456787109375,-1.4354667663574219,1.2727628946304321,-1.9168366193771362
1759347140087515000,5.379514892578125,-1.403382658958435,1.2402582168579102,-1.7270780801773071
1759347140097571800,5.38957177734375,-1.302223563194275,1.1755203008651733,-1.5102217197418213
1759347140107628800,5.39962890625,-1.1933162212371826,0.9643086791038513,-1.3118298053741455
1759347140117686000,5.40968603515625,-1.1115180253982544,0.6524124145507812,-1.1491272449493408
1759347140127744000,5.419743896484375,-1.062071442604065,0.21754828095436096,-1.011683702468872
1759347140137801000,5.429801025390625,-1.013820767402649,-0.21698912978172302,-0.8845999240875244
1759347140147858000,5.43985791015625,-0.9578784108161926,-0.5972357988357544,-0.757384181022644
1759347140157915000,5.449914794921875,-0.9324788451194763,-0.900784969329834,-0.6286636590957642
1759347140167971800,5.459971923828125,-0.9361473321914673,-1.0911154747009277,-0.49395591020584106
1759347140178030000,5.470030029296875,-0.9431622624397278,-1.1315604448318481,-0.3614383935928345
1759347140188087000,5.480087158203125,-0.9843243360519409,-1.084426999092102,-0.2219284474849701
1759347140198144000,5.49014404296875,-1.0827000141143799,-1.0227878093719482,-0.0768958032131195
1759347140208201000,5.500200927734375,-1.1990302801132202,-0.9850096106529236,0.0632285550236702
1759347140218259000,5.510259033203125,-1.2300758361816406,-1.1187132596969604,0.17978118360042572
1759347140228316000,5.52031591796875,-1.162781000137329,-1.3637497425079346,0.23125529289245605
1759347140238373000,5.530373046875,-0.9671065211296082,-1.7268831729888916,0.18180891871452332
1759347140248430000,5.54043017578125,-0.6554005742073059,-2.1452600955963135,0.041009992361068726
1759347140258487000,5.550487060546875,-0.3085516095161438,-2.4706642627716064,-0.14808499813079834
1759347140268545000,5.560544921875,-0.07988354563713074,-2.6174230575561523,-0.3728049099445343
1759347140278602000,5.57060205078125,0.026885833591222763,-2.53702449798584,-0.5887192487716675
1759347140288659000,5.580658935546875,0.026427235454320908,-2.316218376159668,-0.7691012620925903
1759347140298716000,5.5907158203125,-0.0002168905921280384,-1.919774055480957,-0.921550989151001
1759347140308773000,5.600773193359375,0.025447726249694824,-1.445844292640686,-1.0312892198562622
1759347140318830800,5.610830810546875,0.09456522762775421,-0.9528406262397766,-1.0605084896087646
1759347140328888000,5.62088818359375,0.16833825409412384,-0.5553902387619019,-1.0136280059814453
1759347140338945000,5.630945068359375,0.22232915461063385,-0.2177211195230484,-0.9767802953720093
1759347140349002000,5.641001953125,0.28911885619163513,-0.0006254736799746752,-0.9648845791816711
1759347140359060000,5.65106005859375,0.42104437947273254,0.04573909565806389,-0.9446216225624084
1759347140369117000,5.661116943359375,0.7160342335700989,-0.01869741827249527,-1.042827844619751
1759347140379174000,5.671173828125,1.0115314722061157,0.051864560693502426,-1.2870495319366455
1759347140389230800,5.68123095703125,1.0785517692565918,0.23196318745613098,-1.548538088798523
1759347140399288000,5.6912880859375,0.8775278329849243,0.32250773906707764,-1.5763318538665771
1759347140409345800,5.701345703125,0.5055844187736511,0.0779939740896225,-1.3015694618225098
1759347140419402800,5.71140283203125,0.09202158451080322,-0.09296073019504547,-0.9192651510238647
1759347140429460000,5.7214599609375,-0.17761066555976868,-0.17315468192100525,-0.6047843098640442
1759347140439517000,5.731516845703125,-0.255254328250885,-0.2352747768163681,-0.4546107351779938
1759347140449575000,5.741574951171875,-0.276216059923172,-0.32427680492401123,-0.3733827471733093
1759347140459631900,5.7516318359375,-0.2751079201698303,-0.4534667432308197,-0.2327049970626831
1759347140469688800,5.761688720703125,-0.25464361906051636,-0.38983023166656494,-0.07697442173957825
1759347140479745800,5.771745849609375,-0.21201811730861664,-0.10756897181272507,0.015523556619882584
1759347140489802800,5.781802734375,-0.12929660081863403,0.143938347697258,0.02219211310148239
1759347140499861000,5.791861083984375,-0.03701169043779373,0.25844627618789673,-0.04585374519228935
1759347140509918000,5.80191796875,0.010740917176008224,0.33010581135749817,-0.14047878980636597
1759347140519975000,5.811974853515625,-0.011210263706743717,0.3829141855239868,-0.20405487716197968
1759347140530031900,5.822031982421875,-0.08651167154312134,0.38738325238227844,-0.21941012144088745
1759347140540088800,5.8320888671875,-0.17991459369659424,0.3691175580024719,-0.1864926666021347
1759347140550146800,5.842146728515625,-0.25720512866973877,0.3479185402393341,-0.15361781418323517
1759347140560204000,5.8522041015625,-0.30142202973365784,0.30501312017440796,-0.16140885651111603
1759347140570261000,5.862260986328125,-0.3433487117290497,0.24351726472377777,-0.2131173312664032
1759347140580318000,5.87231787109375,-0.4299819767475128,0.19478458166122437,-0.2670409679412842
1759347140590376000,5.8823759765625,-0.5593076944351196,0.21178805828094482,-0.3329627215862274
1759347140600433000,5.892432861328125,-0.6622554063796997,0.29751232266426086,-0.4320374131202698
1759347140610489900,5.90248974609375,-0.7347069978713989,0.4321806728839874,-0.5873852372169495
1759347140620546800,5.912546875,-0.7306274771690369,0.4025636613368988,-0.7236814498901367
1759347140630604000,5.92260400390625,-0.66539067029953,0.22945527732372284,-0.7693525552749634
1759347140640662000,5.932662109375,-0.6426608562469482,0.04545531049370766,-0.748857319355011
1759347140650719000,5.942718994140625,-0.6825031042098999,-0.047533754259347916,-0.7158176302909851
1759347140660776000,5.95277587890625,-0.7417123317718506,-0.03757402300834656,-0.6460894346237183
1759347140670833000,5.9628330078125,-0.7815103530883789,-0.08595806360244751,-0.4844728410243988
1759347140680889900,5.972889892578125,-0.770592987537384,-0.1897653043270111,-0.2571464776992798
1759347140690948000,5.982947998046875,-0.7249615788459778,-0.21400566399097443,-0.034816447645425797
1759347140701005000,5.993005126953125,-0.671135663986206,-0.12674427032470703,0.1657874882221222
1759347140711061500,6.0030615234375,-0.649105429649353,0.048384785652160645,0.3650270998477936
1759347140721118500,6.013118408203125,-0.5482089519500732,0.23689226806163788,0.5740721821784973
1759347140731176700,6.0231767578125,-0.34696853160858154,0.4834114909172058,0.7409411072731018
1759347140741233700,6.033233642578125,-0.13506609201431274,0.6029278635978699,0.9304634928703308
1759347140751290600,6.04329052734375,-0.004126039333641529,0.6409100294113159,1.1372045278549194
1759347140761347600,6.05334765625,0.06476061791181564,0.6381725668907166,1.3571491241455078
1759347140771404500,6.063404541015625,0.11509808897972107,0.5813694596290588,1.601796269416809
1759347140781462800,6.073462890625,0.1703086644411087,0.5111871957778931,1.862274169921875
1759347140791519700,6.083519775390625,0.2442680299282074,0.4543003439903259,2.129319190979004
1759347140801576700,6.09357666015625,0.3485582172870636,0.5142984390258789,2.357860803604126
1759347140811633700,6.103633544921875,0.4430389404296875,0.6744904518127441,2.4947991371154785
1759347140821690600,6.113690673828125,0.5204988121986389,0.9205121994018555,2.54258394241333
1759347140831748600,6.12374853515625,0.5226944088935852,1.2893528938293457,2.4831511974334717
1759347140841805600,6.1338056640625,0.4963890612125397,1.6746240854263306,2.3098793029785156
1759347140851862800,6.14386279296875,0.4950297474861145,1.907016634941101,2.0546154975891113
1759347140861919700,6.153919677734375,0.5930364727973938,1.953023910522461,1.8006439208984375
1759347140871976700,6.163976806640625,0.7518066763877869,1.9194581508636475,1.5451804399490356
1759347140882034400,6.174034423828125,0.8691513538360596,2.025151014328003,1.3851232528686523
1759347140892091400,6.18409130859375,0.9291361570358276,2.266542434692383,1.3082151412963867
1759347140902148600,6.194148681640625,0.9659783840179443,2.5878615379333496,1.262129306793213
1759347140912205600,6.20420556640625,0.9313815236091614,2.864340305328369,1.2146131992340088
1759347140922263600,6.214263671875,0.9619734883308411,2.783341646194458,1.0728157758712769
1759347140932320500,6.224320556640625,1.213563084602356,2.283442735671997,0.7864998579025269
1759347140942377500,6.23437744140625,1.4585245847702026,2.0149900913238525,0.5950083136558533
1759347140952434400,6.244434326171875,1.6552605628967285,1.8050899505615234,0.5210616588592529
1759347140962491400,6.254491455078125,1.8809871673583984,1.5407147407531738,0.4647711515426636
1759347140972549400,6.26454931640625,2.0849175453186035,1.1893842220306396,0.5066033005714417
1759347140982606600,6.274606689453125,2.1559152603149414,0.9663034081459045,0.5798142552375793
1759347140992663600,6.28466357421875,2.2112834453582764,0.8614869713783264,0.6829739212989807
1759347141002720500,6.294720458984375,2.3319549560546875,0.7901966571807861,0.8105451464653015
1759347141012777500,6.304777587890625,2.5270464420318604,0.7039288878440857,0.9491930603981018
1759347141022835500,6.31483544921875,2.658496856689453,0.6855785250663757,1.1624407768249512
1759347141032892400,6.324892333984375,2.625415563583374,0.5534955859184265,1.3456671237945557
1759347141042949400,6.334949462890625,2.4808900356292725,-0.02817326784133911,1.475373387336731
1759347141053006600,6.345006591796875,2.2635269165039062,-0.6952564716339111,1.5357874631881714
1759347141063063600,6.3550634765625,2.0033609867095947,-1.0198752880096436,1.5075936317443848
1759347141073121500,6.36512158203125,1.790390133857727,-1.0561474561691284,1.435013771057129
1759347141083178500,6.375178466796875,1.6832472085952759,-1.0340955257415771,1.4073765277862549
1759347141093235500,6.3852353515625,1.6278337240219116,-1.048258662223816,1.475056529045105
1759347141103292400,6.39529248046875,1.5880924463272095,-1.11142897605896,1.5571538209915161
1759347141113349400,6.405349365234375,1.5590834617614746,-1.0506079196929932,1.5757209062576294
1759347141123407600,6.41540771484375,1.4894131422042847,-1.0288885831832886,1.4935104846954346
1759347141133464600,6.425464599609375,1.329801321029663,-1.2376172542572021,1.4974123239517212
1759347141143521500,6.435521484375,1.1076953411102295,-1.4996989965438843,1.5223689079284668
1759347141153578500,6.44557861328125,0.9657081961631775,-1.5304958820343018,1.4321796894073486
1759347141163635500,6.455635498046875,0.8693726062774658,-1.446650743484497,1.2603261470794678
1759347141173693700,6.465693603515625,0.749292254447937,-1.4214105606079102,1.1119917631149292
1759347141183750700,6.475750732421875,0.6676328182220459,-1.272276520729065,0.9220820069313049
1759347141193807600,6.4858076171875,0.5846014022827148,-1.0666861534118652,0.6641858220100403
1759347141203864600,6.495864501953125,0.49466565251350403,-0.9138981699943542,0.35745835304260254
1759347141213922600,6.505922607421875,0.40279024839401245,-0.7522629499435425,0.013324437662959099
1759347141223979500,6.5159794921875,0.32847076654434204,-0.6026444435119629,-0.2936837077140808
1759347141234036500,6.526036376953125,0.27846112847328186,-0.42779240012168884,-0.553256630897522
1759347141244093700,6.53609375,0.24601128697395325,-0.24912892282009125,-0.7570984959602356
1759347141254150700,6.546150634765625,0.25009843707084656,-0.06775563210248947,-0.9178066849708557
1759347141264208600,6.556208740234375,0.24027644097805023,0.028872637078166008,-1.0282772779464722
1759347141274265600,6.566265625,0.21609121561050415,0.10089010745286942,-1.1430096626281738
1759347141284322600,6.576322509765625,0.16523443162441254,0.14830341935157776,-1.2769200801849365
1759347141294379500,6.586379638671875,0.07888303697109222,0.1280394345521927,-1.3973370790481567
1759347141304436500,6.5964365234375,-0.03131323680281639,0.11997424066066742,-1.476580023765564
1759347141314494700,6.60649462890625,-0.123062863945961,0.18830269575119019,-1.5401859283447266
1759347141324551700,6.6165517578125,-0.06902600079774857,0.3692874610424042,-1.4982836246490479
1759347141334608600,6.626608642578125,0.12481722980737686,0.6877216696739197,-1.3520156145095825
1759347141344665600,6.63666552734375,0.4092854857444763,0.8567487001419067,-1.4641677141189575
1759347141354722600,6.64672265625,0.402692049741745,0.888497531414032,-1.7726584672927856
1759347141364780500,6.656780517578125,-0.053583648055791855,0.6629554033279419,-1.7193682193756104
1759347141374837800,6.666837646484375,-0.5936762094497681,-0.4753156006336212,-1.1900036334991455
1759347141384894700,6.676894775390625,-1.0495356321334839,-1.1694440841674805,-0.9653408527374268
1759347141394951700,6.68695166015625,-1.312922716140747,-1.4182273149490356,-1.062808871269226
1759347141405008600,6.697008544921875,-1.4245786666870117,-1.0863128900527954,-0.8918880224227905
1759347141415066400,6.70706640625,-1.448218822479248,-0.915845513343811,-0.7919036149978638
1759347141425123300,6.717123291015625,-1.4702476263046265,-0.9294326901435852,-0.8456279635429382
1759347141435180500,6.7271806640625,-1.4847313165664673,-0.8387094736099243,-1.0234628915786743
1759347141445237800,6.73723779296875,-1.465190052986145,-0.6012767553329468,-1.2363709211349487
1759347141455294700,6.747294677734375,-1.4042319059371948,-0.3811315894126892,-1.3819401264190674
1759347141465352400,6.7573525390625,-1.3190324306488037,-0.26154932379722595,-1.4489119052886963
1759347141475409400,6.767409423828125,-1.2211657762527466,-0.14980095624923706,-1.5013705492019653
1759347141485466400,6.77746630859375,-1.167132019996643,0.0408981591463089,-1.589900016784668
1759347141495523300,6.7875234375,-1.205988883972168,0.22692209482192993,-1.729479193687439
1759347141505580500,6.79758056640625,-1.293715000152588,0.4506070613861084,-1.8458079099655151
1759347141515638500,6.807638427734375,-1.4004549980163574,0.6361153721809387,-1.9288841485977173
1759347141525695500,6.817695556640625,-1.5141760110855103,0.7453718185424805,-2.0136051177978516
1759347141535752400,6.82775244140625,-1.583702564239502,0.7376581430435181,-2.0494234561920166
1759347141545809400,6.837809326171875,-1.6065021753311157,0.7241985201835632,-2.006255865097046
1759347141555866400,6.847866455078125,-1.598989725112915,0.6500640511512756,-1.864859700202942
1759347141565924600,6.857924560546875,-1.5608150959014893,0.4752245545387268,-1.6629297733306885
1759347141575981600,6.867981689453125,-1.4939866065979004,0.25132787227630615,-1.4366109371185303
1759347141586038500,6.87803857421875,-1.3642038106918335,-0.043192170560359955,-1.1824979782104492
1759347141596095500,6.888095458984375,-1.2042971849441528,-0.3611827790737152,-0.9268323183059692
1759347141606152400,6.89815234375,-1.104227900505066,-0.6046945452690125,-0.6939801573753357
1759347141616210400,6.90821044921875,-1.061286211013794,-0.7749007940292358,-0.45470184087753296
1759347141626267600,6.918267578125,-1.0654232501983643,-0.8918809294700623,-0.19818858802318573
1759347141636324600,6.92832470703125,-1.0686293840408325,-1.0181623697280884,0.04305518418550491
1759347141646381600,6.938381591796875,-1.046501874923706,-1.1324867010116577,0.23406875133514404
1759347141656438500,6.9484384765625,-1.016610026359558,-1.1961849927902222,0.36186346411705017
1759347141666496500,6.95849658203125,-0.9842132925987244,-1.225738763809204,0.41724133491516113
1759347141676553500,6.968553466796875,-0.8966165781021118,-1.2570109367370605,0.42771023511886597
1759347141686610400,6.9786103515625,-0.7704243659973145,-1.3617981672286987,0.38877609372138977
1759347141696667600,6.988667724609375,-0.627531111240387,-1.520309567451477,0.2933600842952728
1759347141706724400,6.998724365234375,-0.5121616721153259,-1.6859064102172852,0.13919652998447418
1759347141716781300,7.00878125,-0.4358519911766052,-1.761099100112915,-0.04044326767325401
1759347141726839600,7.018839599609375,-0.32343170046806335,-1.7963277101516724,-0.25932684540748596
1759347141736896500,7.028896484375,-0.19827166199684143,-1.7789106369018555,-0.49286824464797974
1759347141746953500,7.038953369140625,-0.09302244335412979,-1.6687928438186646,-0.728266179561615
1759347141757010400,7.049010498046875,0.027792921289801598,-1.5077579021453857,-0.9339503645896912
1759347141767067400,7.0590673828125,0.15658289194107056,-1.3459031581878662,-1.0834848880767822
1759347141777125400,7.06912548828125,0.29512718319892883,-1.1694968938827515,-1.1999629735946655
1759347141787182300,7.079182373046875,0.4222712814807892,-0.9148123264312744,-1.249457836151123
1759347141797239600,7.089239501953125,0.5226647257804871,-0.5897114276885986,-1.2127772569656372
1759347141807296500,7.099296630859375,0.6522466540336609,-0.18251009285449982,-1.1827874183654785
1759347141817353500,7.109353515625,0.7996616363525391,0.430512011051178,-1.2643847465515137
1759347141827411500,7.119411376953125,0.923750102519989,1.1667948961257935,-1.5158449411392212
1759347141837468400,7.129468505859375,1.0080066919326782,1.7688233852386475,-1.7530486583709717
1759347141847525400,7.139525390625,0.9778714179992676,1.9839621782302856,-1.7468100786209106
1759347141857582300,7.149582275390625,0.7546910643577576,1.6369456052780151,-1.4230639934539795
1759347141867639600,7.1596396484375,0.5058956146240234,0.8633846044540405,-1.0144137144088745
1759347141877697500,7.169697509765625,0.22547593712806702,0.03630266338586807,-0.581018328666687
1759347141887754500,7.17975439453125,-0.12440362572669983,-0.6121668219566345,-0.3576020896434784
1759347141897811500,7.1898115234375,-0.3472755253314972,-0.839645504951477,-0.2972697913646698
1759347141907868400,7.199868408203125,-0.3030652105808258,-0.7369790077209473,-0.27146562933921814
1759347141917925400,7.20992529296875,-0.10741257667541504,-0.5032359957695007,-0.19716177880764008
1759347141927983600,7.219983642578125,0.06390804052352905,-0.19558072090148926,-0.08762222528457642
1759347141938040600,7.23004052734375,0.11195807158946991,0.08715936541557312,-0.035102542489767075
1759347141948097500,7.24009765625,0.05474697798490524,0.2726195156574249,-0.05470633506774902
1759347141958154500,7.250154541015625,-0.03596555441617966,0.3118492066860199,-0.09540162980556488
1759347141968211500,7.26021142578125,-0.12653140723705292,0.33877962827682495,-0.13146348297595978
1759347141978269400,7.27026953125,-0.19816911220550537,0.44747719168663025,-0.17365141212940216
1759347141988326700,7.28032666015625,-0.23225118219852448,0.49829962849617004,-0.18292267620563507
1759347141998383600,7.290383544921875,-0.22177211940288544,0.47863176465034485,-0.1806163489818573
1759347142008440600,7.300440673828125,-0.1908501535654068,0.4344067871570587,-0.18452373147010803
1759347142018497500,7.31049755859375,-0.20433218777179718,0.3890106678009033,-0.2061614990234375
1759347142028555500,7.320555419921875,-0.29287269711494446,0.3525477349758148,-0.2348666489124298
1759347142038612500,7.330612548828125,-0.41820743680000305,0.318128764629364,-0.24913452565670013
1759347142048669400,7.34066943359375,-0.46102869510650635,0.3265712261199951,-0.2209426760673523
1759347142058726700,7.3507265625,-0.5546883940696716,0.4104360342025757,-0.23150718212127686
1759347142068783600,7.36078369140625,-0.6294680833816528,0.43010368943214417,-0.22443614900112152
1759347142078840600,7.370840576171875,-0.6648183465003967,0.4386574923992157,-0.2385290563106537
1759347142088898300,7.380898193359375,-0.6379445195198059,0.44376224279403687,-0.29804688692092896
1759347142098955500,7.39095556640625,-0.526829183101654,0.3046128749847412,-0.3445776402950287
1759347142109012500,7.401012451171875,-0.39947593212127686,-0.009369243867695332,-0.30718377232551575
1759347142119069400,7.4110693359375,-0.3976822793483734,-0.3249700665473938,-0.23646990954875946
1759347142129126700,7.421126708984375,-0.4777835011482239,-0.4449149966239929,-0.16315004229545593
1759347142139184400,7.431184326171875,-0.5386857390403748,-0.4163835048675537,-0.07559063285589218
1759347142149241300,7.441241455078125,-0.5848888754844666,-0.26173171401023865,0.0014487397857010365
1759347142159298300,7.45129833984375,-0.6546165943145752,-0.03318002447485924,0.05934586375951767
1759347142169355500,7.46135546875,-0.7242851257324219,0.12712214887142181,0.10098546743392944
1759347142179412500,7.47141259765625,-0.7424731850624084,0.2819013297557831,0.10596504807472229
1759347142189470500,7.481470458984375,-0.7156572937965393,0.4498435854911804,0.09146402776241302
1759347142199527400,7.49152734375,-0.6391915678977966,0.5231308341026306,0.13999614119529724
1759347142209584400,7.50158447265625,-0.5709869265556335,0.6206656098365784,0.229159876704216
1759347142219641300,7.511641357421875,-0.45549681782722473,0.6827266216278076,0.38997432589530945
1759347142229698300,7.5216982421875,-0.3553934097290039,0.7458807826042175,0.5683693885803223
1759347142239756300,7.53175634765625,-0.32518652081489563,0.817054033279419,0.7191115021705627
1759347142249813200,7.541813232421875,-0.3142147660255432,0.8080292344093323,0.8388252258300781
1759347142259870500,7.551870361328125,-0.294958233833313,0.7240347266197205,0.9517954587936401
1759347142269927400,7.561927490234375,-0.2679394781589508,0.5888221263885498,1.0745185613632202
1759347142279984400,7.571984375,-0.19915050268173218,0.38100185990333557,1.1847976446151733
1759347142290042400,7.58204248046875,-0.07471375912427902,0.15658527612686157,1.2665419578552246
1759347142300099300,7.592099365234375,0.0958917960524559,0.029288573190569878,1.3090194463729858
1759347142310156300,7.60215625,0.30539464950561523,0.07242755591869354,1.303284764289856
1759347142320213200,7.612213134765625,0.5480131506919861,0.21579192578792572,1.2692162990570068
1759347142330270500,7.6222705078125,0.7761065363883972,0.3847673833370209,1.280021071434021
1759347142340327400,7.632327392578125,0.9452726244926453,0.5179829001426697,1.3490082025527954
1759347142350385400,7.642385498046875,1.0764514207839966,0.5978865623474121,1.4750548601150513
1759347142360442400,7.6524423828125,1.1669635772705078,0.5565869808197021,1.628884196281433
1759347142370499300,7.662499267578125,1.1828421354293823,0.44364792108535767,1.7707310914993286
1759347142380556300,7.672556396484375,1.1080775260925293,0.33998334407806396,1.8540065288543701
1759347142390613200,7.68261328125,0.920786440372467,0.25258585810661316,1.8432114124298096
1759347142400671500,7.69267138671875,0.6518939733505249,0.1421179324388504,1.7103359699249268
1759347142410728400,7.702728515625,0.3357096314430237,0.10536111891269684,1.485117793083191
1759347142420785400,7.712785400390625,0.044710833579301834,0.20848964154720306,1.261006474494934
1759347142430842400,7.72284228515625,-0.19617228209972382,0.338268905878067,1.1226314306259155
1759347142440899300,7.7328994140625,-0.34895461797714233,0.33250343799591064,1.069785237312317
1759347142450957600,7.74295751953125,-0.38010966777801514,0.20744718611240387,1.0596104860305786
1759347142461014500,7.7530146484375,-0.3050761818885803,0.0372011624276638,1.0473783016204834
1759347142471071500,7.763071533203125,-0.16915884613990784,-0.26225149631500244,0.9336546659469604
1759347142481128400,7.77312841796875,-0.056555598974227905,-0.5761615037918091,0.756900429725647
1759347142491185400,7.783185302734375,-0.08427803963422775,-0.7980531454086304,0.6260385513305664
1759347142501242400,7.793242431640625,-0.1838267296552658,-1.0510632991790771,0.5274357795715332
1759347142511300400,7.80330029296875,-0.24419020116329193,-1.2069586515426636,0.4492424726486206
1759347142521357600,7.813357666015625,-0.22767114639282227,-1.0496704578399658,0.41870373487472534
1759347142531414500,7.82341455078125,-0.12288795411586761,-0.641307532787323,0.4181073307991028
1759347142541471500,7.833471435546875,0.03938590735197067,-0.07703056186437607,0.42592474818229675
1759347142551528400,7.843528564453125,0.23173214495182037,0.5901455879211426,0.4090788662433624
1759347142561586400,7.85358642578125,0.33278071880340576,1.094176173210144,0.33699244260787964
1759347142571643400,7.863643310546875,0.19898803532123566,1.3100804090499878,0.1964883655309677
1759347142581700400,7.873700439453125,-0.07849017530679703,1.180007815361023,0.0913531556725502
1759347142591757600,7.883757568359375,-0.2960384786128998,0.9407797455787659,0.007250333204865456
1759347142601814500,7.893814453125,-0.3465341329574585,0.6508105397224426,-0.06640364229679108
1759347142611871500,7.90387158203125,-0.2913918197154999,0.4023495316505432,-0.15792760252952576
1759347142621929500,7.913929443359375,-0.18715515732765198,0.21042853593826294,-0.2549673020839691
1759347142631986400,7.923986328125,-0.09801170229911804,0.04585716873407364,-0.33807018399238586
1759347142642043400,7.93404345703125,-0.019646592438220978,-0.13408759236335754,-0.4088311493396759
1759347142652100400,7.944100341796875,0.015377704054117203,-0.3537861406803131,-0.4791939854621887
1759347142662157600,7.954157470703125,0.026287611573934555,-0.6547699570655823,-0.5503422617912292
1759347142672215600,7.964215576171875,0.05529584735631943,-1.000677466392517,-0.5674409866333008
1759347142682272500,7.9742724609375,0.08224596083164215,-1.3367985486984253,-0.5608386397361755
1759347142692329500,7.98432958984375,0.11790435761213303,-1.6382286548614502,-0.566572904586792
1759347142702386400,7.994386474609375,0.1521827131509781,-1.8783135414123535,-0.5839666128158569
1759347142712443600,8.004443603515625,0.1884097009897232,-2.0146102905273438,-0.5933260321617126
1759347142722500600,8.01450048828125,0.2411453127861023,-2.042956590652466,-0.5801335573196411
1759347142732558600,8.02455859375,0.2791566252708435,-2.001487970352173,-0.5342656970024109
1759347142742615600,8.034615478515626,0.29067423939704895,-1.894814372062683,-0.4694795310497284
1759347142752672800,8.0446728515625,0.36203497648239136,-1.7395826578140259,-0.37999942898750305
1759347142762729700,8.054729736328126,0.46909061074256897,-1.5276262760162354,-0.29832425713539124
1759347142772786700,8.06478662109375,0.5726289749145508,-1.240529179573059,-0.2505719065666199
1759347142782844400,8.074844482421875,0.6437569260597229,-0.9239925742149353,-0.21156476438045502
1759347142792901600,8.084901611328124,0.7023637890815735,-0.5372869372367859,-0.16550299525260925
1759347142802958600,8.09495849609375,0.7327566146850586,-0.13110293447971344,-0.09304796904325485
1759347142813015600,8.105015625,0.7193166613578796,0.22102171182632446,-0.030783919617533684
1759347142823072800,8.11507275390625,0.6701017618179321,0.4625895917415619,0.010888693854212761
1759347142833129700,8.125129638671876,0.6104810237884521,0.5836251974105835,0.010708235204219818
1759347142843187500,8.1351875,0.5618671178817749,0.5702379941940308,-0.057677216827869415
1759347142853244400,8.145244384765626,0.5110918283462524,0.4662168323993683,-0.16855071485042572
1759347142863301600,8.155301513671875,0.43131446838378906,0.31145283579826355,-0.2894102931022644
1759347142873358600,8.165358642578125,0.291791707277298,0.05390041694045067,-0.3746336102485657
1759347142883415600,8.17541552734375,0.11685211956501007,-0.2680478096008301,-0.3744021952152252
1759347142893473500,8.1854736328125,-0.014162619598209858,-0.6389499306678772,-0.2910311818122864
1759347142903530500,8.195530517578124,-0.05145566165447235,-1.0179352760314941,-0.2366340011358261
1759347142913587500,8.20558740234375,-0.01435917615890503,-1.1894298791885376,-0.24466794729232788
1759347142923644400,8.21564453125,0.04997560381889343,-0.7479838132858276,-0.2470749020576477
1759347142933701600,8.22570166015625,0.12346874922513962,0.20297035574913025,-0.18819719552993774
1759347142943758600,8.235758544921875,0.13350139558315277,1.071165680885315,-0.06523291766643524
1759347142953816600,8.245816650390625,0.1059509888291359,1.559572696685791,0.12342330068349838
1759347142963873500,8.25587353515625,0.03274308517575264,1.6011954545974731,0.29000324010849
1759347142973930500,8.265930419921874,-0.40290290117263794,0.878998875617981,0.3450343608856201
1759347142983987500,8.275987548828125,-0.5672569870948792,-0.09036804735660553,0.3903205990791321
1759347142994044400,8.28604443359375,-0.45434024930000305,-0.8811259269714355,0.46391209959983826
1759347143004101600,8.2961015625,-0.1502179205417633,-1.3076894283294678,0.4674476981163025
1759347143014159400,8.306159423828126,-0.14219701290130615,-1.4922969341278076,0.26476675271987915
1759347143024216600,8.316216552734375,-0.28164517879486084,-1.484825611114502,-0.038119859993457794
1759347143034273500,8.3262734375,-0.3722477853298187,-1.465188980102539,-0.319384902715683
1759347143044330500,8.33633056640625,-0.3709535300731659,-1.562639594078064,-0.5475717186927795
1759347143054387500,8.346387451171875,-0.33980491757392883,-1.7740452289581299,-0.7346295118331909
1759347143064445400,8.356445556640624,-0.3137620985507965,-1.9270052909851074,-0.9074698090553284
1759347143074502400,8.36650244140625,-0.30433931946754456,-1.835505723953247,-0.9821259379386902
1759347143084559400,8.376559326171876,-0.3114158511161804,-1.448144793510437,-0.9045527577400208
1759347143094616600,8.386616455078125,-0.36849087476730347,-0.8974584937095642,-0.6855442523956299
1759347143104673500,8.396673583984375,-0.4491306245326996,-0.3858237862586975,-0.3761296570301056
1759347143114730500,8.40673046875,-0.5174835324287415,-0.04131593555212021,-0.019835731014609337
1759347143124788500,8.41678857421875,-0.5716232061386108,0.10516126453876495,0.3205016851425171
1759347143134845400,8.426845458984374,-0.6232070326805115,0.10863908380270004,0.5812166333198547
1759347143144902400,8.43690234375,-0.6679225564002991,0.05054152384400368,0.7212594151496887
1759347143154959400,8.44695947265625,-0.6900177597999573,-0.07301130145788193,0.7426557540893555
1759347143165016600,8.4570166015625,-0.6948381066322327,-0.235895574092865,0.6405195593833923
1759347143175073500,8.467073486328125,-0.6751165986061096,-0.3714047968387604,0.4604108929634094
1759347143185131500,8.477131591796875,-0.6181917786598206,-0.47075533866882324,0.23746170103549957
1759347143195188500,8.4871884765625,-0.5474758148193359,-0.5309950709342957,-0.012253712862730026
1759347143205245400,8.497245361328124,-0.47121062874794006,-0.5898709297180176,-0.26065394282341003
1759347143215302400,8.507302490234375,-0.38902679085731506,-0.6550335884094238,-0.4778193235397339
1759347143225359400,8.517359375,-0.2682819962501526,-0.6779612898826599,-0.6203845143318176
1759347143235417600,8.52741748046875,-0.1724683791399002,-0.5420774221420288,-0.7317999601364136
1759347143245474600,8.537474609375,-0.08616279065608978,-0.3233397305011749,-0.7937852740287781
1759347143255531500,8.547531494140625,-0.05551405996084213,-0.06792591512203217,-0.7859758138656616
1759347143265588500,8.55758837890625,-0.05292600020766258,0.17195937037467957,-0.7164660096168518
1759347143275645400,8.5676455078125,-0.10647578537464142,0.39523106813430786,-0.6185817718505859
1759347143285702400,8.577702392578125,-0.1968599259853363,0.5653820037841797,-0.5051801204681396
1759347143295760600,8.5877607421875,-0.30391401052474976,0.6514492630958557,-0.40045106410980225
1759347143305817600,8.597817626953125,-0.4627401530742645,0.6514878869056702,-0.30780714750289917
1759347143315874600,8.60787451171875,-0.649537205696106,0.5686928629875183,-0.20300185680389404
1759347143325931500,8.617931640625,-0.855534553527832,0.4019818902015686,-0.09995031356811523
1759347143335988500,8.627988525390625,-1.1014039516448975,0.1735202968120575,-0.0021619321778416634
1759347143346045400,8.63804541015625,-1.3450590372085571,-0.12284133583307266,0.10474374145269394
1759347143356103700,8.648103759765625,-1.4893295764923096,-0.48576876521110535,0.24316269159317017
1759347143366160600,8.65816064453125,-1.479787826538086,-0.8584243655204773,0.4027707278728485
1759347143376217600,8.668217529296875,-1.320955514907837,-1.1625161170959473,0.5439016222953796
1759347143386274600,8.678274658203126,-1.0233345031738281,-1.3423922061920166,0.6260548233985901
1759347143396331500,8.68833154296875,-0.6113107204437256,-1.339426875114441,0.6494767665863037
1759347143406388500,8.698388427734375,-0.20630118250846863,-1.1052287817001343,0.5795699954032898
1759347143416446500,8.708446533203125,0.12465756386518478,-0.7036488056182861,0.4429194927215576
1759347143426503700,8.718503662109375,0.3048510253429413,-0.21503084897994995,0.2750581204891205
1759347143436560600,8.728560546875,0.3175615072250366,0.2665371000766754,0.10323600471019745
1759347143446617600,8.73861767578125,0.23866455256938934,0.6512214541435242,-0.040385518223047256
1759347143456674600,8.748674560546876,0.15301010012626648,0.8652210831642151,-0.1288304328918457
1759347143466731500,8.7587314453125,0.0960107371211052,0.8971399068832397,-0.15756982564926147
1759347143476789500,8.76878955078125,0.07286839932203293,0.8015853762626648,-0.1397588700056076
1759347143486846500,8.778846435546875,0.051428623497486115,0.6180904507637024,-0.1023392379283905
1759347143496903700,8.788903564453125,0.05488407611846924,0.4544418752193451,-0.054154131561517715
1759347143506960600,8.798960693359374,0.0595288947224617,0.3228079080581665,-0.0008538211695849895
1759347143517017600,8.809017578125,0.020445406436920166,0.22032307088375092,0.060476645827293396
1759347143527074600,8.819074462890624,-0.02626456506550312,0.22119776904582977,0.1213357076048851
1759347143537132500,8.829132568359375,-0.06988821178674698,0.2594090700149536,0.19630607962608337
1759347143547189500,8.839189453125,-0.10147330164909363,0.40994367003440857,0.25435346364974976
1759347143557246500,8.84924658203125,-0.13789762556552887,0.6345133781433105,0.29848045110702515
1759347143567303700,8.8593037109375,-0.1700720638036728,0.8049554228782654,0.3308732509613037
1759347143577360600,8.869360595703125,-0.19417446851730347,0.8769791126251221,0.355669766664505
1759347143587417600,8.87941748046875,-0.21699589490890503,0.7836526036262512,0.39517003297805786
1759347143597475600,8.8894755859375,-0.20609106123447418,0.6533607244491577,0.41364964842796326
1759347143607532500,8.899532470703125,-0.1639912724494934,0.4523636996746063,0.41904786229133606
1759347143617589500,8.909589599609374,-0.10677886009216309,0.13900412619113922,0.3618347942829132
1759347143627646500,8.919646484375,-0.03915027529001236,-0.13757845759391785,0.2724399268627167
1759347143637703700,8.92970361328125,0.00861617736518383,-0.3149462044239044,0.19003570079803467
1759347143647760600,8.9397607421875,0.02661861479282379,-0.3986123204231262,0.13335058093070984
1759347143657818600,8.949818603515626,0.03253509849309921,-0.3693203330039978,0.10053837299346924
1759347143667875600,8.95987548828125,0.04730072617530823,-0.257526159286499,0.07844744622707367
1759347143677932500,8.9699326171875,0.08054496347904205,-0.08288148790597916,0.04908456653356552
1759347143687989500,8.979989501953124,0.11155001819133759,0.08583695441484451,0.02373899705708027
1759347143698046500,8.99004638671875,0.09019891917705536,0.12439709156751633,0.048076704144477844
1759347143708103000,9.00010302734375,0.07554780691862106,0.1742064505815506,0.0603855662047863
1759347143718161200,9.0101611328125,0.0726228728890419,0.18260817229747772,0.06993924826383591
1759347143728218000,9.020218017578125,0.08735547959804535,0.16551387310028076,0.0653223916888237
1759347143738275000,9.030275146484374,0.10382578521966934,0.12870340049266815,0.050845783203840256
1759347143748332000,9.04033203125,0.11928010731935501,0.10718559473752975,0.04342328757047653
1759347143758389000,9.050388916015624,0.12440936267375946,0.08665761351585388,0.041419900953769684
1759347143768446000,9.060446044921875,0.12078534066677094,0.08741021901369095,0.0449531152844429
1759347143778504200,9.070504150390626,0.11576633155345917,0.11513099819421768,0.04821744188666344
1759347143788561200,9.08056103515625,0.11163603514432907,0.15571996569633484,0.04920494183897972
1759347143798618000,9.0906181640625,0.10108673572540283,0.1791897416114807,0.05351659655570984
1759347143808675000,9.100675048828125,0.08417325466871262,0.1690489947795868,0.05899369344115257
1759347143818732000,9.11073193359375,0.06834528595209122,0.1358574777841568,0.05796677619218826
1759347143828789000,9.1207890625,0.05849132686853409,0.10041879862546921,0.04210818558931351
1759347143838846000,9.130845947265625,0.04795799031853676,0.06820600479841232,0.01685209758579731
1759347143848904200,9.140904296875,0.027378691360354424,0.02579890750348568,-0.0025680474936962128
1759347143858961200,9.150961181640625,0.0015263198874890804,-0.024767063558101654,-0.015244961716234684
1759347143869018000,9.16101806640625,-0.020033830776810646,-0.07233726978302002,-0.020891893655061722
1759347143879075000,9.171074951171875,-0.02619824931025505,-0.10225947946310043,-0.023539073765277863
1759347143889132000,9.181132080078125,-0.02651331201195717,-0.11408652365207672,-0.02821211889386177
1759347143899189000,9.19118896484375,-0.03388387709856033,-0.11450064927339554,-0.02315903827548027
1759347143909247200,9.201247314453125,-0.03896119073033333,-0.10753510892391205,-0.00918903760612011
1759347143919304200,9.21130419921875,-0.03830871731042862,-0.09284164756536484,0.007778227794915438
1759347143929361200,9.221361083984375,-0.03149821609258652,-0.06465262174606323,0.024725252762436867
1759347143939418000,9.231418212890626,-0.023936692625284195,-0.025031806901097298,0.03242618963122368
1759347143949475000,9.24147509765625,-0.014406837522983551,0.024856390431523323,0.03758659586310387
1759347143959532000,9.251531982421875,-0.009991860017180443,0.06669773906469345,0.03649555519223213
1759347143969590000,9.261590087890625,-0.008362804539501667,0.08555158227682114,0.030434466898441315
1759347143979647200,9.271647216796875,-0.003956857603043318,0.07979684323072433,0.022194894030690193
1759347143989704200,9.2817041015625,0.004987102467566729,0.05980662629008293,0.010823993943631649
1759347143999761200,9.29176123046875,0.015178216621279716,0.03844599053263664,-0.0053353384137153625
1759347144009818000,9.301818115234376,0.021502159535884857,0.01760702393949032,-0.019608017057180405
1759347144019875000,9.311875,0.022011101245880127,0.005710827186703682,-0.03124931827187538
1759347144029932000,9.32193212890625,0.014878889545798302,0.002136864699423313,-0.04311743006110191
1759347144039990000,9.331989990234375,0.006842783652245998,0.011326154693961143,-0.049262404441833496
1759347144050047200,9.342047119140625,-0.005290578585118055,0.01781627908349037,-0.0495726615190506
1759347144060104200,9.352104248046874,-0.013979652896523476,0.017025386914610863,-0.046155814081430435
1759347144070161200,9.3621611328125,-0.017152810469269753,0.008788497187197208,-0.04004652053117752
1759347144080218000,9.372218017578126,-0.016296876594424248,-0.0009450421202927828,-0.035618022084236145
1759347144090275000,9.382275146484375,-0.006833599880337715,-0.010269035585224628,-0.030314069241285324
1759347144100333000,9.3923330078125,0.007383938878774643,-0.006757120601832867,-0.026144815608859062
1759347144110390000,9.40239013671875,0.01819317787885666,0.006008475553244352,-0.02161717601120472
1759347144120447200,9.412447265625,0.01807815209031105,0.020901475101709366,-0.014517441391944885
1759347144130504200,9.422504150390624,0.01890799030661583,0.03859551623463631,-0.01106065884232521
1759347144140561200,9.43256103515625,0.018211588263511658,0.05846940726041794,-0.007376053836196661
1759347144150618000,9.4426181640625,0.016269344836473465,0.06909222155809402,-0.007200818043202162
1759347144160676000,9.452676025390625,0.010936081409454346,0.06785421818494797,-0.005891480483114719
1759347144170733000,9.462733154296876,0.002399586606770754,0.05383293703198433,-0.007438245229423046
1759347144180790000,9.4727900390625,-0.00371555145829916,0.031854599714279175,-0.012998553924262524
1759347144190847200,9.48284716796875,-0.01018357090651989,0.004361985716968775,-0.018832210451364517
1759347144200904200,9.492904296875,-0.016367729753255844,0.006993724964559078,-0.005565256346017122
1759347144210961200,9.502961181640625,-0.014713108539581299,0.05283818021416664,0.01991879753768444
1759347144221018000,9.51301806640625,-0.007942000404000282,0.08730967342853546,0.02609388157725334
1759347144231076000,9.523076171875,-0.006865817122161388,0.0789548009634018,0.003006939310580492
1759347144241133000,9.533133056640626,-0.01768307015299797,0.025128744542598724,-0.03629665821790695
1759347144251190000,9.54318994140625,-0.027459774166345596,-0.04685040935873985,-0.07327982038259506
1759347144261247200,9.553247314453126,-0.02338327094912529,-0.08411601930856705,-0.09646876156330109
