time,seconds_elapsed,z,y,x
1759157723057098200,0.02209814453125,-0.0010431602131575346,0.0005163869354873896,-0.008556736633181572
1759157723067157200,0.0321572265625,-0.0062696137465536594,0.014769092202186584,-0.018762769177556038
1759157723077217000,0.042217041015625,-0.005221926141530275,0.023556191474199295,-0.025526931509375572
1759157723087276300,0.0522763671875,-0.0034173682797700167,0.027094468474388123,-0.02623453363776207
1759157723097336300,0.06233642578125,0.001817873795516789,0.027235349640250206,-0.026671558618545532
1759157723107395000,0.07239501953125,0.01104253064841032,0.0139019675552845,-0.02654425986111164
1759157723117455400,0.082455322265625,0.015136875212192535,-0.008658469654619694,-0.02040327526628971
1759157723127514000,0.09251416015625,0.014636999927461147,-0.03009372018277645,-0.009224124252796173
1759157723137574100,0.10257421875,0.010220945812761784,-0.03935486450791359,-0.0020762004423886538
1759157723147633400,0.11263330078125,0.0043473439291119576,-0.041614823043346405,0.00006870955257909372
1759157723157693200,0.122693115234375,0.0020535634830594063,-0.0392395481467247,0.0015731292078271508
1759157723167753200,0.132753173828125,-0.0007313040550798178,-0.025110412389039993,0.005511411931365728
1759157723177812200,0.142812255859375,-0.0007190534961409867,-0.006330333650112152,0.008333830162882805
1759157723187872300,0.152872314453125,-0.0009755159262567759,0.0054850466549396515,0.004266650415956974
1759157723197931300,0.16293115234375,-0.001377386855892837,0.01804424822330475,-0.000743820914067328
1759157723207991000,0.172990966796875,0.0003632551815826446,0.026072613894939423,-0.006824882701039314
1759157723218050300,0.18305029296875,0.0009190568816848099,0.024325845763087273,-0.01167343370616436
1759157723228110300,0.1931103515625,0.0013225257862359285,0.016281235963106155,-0.013644172810018063
1759157723238169000,0.203169189453125,0.0002985403698403388,0.004550276789814234,-0.011003382503986359
1759157723248229400,0.2132294921875,0.0005803027888759971,-0.0037116475868970156,-0.005902896635234356
1759157723258288000,0.2232880859375,0.0003608583356253803,-0.011538677848875523,0.0011779161868616939
1759157723268348200,0.23334814453125,-0.0009499495499767363,-0.016341688111424446,0.007906392216682434
1759157723278408200,0.243408203125,-0.000368847802747041,-0.014860439114272594,0.006682670209556818
1759157723288467200,0.25346728515625,-0.00033902039285749197,-0.008347677998244762,0.004614192992448807
1759157723298527200,0.26352734375,0.0015611450653523207,-0.0028003137558698654,-0.001294029993005097
1759157723308586200,0.273586181640625,0.004849083721637726,0.0007060039788484573,-0.002737463219091296
1759157723318646300,0.283646240234375,0.00672235107049346,0.0034946000669151545,-0.0016000272007659078
1759157723328705300,0.293705322265625,0.00692075677216053,0.0036362800747156143,0.003977697342634201
1759157723338765000,0.30376513671875,0.008833439089357853,-0.0007305050967261195,0.007840612903237343
1759157723348824300,0.31382421875,0.007543670013546944,-0.006101834587752819,0.011827897280454636
1759157723358884000,0.323884033203125,0.005840844940394163,-0.011186341755092144,0.016284430399537086
1759157723368944000,0.333944091796875,0.00549250328913331,-0.013587181456387043,0.01786341890692711
1759157723379003400,0.34400341796875,0.006335127633064985,-0.015291071496903896,0.015284414403140545
1759157723389063200,0.354063232421875,0.005881591234356165,-0.016981646418571472,0.012258530594408512
1759157723399122200,0.3641220703125,0.008561796508729458,-0.021470937877893448,0.009377788752317429
1759157723409182200,0.37418212890625,0.007441937457770109,-0.0260638240724802,0.007930094376206398
1759157723419241200,0.3842412109375,0.007713579572737217,-0.026217754930257797,0.010633203200995922
1759157723429301200,0.39430126953125,0.008529571816325188,-0.024947427213191986,0.010943727567791939
1759157723439360300,0.4043603515625,0.010374610312283039,-0.02526700682938099,0.013448962941765785
1759157723449420300,0.414420166015625,0.00609437795355916,-0.02219451777637005,0.012656406499445438
1759157723459479000,0.42447900390625,0.004247475415468216,-0.01962350308895111,0.011392204090952873
1759157723469539000,0.4345390625,0.0028248149901628494,-0.0150388702750206,0.011540275998413563
1759157723479599400,0.444599365234375,0.0011169298086315393,-0.01318158209323883,0.01255121175199747
1759157723489658000,0.454658203125,0.002246909076347947,-0.01227424293756485,0.013010873459279537
1759157723499718100,0.46471826171875,0.0023073628544807434,-0.014259629882872105,0.01404524501413107
1759157723509777400,0.47477734375,0.0008080030675046146,-0.020261062309145927,0.01338691171258688
1759157723519837200,0.484837158203125,0.0010868359822779894,-0.026207102462649345,0.011434814892709255
1759157723529896200,0.494896240234375,-0.0000010652644277797663,-0.02768675424158573,0.011393535882234573
1759157723539956000,0.5049560546875,-0.0008958873804658651,-0.028061995282769203,0.008610798977315426
1759157723550016300,0.515016357421875,-0.0017305220244452357,-0.023994548246264458,0.005380916874855757
1759157723560075300,0.5250751953125,-0.004619252867996693,-0.018263692036271095,0.003722566645592451
1759157723570135000,0.535135009765625,-0.005135640036314726,-0.010541590861976147,0.003058107802644372
1759157723580194300,0.5451943359375,-0.006956176832318306,-0.008054464124143124,0.001894839107990265
1759157723590254300,0.55525439453125,-0.006711698602885008,-0.007670969236642122,0.0012538161827251315
1759157723600313000,0.56531298828125,-0.005930326879024506,-0.009225722402334213,0.002906573936343193
1759157723610373400,0.575373291015625,-0.00603498937562108,-0.010930411517620087,0.004958007019013166
1759157723620432100,0.58543212890625,-0.002986468840390444,-0.014579741284251213,0.00660463934764266
1759157723630492200,0.5954921875,-0.004570250865072012,-0.02388695627450943,0.010760501958429813
1759157723640552200,0.60555224609375,-0.008113319985568523,-0.03994635120034218,0.015153120271861553
1759157723650611200,0.615611083984375,-0.009987120516598225,-0.05721721798181534,0.01822427660226822
1759157723660671200,0.625671142578125,-0.010994860902428627,-0.06938014179468155,0.026251310482621193
1759157723670730200,0.635730224609375,-0.01053440012037754,-0.07428914308547974,0.03189721331000328
1759157723680790300,0.645790283203125,-0.009998572058975697,-0.06807492673397064,0.033485256135463715
1759157723690849300,0.655849365234375,-0.0025691515766084194,-0.0516970157623291,0.028145086020231247
1759157723700909000,0.665908935546875,0.002290318487212062,-0.026211630553007126,0.01750549115240574
1759157723710969000,0.675968994140625,0.005256813485175371,0.0008833705214783549,0.006523945834487677
1759157723721028000,0.686028076171875,0.00583764910697937,0.02857545204460621,-0.005810751114040613
1759157723731088100,0.696088134765625,0.007439806591719389,0.05380464345216751,-0.012205533683300018
1759157723741147400,0.7061474609375,0.005145493429154158,0.07778134942054749,-0.015693742781877518
1759157723751207200,0.716207275390625,0.005820072256028652,0.09308120608329773,-0.015803463757038116
1759157723761265700,0.726265625,0.007726895622909069,0.10308191180229187,-0.019041601568460464
1759157723771326000,0.736325927734375,0.008139685727655888,0.10212929546833038,-0.01792120933532715
1759157723781385000,0.746385009765625,0.010543454438447952,0.09308839589357376,-0.021350828930735588
1759157723791444700,0.75644482421875,0.008737565018236637,0.07537305355072021,-0.023674169555306435
1759157723801504800,0.7665048828125,0.009236641228199005,0.05951898545026779,-0.022820360958576202
1759157723811563800,0.776563720703125,0.007464574184268713,0.05181046575307846,-0.019396601244807243
1759157723821623800,0.786623779296875,0.010499512776732445,0.04288115352392197,-0.014163489453494549
1759157723831682800,0.796682861328125,0.01302312407642603,0.03532550111413002,-0.007233145646750927
1759157723841742800,0.806742919921875,0.01565645821392536,0.0335766039788723,-0.005375856999307871
1759157723851801900,0.8168017578125,0.013396765105426311,0.029110480099916458,-0.00926487147808075
1759157723861862000,0.82686181640625,0.00965688843280077,0.019163575023412704,-0.013738448731601238
1759157723871921700,0.836921630859375,0.008116782642900944,0.00811864621937275,-0.018278606235980988
1759157723881981000,0.84698095703125,0.004340153653174639,0.0011771172285079956,-0.020119115710258484
1759157723892040700,0.857040771484375,0.00047058056225068867,-0.00740278884768486,-0.01757925935089588
1759157723902100000,0.867099853515625,-0.0024080302100628614,-0.017789116129279137,-0.014123009517788887
1759157723912160000,0.877159912109375,-0.005558549892157316,-0.020114589482545853,-0.011288074776530266
1759157723922219800,0.8872197265625,-0.005434446502476931,-0.011918711476027966,-0.010201770812273026
1759157723932278800,0.89727880859375,-0.0059566921554505825,-0.0019896477460861206,-0.014813034795224667
1759157723942338800,0.9073388671875,-0.003150785807520151,0.0073018549010157585,-0.023629961535334587
1759157723952397800,0.917397705078125,-0.0026522420812398195,0.017850369215011597,-0.030664967373013496
1759157723962457900,0.927457763671875,-0.003611779073253274,0.03753778710961342,-0.032950494438409805
1759157723972516900,0.937516845703125,-0.006926615722477436,0.05596419796347618,-0.028919799253344536
1759157723982577000,0.947576904296875,-0.008962868712842464,0.06645678728818893,-0.02767796628177166
1759157723992637000,0.957636962890625,-0.012630574405193329,0.06947708129882812,-0.03014085814356804
1759157724002695700,0.96769580078125,-0.014723552390933037,0.0718558132648468,-0.03111264482140541
1759157724012756000,0.977755859375,-0.019696738570928574,0.060010604560375214,-0.02366005629301071
1759157724022814700,0.987814697265625,-0.01726926863193512,0.053155362606048584,-0.012050803750753403
1759157724032874800,0.997874755859375,-0.01601092517375946,0.04529611021280289,0.00039947417099028826
1759157724042934000,1.00793408203125,-0.018688999116420746,0.027587952092289925,0.010361027903854847
1759157724052993800,1.017993896484375,-0.015232481993734837,0.00010279801790602505,0.017846908420324326
1759157724063053800,1.0280537109375,-0.024093085899949074,-0.025380190461874008,0.022585736587643623
1759157724073112800,1.03811279296875,-0.03140133246779442,-0.0594385601580143,0.02827637828886509
1759157724083172900,1.0481728515625,-0.033298034220933914,-0.07809426635503769,0.03454146534204483
1759157724093231900,1.05823193359375,-0.030840469524264336,-0.10075990110635757,0.042081672698259354
1759157724103291600,1.068291748046875,-0.030414365231990814,-0.11453643441200256,0.04681810364127159
1759157724113352000,1.07835205078125,-0.032525453716516495,-0.1329636424779892,0.051652275025844574
1759157724123411000,1.088410888671875,-0.03341281786561012,-0.14255741238594055,0.05114440992474556
1759157724133470700,1.098470703125,-0.02990223839879036,-0.14210760593414307,0.049787264317274094
1759157724143530000,1.108530029296875,-0.03662538900971413,-0.1710311323404312,0.05366881936788559
1759157724153589800,1.11858984375,-0.04585510492324829,-0.20646315813064575,0.06301385164260864
1759157724163648800,1.128648681640625,-0.05360543727874756,-0.2164556086063385,0.07231813669204712
1759157724173708800,1.138708740234375,-0.05918928608298302,-0.22664380073547363,0.07763327658176422
1759157724183768800,1.148768798828125,-0.05672772601246834,-0.23462821543216705,0.08590079098939896
1759157724193827800,1.158827880859375,-0.0495678186416626,-0.21074579656124115,0.08578681200742722
1759157724203887900,1.168887939453125,-0.050401389598846436,-0.1829485148191452,0.0782410055398941
1759157724213947000,1.17894677734375,-0.047331828624010086,-0.15012185275554657,0.068701833486557
1759157724224007000,1.1890068359375,-0.046132076531648636,-0.1144874319434166,0.05485685542225838
1759157724234066700,1.199066650390625,-0.05185334384441376,-0.08899059146642685,0.03772740438580513
1759157724244126000,1.2091259765625,-0.06259653717279434,-0.08545152097940445,0.022495988756418228
1759157724254186000,1.21918603515625,-0.07024193555116653,-0.06956043839454651,0.0016591493040323257
1759157724264244700,1.22924462890625,-0.07892756909132004,-0.05565846711397171,-0.010308030992746353
1759157724274304800,1.2393046875,-0.08127354830503464,-0.03440085053443909,-0.023964455351233482
1759157724284365000,1.249364990234375,-0.08279740810394287,0.021453093737363815,-0.03514600172638893
1759157724294423800,1.259423828125,-0.08235585689544678,0.0910835713148117,-0.053413424640893936
1759157724304483800,1.26948388671875,-0.07363826781511307,0.15745460987091064,-0.07804100215435028
1759157724314542800,1.27954296875,-0.07190588116645813,0.19548960030078888,-0.11072811484336853
1759157724324603000,1.289602783203125,-0.06426580250263214,0.23046515882015228,-0.14587996900081635
1759157724334663000,1.299662841796875,-0.07011357694864273,0.25144341588020325,-0.1766783595085144
1759157724344722000,1.309721923828125,-0.06496728211641312,0.2715177834033966,-0.1954275518655777
1759157724354782000,1.319781982421875,-0.032279375940561295,0.24870648980140686,-0.18838243186473846
1759157724364840700,1.3298408203125,-0.023375364020466805,0.2063734084367752,-0.16159048676490784
1759157724374900700,1.339900634765625,-0.03687679022550583,0.2297399938106537,-0.1745782047510147
1759157724384960000,1.3499599609375,-0.05758766084909439,0.27933791279792786,-0.19301126897335052
1759157724395019800,1.360019775390625,-0.0805497020483017,0.330403208732605,-0.19439610838890076
1759157724405079800,1.370079833984375,-0.09854920953512192,0.4057280719280243,-0.17002658545970917
1759157724415138800,1.380138916015625,-0.10785775631666183,0.4678622782230377,-0.12122416496276855
1759157724425198800,1.39019873046875,-0.10249707847833633,0.5282193422317505,-0.06120236963033676
1759157724435257900,1.4002578125,-0.08836714923381805,0.5619804859161377,-0.0005954828229732811
1759157724445317600,1.410317626953125,-0.08249887079000473,0.5481901168823242,0.043119773268699646
1759157724455378000,1.4203779296875,-0.08919405937194824,0.4813612997531891,0.08557695150375366
1759157724465437000,1.43043701171875,-0.11083757132291794,0.4480249285697937,0.1187298446893692
1759157724475496700,1.44049658203125,-0.16103681921958923,0.47703179717063904,0.1367112398147583
1759157724485556000,1.450555908203125,-0.21683244407176971,0.5497041344642639,0.14781290292739868
1759157724495615700,1.46061572265625,-0.2536751329898834,0.5934982299804688,0.1687338948249817
1759157724505675800,1.47067578125,-0.2917026877403259,0.5710472464561462,0.18893982470035553
1759157724515734800,1.48073486328125,-0.3147675395011902,0.5407378077507019,0.1997285634279251
1759157724525794800,1.490794921875,-0.31544584035873413,0.5370229482650757,0.19813492894172668
1759157724535853800,1.500853759765625,-0.3186642527580261,0.5439572930335999,0.18439461290836334
1759157724545913900,1.510913818359375,-0.3432215452194214,0.5813435316085815,0.15778324007987976
1759157724555974000,1.520973876953125,-0.3478703498840332,0.6176466941833496,0.14141784608364105
1759157724566033000,1.531032958984375,-0.332751601934433,0.6200936436653137,0.1363850086927414
1759157724576092700,1.5410927734375,-0.3392281234264374,0.6252039670944214,0.12516111135482788
1759157724586152700,1.551152587890625,-0.3467385172843933,0.6565709114074707,0.11883583664894104
1759157724596212000,1.5612119140625,-0.3299579322338104,0.6816203594207764,0.11261123418807983
1759157724606271700,1.571271728515625,-0.3126372694969177,0.6851993799209595,0.08610718697309494
1759157724616330800,1.581330810546875,-0.32062649726867676,0.6582359671592712,0.03260108456015587
1759157724626391000,1.59139111328125,-0.32252585887908936,0.5810127854347229,-0.02823030576109886
1759157724636450800,1.601450927734375,-0.31273153424263,0.5052562355995178,-0.08428345620632172
1759157724646509800,1.611509765625,-0.29610303044319153,0.41631466150283813,-0.14604641497135162
1759157724656569600,1.621569580078125,-0.30137956142425537,0.3297238349914551,-0.18949615955352783
1759157724666628900,1.63162890625,-0.3408864736557007,0.2937333583831787,-0.24210664629936218
1759157724676689000,1.64168896484375,-0.45256027579307556,0.34417468309402466,-0.2965347170829773
1759157724686748700,1.651748779296875,-0.5489485859870911,0.4317239820957184,-0.3254223167896271
1759157724696808000,1.661807861328125,-0.5869428515434265,0.48765701055526733,-0.32450059056282043
1759157724706868000,1.671867919921875,-0.6086201667785645,0.520638108253479,-0.31051498651504517
1759157724716926700,1.6819267578125,-0.61067134141922,0.515095055103302,-0.30545151233673096
1759157724726987000,1.691987060546875,-0.6194600462913513,0.5237002372741699,-0.30011695623397827
1759157724737046800,1.702046875,-0.6274005174636841,0.5271404981613159,-0.30587443709373474
1759157724747105800,1.712105712890625,-0.6332219243049622,0.4729395806789398,-0.30103039741516113
1759157724757165800,1.722165771484375,-0.6529892683029175,0.36983051896095276,-0.2902113199234009
1759157724767224800,1.732224853515625,-0.6848766207695007,0.24744121730327606,-0.28205618262290955
1759157724777284900,1.742284912109375,-0.7120727896690369,0.15086966753005981,-0.28242236375808716
1759157724787345000,1.752344970703125,-0.7370665669441223,0.1055956706404686,-0.27488934993743896
1759157724797404000,1.76240380859375,-0.7575774192810059,0.09015172719955444,-0.2577013075351715
1759157724807464000,1.7724638671875,-0.7814974188804626,0.08144000172615051,-0.23873960971832275
1759157724817523700,1.782523681640625,-0.8028320074081421,0.08141683042049408,-0.21601325273513794
1759157724827582700,1.792582763671875,-0.8307629823684692,0.08242217451334,-0.19904732704162598
1759157724837643000,1.80264306640625,-0.8698712587356567,0.09290517121553421,-0.18398049473762512
1759157724847701800,1.81270166015625,-0.8986653089523315,0.1078961044549942,-0.16233697533607483
1759157724857761800,1.82276171875,-0.9183990955352783,0.10272424668073654,-0.13838796317577362
1759157724867821800,1.83282177734375,-0.9329492449760437,0.09081245958805084,-0.11844009160995483
1759157724877880800,1.842880859375,-0.9568519592285156,0.07522604614496231,-0.09915454685688019
1759157724887940900,1.85294091796875,-0.9789907932281494,0.055574312806129456,-0.09549882262945175
1759157724898000600,1.863000732421875,-0.9871075749397278,0.05426190793514252,-0.10103314369916916
1759157724908060000,1.873059814453125,-0.9979716539382935,0.06840994954109192,-0.10737599432468414
1759157724918120000,1.883119873046875,-1.0070037841796875,0.08676605671644211,-0.1146131306886673
1759157724928178700,1.8931787109375,-1.0164055824279785,0.0980496034026146,-0.1182456836104393
1759157724938239000,1.903239013671875,-1.0175241231918335,0.09644957631826401,-0.11944490671157837
1759157724948299000,1.913299072265625,-1.0319570302963257,0.0791800394654274,-0.1274346560239792
1759157724958357800,1.923357666015625,-1.044769287109375,0.07609689980745316,-0.1266612708568573
1759157724968417800,1.933417724609375,-1.0736616849899292,0.08201710879802704,-0.11243173480033875
1759157724978477800,1.943477783203125,-1.1232709884643555,0.08389116823673248,-0.10910864174365997
1759157724988536800,1.953536865234375,-1.1596848964691162,0.05976639315485954,-0.10786335170269012
1759157724998596900,1.963596923828125,-1.1870366334915161,0.045939527451992035,-0.10557569563388824
1759157725008656000,1.97365576171875,-1.2100794315338135,0.04736751690506935,-0.09501732885837555
1759157725018716000,1.9837158203125,-1.2386473417282104,0.06196802854537964,-0.07556772977113724
1759157725028776000,1.99377587890625,-1.26669180393219,0.09668952226638794,-0.05938316509127617
1759157725038834700,2.003834716796875,-1.2896714210510254,0.11666402965784073,-0.04722370579838753
1759157725048895000,2.01389501953125,-1.3066765069961548,0.10030077397823334,-0.04285132512450218
1759157725058954800,2.023954833984375,-1.3260337114334106,0.0636141300201416,-0.05470691993832588
1759157725069013800,2.034013671875,-1.3238352537155151,-0.011082212440669537,-0.07241720706224442
1759157725079073800,2.04407373046875,-1.334833025932312,-0.09402769804000854,-0.08228714764118195
1759157725089132800,2.0541328125,-1.3360844850540161,-0.17532068490982056,-0.09027743339538574
1759157725099192800,2.06419287109375,-1.3377479314804077,-0.20353128015995026,-0.10714509338140488
1759157725109252900,2.0742529296875,-1.355600118637085,-0.21582603454589844,-0.10532402247190475
1759157725119312000,2.084311767578125,-1.348871111869812,-0.1895073503255844,-0.09294378757476807
1759157725129372000,2.094371826171875,-1.3520346879959106,-0.13904577493667603,-0.0793805792927742
1759157725139431700,2.104431640625,-1.341098666191101,-0.0962493047118187,-0.07058868557214737
1759157725149491000,2.114490966796875,-1.3290824890136719,-0.05289304256439209,-0.0658104419708252
1759157725159551000,2.124551025390625,-1.315250277519226,0.013852698728442192,-0.07312507927417755
1759157725169609700,2.134609619140625,-1.3011499643325806,0.060198623687028885,-0.08223175257444382
1759157725179669800,2.144669677734375,-1.317724585533142,0.07779332995414734,-0.10142116248607635
1759157725189730000,2.15472998046875,-1.3250811100006104,0.08814743906259537,-0.12089446187019348
1759157725199788800,2.164788818359375,-1.3573588132858276,0.04780187830328941,-0.15833903849124908
1759157725209848800,2.174848876953125,-1.413425087928772,0.055691491812467575,-0.16455619037151337
1759157725219908600,2.18490869140625,-1.4732787609100342,0.06796440482139587,-0.17627249658107758
1759157725229968000,2.1949677734375,-1.5328574180603027,0.09175202250480652,-0.17801447212696075
1759157725240028000,2.20502783203125,-1.5347485542297363,0.07401031255722046,-0.22089429199695587
1759157725250087700,2.215087646484375,-1.5758733749389648,0.06789515912532806,-0.2225119024515152
1759157725260147000,2.22514697265625,-1.6372720003128052,0.11167725920677185,-0.19277344644069672
1759157725270207000,2.23520703125,-1.6987055540084839,0.18073463439941406,-0.1639852076768875
1759157725280265700,2.245265625,-1.7048462629318237,0.21706067025661469,-0.1666174829006195
1759157725290325800,2.25532568359375,-1.7044358253479004,0.24858185648918152,-0.15842106938362122
1759157725300385800,2.2653857421875,-1.6490991115570068,0.21517355740070343,-0.14607784152030945
1759157725310444800,2.27544482421875,-1.4934791326522827,0.04202201962471008,-0.13815253973007202
1759157725320504800,2.2855048828125,-1.277673363685608,-0.15052585303783417,-0.12513688206672668
1759157725330564900,2.29556494140625,-1.0439850091934204,-0.3482685089111328,-0.10375116020441055
1759157725340624000,2.305623779296875,-0.7634018063545227,-0.47289323806762695,-0.10521963238716125
1759157725350684000,2.315683837890625,-0.4964744746685028,-0.48714834451675415,-0.11047777533531189
1759157725360743700,2.32574365234375,-0.28306978940963745,-0.48574939370155334,-0.07860053330659866
1759157725370803000,2.335802978515625,-0.18717548251152039,-0.501363217830658,-0.015978433191776276
1759157725380862700,2.34586279296875,-0.18295782804489136,-0.5245801210403442,0.06269480288028717
1759157725390921700,2.355921630859375,-0.2092573493719101,-0.5725948214530945,0.13377803564071655
1759157725400982000,2.36598193359375,-0.2149016559123993,-0.6192941665649414,0.17555291950702667
1759157725411041800,2.376041748046875,-0.1918349415063858,-0.6612088084220886,0.18808415532112122
1759157725421100800,2.386100830078125,-0.154497429728508,-0.6807071566581726,0.17345860600471497
1759157725431160800,2.396160888671875,-0.09993405640125275,-0.6488475203514099,0.1416841596364975
1759157725441220900,2.406220947265625,-0.06454623490571976,-0.5740022659301758,0.09747462719678879
1759157725451280000,2.41627978515625,-0.042688872665166855,-0.452414333820343,0.057747986167669296
1759157725461340000,2.42633984375,-0.018016284331679344,-0.2899484634399414,0.02869289740920067
1759157725471399700,2.436399658203125,0.023356987163424492,-0.09039940685033798,0.013906761072576046
1759157725481459000,2.446458984375,0.06048890948295593,0.08590371906757355,0.004520183429121971
1759157725491518700,2.456518798828125,0.07112530618906021,0.29578638076782227,-0.02179024927318096
1759157725501578800,2.466578857421875,0.09228359162807465,0.502250075340271,-0.039382025599479675
1759157725511638000,2.476637939453125,0.11417504400014877,0.653251051902771,-0.03975646570324898
1759157725521697800,2.48669775390625,0.13474370539188385,0.7387734055519104,-0.030945666134357452
1759157725531756800,2.4967568359375,0.13402411341667175,0.769209086894989,-0.028327777981758118
1759157725541816800,2.50681689453125,0.10271785408258438,0.7258186936378479,-0.04031066969037056
1759157725551876900,2.516876953125,0.04229552671313286,0.6263384819030762,-0.06059250608086586
1759157725561936000,2.526935791015625,-0.03881024569272995,0.4831349551677704,-0.08212815970182419
1759157725571995600,2.53699560546875,-0.11803635954856873,0.2749306261539459,-0.07999123632907867
1759157725582055700,2.5470556640625,-0.18851105868816376,0.048776861280202866,-0.060030315071344376
1759157725592115000,2.557114990234375,-0.24800127744674683,-0.14308153092861176,-0.028862541541457176
1759157725602174700,2.5671748046875,-0.29436957836151123,-0.25497397780418396,0.0010346380295231938
1759157725612234800,2.57723486328125,-0.3142088055610657,-0.31376326084136963,0.020320717245340347
1759157725622294000,2.5872939453125,-0.3128945231437683,-0.3342948853969574,0.0287000872194767
1759157725632353800,2.597353759765625,-0.29184356331825256,-0.3055657744407654,0.005034706089645624
1759157725642413800,2.607413818359375,-0.2710171043872833,-0.24269066751003265,-0.05427016317844391
1759157725652472800,2.617472900390625,-0.24187786877155304,-0.17341306805610657,-0.10994593799114227
1759157725662532900,2.627532958984375,-0.18652673065662384,-0.14511138200759888,-0.15861201286315918
1759157725672593000,2.637593017578125,-0.14848588407039642,-0.1782698780298233,-0.19353297352790833
1759157725682651600,2.647651611328125,-0.10543481260538101,-0.24615491926670074,-0.21359990537166595
1759157725692712000,2.6577119140625,-0.05760177597403526,-0.32873979210853577,-0.22016911208629608
1759157725702772000,2.66777197265625,-0.019183548167347908,-0.403924822807312,-0.21908734738826752
1759157725712830700,2.677830810546875,0.02172819897532463,-0.43501192331314087,-0.20328254997730255
1759157725722890800,2.687890869140625,0.04663354903459549,-0.41172975301742554,-0.19100616872310638
1759157725732951000,2.697950927734375,0.06739049404859543,-0.38451331853866577,-0.17584772408008575
1759157725743009800,2.708009765625,0.07412882149219513,-0.3477204144001007,-0.16345177590847015
1759157725753069800,2.71806982421875,0.06872313469648361,-0.2938009798526764,-0.15484391152858734
1759157725763128600,2.728128662109375,0.09314938634634018,-0.1976936310529709,-0.14919987320899963
1759157725773188600,2.738188720703125,0.08754875510931015,-0.009819607250392437,-0.17486821115016937
1759157725783248600,2.74824853515625,0.056590307503938675,0.12733931839466095,-0.2111082524061203
1759157725793307600,2.7583076171875,0.11187140643596649,0.11113876849412918,-0.18306861817836761
1759157725803367700,2.76836767578125,0.2031472623348236,0.03278937190771103,-0.12697845697402954
1759157725813427700,2.778427734375,0.23801283538341522,-0.046054042875766754,-0.053880274295806885
1759157725823486500,2.788486572265625,0.19535085558891296,-0.07755125313997269,0.015335546806454659
1759157725833546800,2.798546630859375,0.11470074951648712,-0.04524151235818863,0.08851894736289978
1759157725843606500,2.8086064453125,0.04189392179250717,0.02552160434424877,0.12597577273845673
1759157725853665500,2.81866552734375,0.008143413811922073,0.07497837394475937,0.12921658158302307
1759157725863725600,2.8287255859375,0.008987103588879108,0.07288432866334915,0.11144450306892395
1759157725873785600,2.83878564453125,0.00714659271761775,0.03791143000125885,0.09541253745555878
1759157725883844600,2.8488447265625,-0.007804127410054207,-0.010269149206578732,0.08895916491746902
1759157725893904600,2.858904541015625,-0.026022545993328094,-0.0424630381166935,0.08697617799043655
1759157725903964400,2.86896435546875,-0.0347910039126873,-0.03122103586792946,0.08147408813238144
1759157725914023700,2.879023681640625,-0.02953924983739853,0.03737107291817665,0.06607888638973236
1759157725924083500,2.88908349609375,-0.012492888607084751,0.14661207795143127,0.0506056547164917
1759157725934143500,2.8991435546875,0.034496456384658813,0.23724663257598877,0.04162067919969559
1759157725944202800,2.90920263671875,0.07683006674051285,0.2816420793533325,0.0431021973490715
1759157725954262500,2.919262451171875,0.10092794895172119,0.2707452178001404,0.05897916480898857
1759157725964322600,2.929322509765625,0.09614118188619614,0.1938088834285736,0.08434417843818665
1759157725974381600,2.939381591796875,0.06961396336555481,0.08492208272218704,0.10570219159126282
1759157725984441600,2.949441650390625,0.03297046571969986,-0.01835636980831623,0.10943195223808289
1759157725994501600,2.959501708984375,-0.002584597794339061,-0.08413085341453552,0.08491675555706024
1759157726004560400,2.969560302734375,-0.03092862106859684,-0.11293560266494751,0.059353604912757874
1759157726014620400,2.979620361328125,-0.04848364740610123,-0.11781531572341919,0.04150856286287308
1759157726024680700,2.9896806640625,-0.02684732712805271,-0.04740027338266373,0.054557252675294876
1759157726034739500,2.999739501953125,-0.0024045680183917284,0.024630244821310043,0.073904849588871
1759157726044799500,3.009799560546875,0.02203233167529106,0.0732550397515297,0.09478802978992462
1759157726054859500,3.019859619140625,0.041738126426935196,0.09469694644212723,0.10223636031150818
1759157726064918500,3.02991845703125,0.04705113172531128,0.10598049312829971,0.10194554179906845
1759157726074978600,3.039978515625,0.046671897172927856,0.11419714242219925,0.08443205803632736
1759157726085038600,3.05003857421875,0.041191376745700836,0.12139620631933212,0.059605274349451065
1759157726095097600,3.06009765625,0.040225185453891754,0.12643463909626007,0.037149231880903244
1759157726105157600,3.07015771484375,0.034320954233407974,0.1339583396911621,0.02160409465432167
1759157726115216400,3.08021630859375,0.04192454740405083,0.11607440561056137,0.029991189017891884
1759157726125276700,3.090276611328125,0.0499262809753418,0.09533344209194183,0.06964273005723953
1759157726135336700,3.100336669921875,0.045525405555963516,0.0741053894162178,0.11791465431451797
1759157726145395500,3.1103955078125,0.02701590396463871,0.05066504329442978,0.159820556640625
1759157726155455500,3.12045556640625,0.02737276814877987,0.04802105575799942,0.1637391299009323
1759157726165515800,3.130515869140625,0.08404803276062012,-0.001773398951627314,0.0888446494936943
1759157726175574500,3.140574462890625,0.07085339725017548,0.024450747296214104,0.0711657926440239
1759157726185634600,3.150634521484375,0.03732100501656532,0.09579470008611679,0.08061282336711884
1759157726195694600,3.160694580078125,0.013204751536250114,0.19955278933048248,0.09791591018438339
1759157726205753600,3.170753662109375,0.03254489228129387,0.22672103345394135,0.11380406469106674
1759157726215813600,3.180813720703125,0.04525509476661682,0.21328803896903992,0.11012996733188629
1759157726225873400,3.190873291015625,0.06484238058328629,0.16574129462242126,0.094957135617733
1759157726235932700,3.2009326171875,0.07343799620866776,0.07755205035209656,0.055625177919864655
1759157726245992700,3.21099267578125,0.051956407725811005,-0.07755817472934723,-0.015602395869791508
1759157726256052500,3.221052490234375,0.008526642806828022,-0.23510918021202087,-0.0774758830666542
1759157726266111500,3.231111572265625,0.004048803821206093,-0.24869289994239807,-0.08175957947969437
1759157726276171800,3.241171875,-0.008378837257623672,-0.15067845582962036,-0.04346012696623802
1759157726286231600,3.2512314453125,-0.018127871677279472,-0.0551210418343544,-0.01594860665500164
1759157726296290600,3.26129052734375,-0.029105953872203827,-0.04605377838015556,-0.024515196681022644
1759157726306350600,3.2713505859375,-0.04540929198265076,-0.09798967838287354,-0.03996605798602104
1759157726316410600,3.28141064453125,-0.03582324460148811,-0.16030950844287872,-0.047028228640556335
1759157726326469600,3.2914697265625,-0.012734171003103256,-0.13964179158210754,-0.029623672366142273
1759157726336529400,3.301529296875,-0.0006407565670087934,-0.06718036532402039,0.0035899411886930466
1759157726346589400,3.31158935546875,0.009252887219190598,-0.001246892032213509,0.03460271656513214
1759157726356648700,3.321648681640625,0.02418230101466179,0.052442435175180435,0.05971153452992439
1759157726366708500,3.33170849609375,0.026640132069587708,0.08889498561620712,0.08573620766401291
1759157726376768500,3.3417685546875,0.007028614636510611,0.06897560507059097,0.07296981662511826
1759157726386827500,3.35182763671875,-0.019687950611114502,0.023417174816131592,0.030780017375946045
1759157726396887600,3.361887451171875,-0.037085048854351044,-0.0042719766497612,-0.00355931487865746
1759157726406947600,3.371947509765625,-0.04087978973984718,-0.011235077865421772,-0.024209199473261833
1759157726417006600,3.382006591796875,-0.041606031358242035,-0.00469515286386013,-0.024150343611836433
1759157726427066600,3.392066650390625,-0.03460458293557167,-0.0013915016315877438,-0.013964018784463406
1759157726437126700,3.402126708984375,-0.03181172534823418,-0.004256530199199915,-0.004878112114965916
1759157726447185400,3.412185302734375,-0.036367595195770264,-0.01788046397268772,0.00004953479583491571
1759157726457245700,3.42224560546875,-0.05885878950357437,-0.05528802424669266,-0.003778493031859398
1759157726467305700,3.4323056640625,-0.10250373929738998,-0.1442682296037674,-0.030767234042286873
1759157726477364500,3.442364501953125,-0.1329689621925354,-0.24800926446914673,-0.07545507699251175
1759157726487424500,3.452424560546875,-0.1413685828447342,-0.3125903904438019,-0.1115821897983551
1759157726497484800,3.46248486328125,-0.129486083984375,-0.2729697525501251,-0.10812114179134369
1759157726507543600,3.47254345703125,-0.09344366192817688,-0.17722484469413757,-0.08443259447813034
1759157726517603600,3.482603515625,-0.0606502965092659,-0.10028905421495438,-0.05705476552248001
1759157726527663400,3.492663330078125,-0.04560556635260582,-0.06967122107744217,-0.029339779168367386
1759157726537722600,3.50272265625,-0.043949615210294724,-0.0825878232717514,-0.012943761423230171
1759157726547782700,3.51278271484375,-0.05413567274808884,-0.1296197772026062,-0.02557486854493618
1759157726557842400,3.522842529296875,-0.08000082522630692,-0.20203538239002228,-0.059892892837524414
1759157726567901700,3.532901611328125,-0.10945858061313629,-0.2339954525232315,-0.07839920371770859
1759157726577961700,3.542961669921875,-0.15767191350460052,-0.22673220932483673,-0.06889864057302475
1759157726588021500,3.553021484375,-0.15058284997940063,-0.19846169650554657,-0.05299903452396393
1759157726598080500,3.56308056640625,-0.11363708227872849,-0.18220283091068268,-0.05786969140172005
1759157726608140500,3.573140625,-0.12057994306087494,-0.1556074321269989,-0.05588696897029877
1759157726618200600,3.58320068359375,-0.09907837957143784,-0.0654386579990387,-0.018390458077192307
1759157726628259600,3.593259521484375,-0.05367814004421234,-0.004911934491246939,0.01811961457133293
1759157726638319600,3.603319580078125,-0.012083028443157673,0.024220917373895645,0.05227279290556908
1759157726648379600,3.613379638671875,0.0017379788914695382,0.027226028963923454,0.06131928414106369
1759157726658438700,3.623438720703125,-0.016047142446041107,0.0018112158868461847,0.051840826869010925
1759157726668498400,3.63349853515625,-0.030949126929044724,-0.034926559776067734,0.033552899956703186
1759157726678558500,3.643558349609375,-0.041369277983903885,-0.06359308958053589,0.019871443510055542
1759157726688617500,3.653617431640625,-0.0509052574634552,-0.05392714589834213,0.01630467176437378
1759157726698677500,3.663677490234375,-0.037456296384334564,-0.015388011001050472,0.013365873135626316
1759157726708737500,3.673737548828125,-0.010133860632777214,0.04782930761575699,0.016406137496232986
1759157726718796500,3.683796630859375,0.017715081572532654,0.10817307233810425,0.010625479742884636
1759157726728856600,3.693856689453125,0.034267425537109375,0.14668184518814087,0.014419686049222946
1759157726738916600,3.70391650390625,0.046487607061862946,0.16500306129455566,0.016017049551010132
1759157726748975600,3.7139755859375,0.04155809432268143,0.15129977464675903,0.012143215164542198
1759157726759035600,3.72403564453125,0.02496500499546528,0.11144903302192688,0.008190818130970001
1759157726769096400,3.734096435546875,0.009494701400399208,0.07568197697401047,-0.005608350969851017
1759157726779155200,3.7441552734375,-0.0019004317000508308,0.05911258980631828,-0.012712866067886353
1759157726789215200,3.75421533203125,-0.012477176263928413,0.04426493123173714,-0.021563082933425903
1759157726799275500,3.764275634765625,-0.012161324732005596,0.028775721788406372,-0.023208117112517357
1759157726809334300,3.774334228515625,-0.015842080116271973,0.012167716398835182,-0.02064828760921955
1759157726819394300,3.784394287109375,-0.0248401015996933,-0.007623298559337854,-0.02588566020131111
1759157726829454300,3.794454345703125,-0.03419605270028114,-0.008420915342867374,-0.022368155419826508
1759157726839513300,3.804513427734375,-0.03166205435991287,-0.003316700691357255,-0.015143266879022121
1759157726849573400,3.814573486328125,-0.022156966850161552,-0.006085056811571121,-0.009121060371398926
1759157726859633400,3.82463330078125,-0.012891030870378017,-0.0065622953698039055,-0.005513275973498821
1759157726869692400,3.8346923828125,-0.003495931625366211,0.00040293627534992993,-0.0006266417913138866
1759157726879752400,3.84475244140625,0.00791411567479372,-0.003638410707935691,-0.004064516630023718
1759157726889812500,3.8548125,0.012444685213267803,-0.012141617946326733,-0.01998302899301052
1759157726899871200,3.864871337890625,0.013047625310719013,0.00213585514575243,-0.0315062589943409
1759157726909931500,3.874931640625,0.0018008295446634293,0.015515842474997044,-0.03399312123656273
1759157726919991300,3.8849912109375,-0.006675745826214552,0.03453986719250679,-0.025119202211499214
1759157726930050300,3.89505029296875,0.0004463458026293665,0.0413367860019207,-0.009554089978337288
1759157726940110300,3.9051103515625,0.004343882203102112,0.029437784105539322,-0.008619054220616817
1759157726950170400,3.91517041015625,0.0019177423091605306,0.01926211081445217,-0.01350515615195036
1759157726960229400,3.9252294921875,0.0023403859231621027,0.006703975144773722,-0.023442741483449936
1759157726970289400,3.935289306640625,-0.0012602078495547175,-0.03286127746105194,-0.04037165641784668
1759157726980349200,3.94534912109375,-0.03882436081767082,-0.053642190992832184,-0.04505189508199692
1759157726990408400,3.955408447265625,-0.01949859969317913,-0.023389479145407677,-0.03243037685751915
1759157727000468500,3.965468505859375,-0.01637497916817665,-0.013043629936873913,-0.020795559510588646
1759157727010528300,3.9755283203125,-0.007465639617294073,-0.001645300886593759,-0.007379619404673576
1759157727020587500,3.98558740234375,-0.0028570392169058323,0.019242936745285988,0.0010556770721450448
1759157727030647300,3.995647216796875,0.010716293938457966,0.04483351856470108,0.004511661361902952
1759157727040707300,4.005707275390625,0.02304859459400177,0.07101558893918991,0.0076185050420463085
1759157727050766600,4.0157666015625,0.0215351190418005,0.07303133606910706,0.005358812864869833
1759157727060826400,4.025826416015625,0.008165251463651657,0.05289383977651596,-0.006446181330829859
1759157727070886400,4.035886474609375,0.0012351741315796971,0.022114623337984085,-0.011602327227592468
1759157727080945400,4.0459453125,-0.0024857944808900356,0.0017206683987751603,-0.006738862954080105
1759157727091005400,4.05600537109375,-0.0073386067524552345,-0.0033598439767956734,-0.000014114753867033869
1759157727101064400,4.066064453125,-0.006593720521777868,0.006774016655981541,0.006490656174719334
1759157727111124200,4.076124267578125,-0.0008341020438820124,0.022845927625894547,0.005057875532656908
1759157727121184300,4.086184326171875,0.003209641668945551,0.033487118780612946,-0.001845038030296564
1759157727131244500,4.09624462890625,-0.0033039175905287266,0.021819544956088066,-0.017474863678216934
1759157727141303300,4.10630322265625,-0.006996923126280308,0.024631310254335403,-0.018128670752048492
1759157727151363300,4.11636328125,-0.0024794030468910933,0.04839549586176872,-0.0019206717843189836
1759157727161422600,4.126422607421875,0.0005997438565827906,0.08004689961671829,0.016537697985768318
1759157727171482400,4.136482421875,0.008876049891114235,0.0803222730755806,0.02448350563645363
1759157727181542400,4.14654248046875,0.013600497506558895,0.06252143532037735,0.02497619017958641
1759157727191601200,4.15660107421875,0.013069729320704937,0.0346037819981575,0.02388509176671505
1759157727201661400,4.166661376953125,0.015536349266767502,0.022181734442710876,0.022175610065460205
1759157727211721500,4.176721435546875,0.008816661313176155,0.010967696085572243,0.01600399985909462
1759157727221780200,4.1867802734375,0.00794127956032753,0.02166561409831047,0.015415973961353302
1759157727231840300,4.19684033203125,0.006939664948731661,0.04331311956048012,0.015171496197581291
1759157727241900500,4.206900634765625,-0.0001257012045243755,0.03596652299165726,0.0031166973058134317
1759157727251959300,4.216959228515625,-0.00703926756978035,-0.007774299941956997,-0.027655595913529396
1759157727262019300,4.227019287109375,-0.03591752052307129,-0.09410572797060013,-0.08720574527978897
1759157727272079400,4.237079345703125,-0.10461243242025375,-0.21020889282226562,-0.12927010655403137
1759157727282138400,4.247138427734375,-0.15934571623802185,-0.2887415289878845,-0.1344371736049652
1759157727292198400,4.257198486328125,-0.2066546380519867,-0.3408542573451996,-0.10601671040058136
1759157727302258400,4.267258544921875,-0.2483954280614853,-0.4083954691886902,-0.06888505816459656
1759157727312317400,4.2773173828125,-0.26952069997787476,-0.42194750905036926,-0.014010890386998653
1759157727322377500,4.28737744140625,-0.22455215454101562,-0.37879446148872375,0.013459882698953152
1759157727332437200,4.297437255859375,-0.1672787368297577,-0.3111514747142792,0.012722985818982124
1759157727342496500,4.30749658203125,-0.12696221470832825,-0.24746039509773254,-0.0064866612665355206
1759157727352556500,4.317556640625,-0.10959041118621826,-0.18584443628787994,-0.01990792714059353
1759157727362616300,4.3276162109375,-0.09255683422088623,-0.1414383500814438,-0.018934275954961777
1759157727372675300,4.33767529296875,-0.06624426692724228,-0.09943018108606339,-0.00166607357095927
1759157727382735600,4.347735595703125,-0.03130492568016052,-0.07770677655935287,0.009187106974422932
1759157727392795400,4.35779541015625,0.011420433409512043,-0.036139894276857376,0.017306020483374596
1759157727402854400,4.3678544921875,0.01366148330271244,-0.00015393071225844324,0.010403638705611229
1759157727412914200,4.3779140625,-0.00555189186707139,0.01564660482108593,0.009973271749913692
1759157727422974500,4.387974365234375,-0.0073106433264911175,-0.0081527354195714,0.005061337724328041
1759157727433033500,4.398033447265625,-0.0003038666909560561,-0.028910743072628975,-0.003751328680664301
1759157727443093200,4.40809326171875,0.0071164988912642,-0.023297332227230072,-0.008224373683333397
1759157727453152500,4.418152587890625,0.009341570548713207,-0.0023238742724061012,-0.0026996464002877474
1759157727463212500,4.428212646484375,0.006578540429472923,0.019997676834464073,0.0032703618053346872
1759157727473272300,4.438272216796875,0.0009427590412087739,0.031009847298264503,-0.003483681008219719
1759157727483331300,4.448331298828125,-0.01386734563857317,0.04271417483687401,-0.01085957232862711
1759157727493391400,4.458391357421875,-0.027086477726697922,0.034806981682777405,-0.016111325472593307
1759157727503451400,4.468451416015625,-0.020893564447760582,0.027894748374819756,-0.014125140383839607
1759157727513510400,4.478510498046875,-0.006826214492321014,0.025904567912220955,-0.0101375887170434
1759157727523570200,4.488570068359375,0.01902029663324356,0.04044675827026367,0.002578738844022155
1759157727533630500,4.49863037109375,0.04103398695588112,0.06793857365846634,0.011801797896623611
1759157727543689500,4.508689453125,0.052797965705394745,0.1067139282822609,0.022158032283186913
1759157727553749200,4.518749267578125,0.06659474223852158,0.1308581531047821,0.028418058529496193
1759157727563809300,4.528809326171875,0.08853466063737869,0.16595861315727234,0.042338401079177856
1759157727573868300,4.538868408203125,0.1098274290561676,0.19914771616458893,0.06197815015912056
1759157727583928300,4.54892822265625,0.1252303570508957,0.242665633559227,0.13995710015296936
1759157727593988400,4.55898828125,0.09658300131559372,0.12069712579250336,0.09263113141059875
1759157727604047400,4.56904736328125,0.059056926518678665,-0.03760756179690361,-0.0563354454934597
1759157727614107400,4.579107421875,0.00854581780731678,-0.11320138722658157,-0.1537589430809021
1759157727624167400,4.58916748046875,-0.040763676166534424,-0.11287675052881241,-0.1521112322807312
