time,seconds_elapsed,z,y,x
1.75935E+18,0.049381592,0.011396998,0.091773063,0.05508003
1.75935E+18,0.059439941,0.007637946,0.084657632,0.049931075
1.75935E+18,0.069497559,0.0056214,0.090262786,0.039248604
1.75935E+18,0.079554688,0.004162787,0.089299522,0.023692813
1.75935E+18,0.089612549,-0.000610663,0.083035231,0.010711767
1.75935E+18,0.099670898,-0.002300971,0.069714636,0.002185923
1.75935E+18,0.10972876,-0.005012602,0.052539907,0.002080461
1.75935E+18,0.119785889,-0.00481606,0.048619732,0.003946006
1.75935E+18,0.12984375,-0.009181248,0.049732137,0.004545483
1.75935E+18,0.139901855,-0.016210929,0.051628575,0.005016064
1.75935E+18,0.149959717,-0.019897008,0.045979742,0.00291696
1.75935E+18,0.160017822,-0.029202361,0.015194666,0.003424825
1.75935E+18,0.170074707,-0.032165658,-0.022061359,-0.00039255
1.75935E+18,0.180132813,-0.039596144,-0.034742001,-0.000693221
1.75935E+18,0.190190674,-0.044906221,-0.025244104,-0.001988582
1.75935E+18,0.200248535,-0.041931473,0.005088502,0.001573396
1.75935E+18,0.210305664,-0.02896454,0.026793264,0.003771835
1.75935E+18,0.22036377,-0.021721007,0.026155172,0.011255317
1.75935E+18,0.230421875,-0.012336295,0.008752479,0.025464879
1.75935E+18,0.240479492,0.000322243,-0.020844296,0.037103161
1.75935E+18,0.250537842,-0.001683384,-0.040636908,0.039095204
1.75935E+18,0.260594727,-0.005039766,-0.057713099,0.034487136
1.75935E+18,0.270652832,-0.018372616,-0.083723657,0.024824657
1.75935E+18,0.280710693,-0.02860954,-0.123092636,0.014891065
1.75935E+18,0.290768799,-0.030190393,-0.165898159,0.005185175
1.75935E+18,0.300825684,-0.016472183,-0.216632441,-0.002652242
1.75935E+18,0.310883545,-0.008600412,-0.277730942,-0.011032411
1.75935E+18,0.32094165,-0.014267352,-0.360379755,-0.014359765
1.75935E+18,0.330999756,-0.020727916,-0.450107247,-0.017111076
1.75935E+18,0.341056885,-0.038228344,-0.516913176,-0.017515345
1.75935E+18,0.351114746,-0.056576192,-0.540537,-0.013802098
1.75935E+18,0.361172607,-0.060840979,-0.533965111,-0.020684239
1.75935E+18,0.371230713,-0.069280803,-0.583861053,-0.053910635
1.75935E+18,0.381288818,-0.077075079,-0.711900234,-0.113578491
1.75935E+18,0.391345703,-0.106795691,-0.803943634,-0.168189272
1.75935E+18,0.401403809,-0.151283801,-0.783156037,-0.201916352
1.75935E+18,0.41146167,-0.194750845,-0.66789788,-0.207711384
1.75935E+18,0.421519775,-0.209005952,-0.493923426,-0.190733731
1.75935E+18,0.431577637,-0.164484546,-0.317189127,-0.152396992
1.75935E+18,0.441634766,-0.088029459,-0.16699858,-0.095234372
1.75935E+18,0.451692871,0.011022824,-0.039036881,-0.022927953
1.75935E+18,0.461750488,0.099207811,0.084560953,0.060697168
1.75935E+18,0.471808594,0.175953448,0.211076289,0.13499324
1.75935E+18,0.481865723,0.26036635,0.32820344,0.17816627
1.75935E+18,0.491923828,0.36269778,0.434479028,0.169915542
1.75935E+18,0.501981689,0.474589139,0.512028933,0.096456766
1.75935E+18,0.512039551,0.625350177,0.518340647,-0.026916303
1.75935E+18,0.522097656,0.773812592,0.456183255,-0.154919535
1.75935E+18,0.532154785,1.010332465,0.323753834,-0.291493088
1.75935E+18,0.542212646,1.7378546,-0.012827648,-0.330194414
1.75935E+18,0.552270996,2.39151001,-0.161630169,-0.33366853
1.75935E+18,0.562328613,2.56642437,0.143471405,-0.328365892
1.75935E+18,0.572386719,2.342667103,0.621969521,-0.4061611
1.75935E+18,0.582443604,1.697572112,1.292197227,-0.609290779
1.75935E+18,0.592501709,1.031190038,2.052756786,-0.730892301
1.75935E+18,0.602559814,0.571969211,2.568666697,-0.664942563
1.75935E+18,0.612617676,0.363001913,2.173588753,-0.436533391
1.75935E+18,0.622674805,0.279132575,1.290867209,-0.19231911
1.75935E+18,0.632732666,0.150621727,0.446297854,-0.019749736
1.75935E+18,0.642790771,0.037187584,-0.162758023,0.070578292
1.75935E+18,0.652848633,-0.026404442,-0.427082896,0.107244961
1.75935E+18,0.662906982,-0.093652986,-0.405119807,0.126208276
1.75935E+18,0.672963867,-0.142627448,-0.245145306,0.152390599
1.75935E+18,0.683021729,-0.147194505,-0.070395067,0.157781914
1.75935E+18,0.69307959,-0.141136885,0.036555614,0.120015353
1.75935E+18,0.703137451,-0.127829328,0.025935194,0.043335222
1.75935E+18,0.713195557,-0.114973992,-0.068288244,-0.059276905
1.75935E+18,0.723252441,-0.107611947,-0.200239882,-0.164165497
1.75935E+18,0.733310547,-0.101711713,-0.310437232,-0.242859781
1.75935E+18,0.743368164,-0.093086265,-0.343797863,-0.276167661
1.75935E+18,0.753426514,-0.079812005,-0.278155982,-0.260752231
1.75935E+18,0.763484375,-0.067651212,-0.152493134,-0.217162937
1.75935E+18,0.773541504,-0.06165218,-0.042948797,-0.169068918
1.75935E+18,0.783599365,-0.057723749,0.009025453,-0.126369923
1.75935E+18,0.793657471,-0.046723295,-0.005085838,-0.099102885
1.75935E+18,0.803715332,-0.038324486,-0.066421099,-0.074366912
1.75935E+18,0.813772461,-0.036674656,-0.127070069,-0.070953272
1.75935E+18,0.823830566,-0.050372094,-0.151235327,-0.086010516
1.75935E+18,0.833888672,-0.065079935,-0.1490044,-0.105153315
1.75935E+18,0.843946289,-0.071472317,-0.140312642,-0.117767379
1.75935E+18,0.854004395,-0.06750048,-0.133826509,-0.129316449
1.75935E+18,0.864061523,-0.06556756,-0.135268077,-0.144205913
1.75935E+18,0.874119385,-0.067507669,-0.146206215,-0.158988059
1.75935E+18,0.88417749,-0.085811846,-0.170483857,-0.165465131
1.75935E+18,0.894235107,-0.11482352,-0.207690611,-0.157820523
1.75935E+18,0.904293457,-0.145579576,-0.258437932,-0.145638153
1.75935E+18,0.914350342,-0.166968748,-0.304254174,-0.134339705
1.75935E+18,0.924408447,-0.176338553,-0.340451866,-0.13581802
1.75935E+18,0.934466553,-0.176197127,-0.352488816,-0.144129485
1.75935E+18,0.944524414,-0.171325147,-0.337435812,-0.159449309
1.75935E+18,0.954582275,-0.161528438,-0.31701842,-0.16750671
1.75935E+18,0.964639404,-0.149718121,-0.302098066,-0.163638204
1.75935E+18,0.97469751,-0.136539996,-0.295717657,-0.156290278
1.75935E+18,0.984755615,-0.132110372,-0.302951097,-0.148025677
1.75935E+18,0.994813477,-0.130942032,-0.327003151,-0.144376352
1.75935E+18,1.004871582,-0.131487712,-0.359299302,-0.142461807
1.75935E+18,1.014928467,-0.136250779,-0.394922823,-0.140053511
1.75935E+18,1.024986328,-0.140938208,-0.426733464,-0.138831392
1.75935E+18,1.035044434,-0.139532864,-0.44384855,-0.132306635
1.75935E+18,1.045102539,-0.127541974,-0.438928097,-0.115126058
1.75935E+18,1.0551604,-0.113962255,-0.410856247,-0.093389601
1.75935E+18,1.065217285,-0.099956691,-0.371595383,-0.067335099
1.75935E+18,1.075275391,-0.090584226,-0.328853786,-0.048416801
1.75935E+18,1.085333496,-0.079601884,-0.29227367,-0.042082474
1.75935E+18,1.095391602,-0.072098158,-0.271092474,-0.047283094
1.75935E+18,1.105449219,-0.076558687,-0.279043883,-0.056331184
1.75935E+18,1.115506348,-0.085575089,-0.305644602,-0.060743507
1.75935E+18,1.125564453,-0.098276235,-0.330710024,-0.064995244
1.75935E+18,1.135622559,-0.115594774,-0.347239196,-0.063089222
1.75935E+18,1.14568042,-0.133147135,-0.356934696,-0.05369119
1.75935E+18,1.155738525,-0.146722868,-0.35229066,-0.040416133
1.75935E+18,1.16579541,-0.154209003,-0.321943164,-0.024833977
1.75935E+18,1.175853271,-0.161984369,-0.263469994,-0.009990582
1.75935E+18,1.185911377,-0.161640301,-0.159225345,0.021227524
1.75935E+18,1.195969482,-0.15399836,-0.011491274,0.079013057
1.75935E+18,1.206027588,-0.132259235,0.151789531,0.172012508
1.75935E+18,1.216084473,-0.09936627,0.303262681,0.284757435
1.75935E+18,1.226142334,-0.061177071,0.421479315,0.389660686
1.75935E+18,1.236200439,-0.021684788,0.500906765,0.457263947
1.75935E+18,1.246258545,0.006536196,0.536899924,0.485891879
1.75935E+18,1.256316406,0.025255822,0.52039367,0.488771021
1.75935E+18,1.266373535,0.045247905,0.471793622,0.492657632
1.75935E+18,1.276431396,0.077183999,0.390348047,0.505824327
1.75935E+18,1.286489502,0.094227165,0.300086588,0.519635201
1.75935E+18,1.296547363,0.110945694,0.2255788,0.535771787
1.75935E+18,1.306605713,0.12376295,0.231069967,0.539357245
1.75935E+18,1.316662598,0.13520655,0.310805798,0.531777859
1.75935E+18,1.326720215,0.160133481,0.369081914,0.515318215
1.75935E+18,1.33677832,0.197036102,0.39525333,0.489095658
1.75935E+18,1.346836426,0.215996474,0.3677378,0.484261751
1.75935E+18,1.356894531,0.221221864,0.294098735,0.508829951
1.75935E+18,1.366952148,0.210047781,0.167608172,0.545963466
1.75935E+18,1.377009277,0.19995226,0.039842486,0.574793279
1.75935E+18,1.387067383,0.218235925,-0.064200558,0.591503263
1.75935E+18,1.397125488,0.229657963,-0.113856524,0.612484157
1.75935E+18,1.40718335,0.245515481,-0.130441889,0.670994103
1.75935E+18,1.417241455,0.286269844,-0.031315047,0.73923254
1.75935E+18,1.42729834,0.38307789,0.02568033,0.798776567
1.75935E+18,1.437356445,0.501330197,0.090538688,0.80940789
1.75935E+18,1.447414307,0.580356836,0.152635351,0.800522268
1.75935E+18,1.457472656,0.691073775,0.237374201,0.774948418
1.75935E+18,1.467530518,0.746249139,0.207384348,0.752737164
1.75935E+18,1.477587402,0.802480757,0.089176483,0.750516891
1.75935E+18,1.487645264,0.851588368,-0.005081578,0.762574613
1.75935E+18,1.497703369,0.873038232,-0.019205652,0.790323675
1.75935E+18,1.507761475,0.89709568,-0.012480372,0.838917851
1.75935E+18,1.517819336,0.899533272,-0.113454655,0.933961511
1.75935E+18,1.527877441,0.886359155,-0.199653462,1.071995258
1.75935E+18,1.537934326,0.904491782,-0.232554421,1.222228169
1.75935E+18,1.547992432,0.946773708,-0.202222347,1.35318172
1.75935E+18,1.558050293,0.963815808,-0.128272757,1.415674686
1.75935E+18,1.568108643,0.923749089,-0.151255026,1.454523444
1.75935E+18,1.57816626,0.904624701,-0.157659933,1.466669917
1.75935E+18,1.588223389,0.963154554,-0.106608734,1.425448656
1.75935E+18,1.59828125,0.951961577,-0.150996968,1.400461912
1.75935E+18,1.6083396,0.924912632,-0.246112838,1.392444134
1.75935E+18,1.618397461,0.893727541,-0.292075813,1.362757087
1.75935E+18,1.628455322,0.87408942,-0.314250618,1.320257306
1.75935E+18,1.638513428,0.881146014,-0.362536103,1.283578396
1.75935E+18,1.648570313,0.875171185,-0.335706353,1.235316277
1.75935E+18,1.658628418,0.914925814,-0.208446681,1.131432295
1.75935E+18,1.668686279,0.895813882,-0.226690397,1.070717216
1.75935E+18,1.678744385,0.889374375,-0.329825848,1.049030542
1.75935E+18,1.688802246,0.856885672,-0.538413167,1.060786366
1.75935E+18,1.69886084,0.806487739,-0.736632228,1.054463983
1.75935E+18,1.708917969,0.818776369,-0.814320087,0.99261874
1.75935E+18,1.718976074,0.725530267,-0.987907052,0.906465471
1.75935E+18,1.729033691,0.670176208,-1.093003631,0.798783481
1.75935E+18,1.739091797,0.71972698,-1.129231453,0.69501394
1.75935E+18,1.749149902,0.676259398,-1.438762069,0.667510927
1.75935E+18,1.759207031,0.602743387,-1.842311978,0.70230037
1.75935E+18,1.769264893,0.482782364,-2.335826159,0.760262966
1.75935E+18,1.779322998,0.348526567,-2.958058596,0.864838362
1.75935E+18,1.789380859,0.233070537,-3.103923082,0.847298801
1.75935E+18,1.799438965,0.238370493,-2.97900939,0.750030041
1.75935E+18,1.809496826,0.286098331,-2.692260742,0.615262628
1.75935E+18,1.819554199,0.307531714,-2.593617916,0.484772295
1.75935E+18,1.829611816,0.296172798,-2.530222893,0.336337537
1.75935E+18,1.839669922,0.241474137,-2.421512127,0.17040129
1.75935E+18,1.849727783,0.186309949,-2.111792803,0.065573148
1.75935E+18,1.859786133,0.112775281,-1.697262883,0.11898125
1.75935E+18,1.869843994,0.020732176,-1.078168273,0.319613963
1.75935E+18,1.879900879,-0.144358769,-0.754541159,0.3549999
1.75935E+18,1.889958984,-0.303777993,-0.602555931,-0.207278088
1.75935E+18,1.900016846,-0.26034984,-0.305401713,-1.014737129
1.75935E+18,1.910074951,-0.128117219,0.26550144,-1.419253945
1.75935E+18,1.920132813,-0.109494269,1.229271173,-1.035295606
1.75935E+18,1.930190918,-0.180487484,2.863353014,0.007446997
1.75935E+18,1.940247803,-0.224367052,4.424448013,0.26062572
1.75935E+18,1.950305908,-0.358073205,4.954339027,-1.346202374
1.75935E+18,1.960364014,-0.647523105,4.490493298,-2.162284851
1.75935E+18,1.970422119,-0.423416525,3.917693615,-1.905030727
1.75935E+18,1.980479736,-0.423365384,4.116175652,-1.947725534
1.75935E+18,1.990537842,-0.456405342,4.813366413,-2.252354145
1.75935E+18,2.000595947,-0.276529074,5.223442078,-2.340783596
1.75935E+18,2.010653076,-0.19002986,5.161717415,-2.213776827
1.75935E+18,2.020710938,-0.275184155,4.666061878,-2.207087517
1.75935E+18,2.030768799,-0.388350666,4.045691013,-2.476691246
1.75935E+18,2.040826904,-0.449756503,3.459420681,-2.852371216
1.75935E+18,2.05088501,-0.569752157,2.902126312,-3.1351614
1.75935E+18,2.060942871,-0.733761311,2.368903399,-3.259367228
1.75935E+18,2.071000244,-0.89095813,2.043466806,-3.26260066
1.75935E+18,2.081057861,-1.065384746,1.940814614,-3.225392342
1.75935E+18,2.091115723,-1.387773275,2.100480318,-3.118963957
1.75935E+18,2.101173828,-1.853199005,2.352713108,-2.981078625
1.75935E+18,2.111232178,-2.336558342,2.484245062,-2.785778046
1.75935E+18,2.121289795,-2.949431896,2.757653952,-2.523423433
1.75935E+18,2.131347656,-3.583832026,2.564347506,-2.074278831
1.75935E+18,2.141405029,-3.970696926,1.642735004,-1.42691958
1.75935E+18,2.151462891,-3.882301092,0.192224562,-0.990449071
1.75935E+18,2.161520996,-3.29268074,-1.031150937,-0.86002928
1.75935E+18,2.171578857,-2.472900629,-1.71392417,-0.947562039
1.75935E+18,2.181636963,-1.872996092,-2.172026396,-1.218657136
1.75935E+18,2.191694824,-1.687172413,-2.413360119,-1.637851834
1.75935E+18,2.20175293,-2.069879293,-2.435447931,-1.96813643
1.75935E+18,2.211809814,-2.628332615,-2.401593447,-2.188569307
1.75935E+18,2.221868164,-2.256567717,-2.327534914,-2.788152218
1.75935E+18,2.231925781,-0.712797165,-0.743764937,-4.451805592
1.75935E+18,2.241983887,0.069831014,1.45719862,-5.717588425
1.75935E+18,2.252041992,-0.122842565,3.482467175,-5.051083565
1.75935E+18,2.262100098,-1.277307153,4.850529194,-3.06434083
1.75935E+18,2.272157715,-2.180161953,3.645641327,-1.598532915
1.75935E+18,2.2822146,-2.138533592,1.177991748,-1.039609671
1.75935E+18,2.292272949,-1.700880051,-0.265908629,-1.309944272
1.75935E+18,2.302331055,-1.149487972,-0.349555075,-1.459701777
1.75935E+18,2.312388916,-0.687869191,0.258826494,-0.954315782
1.75935E+18,2.322447021,-0.416125029,1.140735507,-0.113548398
1.75935E+18,2.332504883,-0.211670443,1.86944294,0.669946134
1.75935E+18,2.342562988,0.043130159,2.089226007,1.230963349
1.75935E+18,2.352619873,0.295632184,1.94842267,1.564617276
1.75935E+18,2.362677979,0.445916504,1.611301184,1.769156218
1.75935E+18,2.37273584,0.539332747,1.263450265,1.920074463
1.75935E+18,2.382793701,0.624415159,0.812301934,1.948992372
1.75935E+18,2.392852051,0.697131932,0.262039065,1.969994545
1.75935E+18,2.402909912,0.718703568,-0.039368711,2.207639933
1.75935E+18,2.412967773,0.743229151,-0.026253708,2.725265741
1.75935E+18,2.423024902,0.820966244,-0.015141669,3.326756954
1.75935E+18,2.433083008,1.018586159,-0.206906572,3.672573566
1.75935E+18,2.443140869,1.472467065,-0.100052565,3.561712265
1.75935E+18,2.453198975,2.237164259,-0.067067452,2.858852863
1.75935E+18,2.463256836,2.862455845,-0.11829602,2.392188311
1.75935E+18,2.473314941,3.286515951,-0.66035074,2.597525597
1.75935E+18,2.483372803,3.607539654,-1.705675602,2.961618662
1.75935E+18,2.493431152,3.863763809,-2.771355867,3.399507284
1.75935E+18,2.503488037,4.032926083,-3.077614546,3.814730883
1.75935E+18,2.513546143,3.343078136,-1.564324617,3.731011391
1.75935E+18,2.52360376,1.224996805,1.994101763,2.735305786
1.75935E+18,2.533662109,-0.783182383,4.868960381,1.898447633
1.75935E+18,2.543719971,-0.695387065,5.959707737,1.524361968
1.75935E+18,2.553778076,1.53250432,4.51363039,1.645421505
1.75935E+18,2.563835938,3.682139397,3.533557415,1.163865089
1.75935E+18,2.573894043,5.002481937,3.115514517,0.599344134
1.75935E+18,2.583950928,4.150962353,2.246981859,0.477637678
1.75935E+18,2.594008789,2.863243818,0.430687994,0.646820545
1.75935E+18,2.604067139,2.151079416,-1.156711221,0.859020472
1.75935E+18,2.614124756,1.567392826,-2.317973852,1.150316715
1.75935E+18,2.624182861,1.178293228,-3.340925932,1.462668777
1.75935E+18,2.634240967,0.867530823,-4.001382351,1.632101774
1.75935E+18,2.644299072,0.499722987,-4.359977245,1.707925439
1.75935E+18,2.654356689,0.252996564,-4.355325222,1.608215809
1.75935E+18,2.664414795,-0.008225173,-4.440161228,1.509958029
1.75935E+18,2.674471924,-0.151700586,-4.461490154,1.308250427
1.75935E+18,2.684530029,-0.243591353,-4.483848572,1.089232326
1.75935E+18,2.694587891,-0.348340929,-4.312520027,0.839222491
1.75935E+18,2.70464502,-0.62045449,-4.12998867,0.641677201
1.75935E+18,2.714702881,-0.988286555,-3.811087608,0.461010218
1.75935E+18,2.724760986,-1.188124537,-2.970709324,0.148845673
1.75935E+18,2.734818848,-1.253332853,-1.915787816,-0.208716989
1.75935E+18,2.744877197,-1.135645866,-0.884550571,-0.570073843
1.75935E+18,2.754934814,-0.885049641,0.141768053,-0.946311951
1.75935E+18,2.76499292,-0.544650018,0.978620052,-1.291385412
1.75935E+18,2.775049805,-0.235048473,1.487267613,-1.534260631
1.75935E+18,2.78510791,0.019996079,1.86573875,-1.66893518
1.75935E+18,2.795166016,0.20624505,2.301966429,-1.695533991
1.75935E+18,2.805224121,0.551412582,2.722937107,-1.668001652
1.75935E+18,2.815281982,1.024814487,2.948856831,-1.671747684
1.75935E+18,2.825340088,1.306877017,2.784533739,-1.780085564
1.75935E+18,2.835397949,1.244905829,2.150768042,-1.864502788
1.75935E+18,2.845456299,1.043123484,1.198544502,-1.879419923
1.75935E+18,2.855513916,0.920443356,0.197559685,-1.7993927
1.75935E+18,2.865570801,1.113369107,-0.167948529,-1.376623631
1.75935E+18,2.875628906,1.313703775,1.327795148,-0.788346827
1.75935E+18,2.885687012,1.195681572,1.682184935,-1.010735154
1.75935E+18,2.895745117,0.669782341,0.627895594,-1.477282882
1.75935E+18,2.905802734,-0.978720188,1.861992955,-2.475076675
1.75935E+18,2.915861084,-3.059218884,3.296824455,-2.864073753
1.75935E+18,2.925918945,-2.698395252,3.822086096,-2.347186565
1.75935E+18,2.935977051,-1.169867277,3.066982269,-1.713308215
1.75935E+18,2.946034912,-0.548836231,1.771495342,-1.336279392
1.75935E+18,2.956093018,-1.013365507,0.670542419,-1.252468705
1.75935E+18,2.966150879,-1.981917858,-0.179143652,-1.260825396
1.75935E+18,2.976208984,-2.782577276,-0.748052657,-1.239765406
1.75935E+18,2.986266113,-3.090195417,-1.191653252,-1.187660336
1.75935E+18,2.996323975,-3.023965359,-1.106806517,-1.082339048
1.75935E+18,3.006381836,-2.783949614,-0.466821253,-1.286724687
1.75935E+18,3.016439941,-2.410825968,-0.365846962,-1.841511965
1.75935E+18,3.026498047,-2.076408148,-1.448273301,-2.611761808
1.75935E+18,3.036555908,-1.892306924,-2.893954039,-3.557270765
1.75935E+18,3.04661377,-2.031309128,-3.561709166,-4.536668301
1.75935E+18,3.056672119,-2.031603098,-2.197500467,-5.483812332
1.75935E+18,3.06672998,-1.645088673,0.96715945,-5.903591156
1.75935E+18,3.076787842,-1.551187515,5.669794083,-5.682794571
1.75935E+18,3.086845947,-1.827825189,10.57068348,-4.51833868
1.75935E+18,3.096903076,-2.173673868,11.91689968,-3.841117859
1.75935E+18,3.106960938,-2.073161125,6.681446552,-3.08859086
1.75935E+18,3.117019043,-1.467466712,1.183290362,-1.205011964
1.75935E+18,3.127076904,-0.7467767,-2.529421568,0.392884433
1.75935E+18,3.13713501,-0.190826669,-3.424922228,1.395992279
1.75935E+18,3.147192871,0.224759877,-2.254999399,1.732311964
1.75935E+18,3.157251221,0.47502619,-0.612313986,1.798023582
1.75935E+18,3.167309082,0.631676257,0.148446992,1.979056239
1.75935E+18,3.177366943,0.744376421,0.333789676,2.267148733
1.75935E+18,3.187425049,0.800492167,0.094025567,2.488154173
1.75935E+18,3.197483154,0.848365664,-0.365094602,2.568161011
1.75935E+18,3.207541016,0.906803966,-0.761399329,2.571312428
1.75935E+18,3.217598877,0.953922451,-1.137475252,2.513920546
1.75935E+18,3.227656006,0.943382442,-1.470234513,2.427268744
1.75935E+18,3.237713867,0.88140589,-1.6256423,2.448952913
1.75935E+18,3.247771973,0.827574909,-1.416355371,2.618481398
1.75935E+18,3.257830322,0.80516547,-0.65426147,2.896101475
1.75935E+18,3.267887939,0.830373108,0.466252118,3.186933041
1.75935E+18,3.277945801,1.035902858,1.360818028,3.418133259
1.75935E+18,3.288003906,1.467841387,1.943891883,3.485742331
1.75935E+18,3.298062256,2.03731513,1.600402117,2.416857243
1.75935E+18,3.308119873,2.566395283,1.015093088,1.58524847
1.75935E+18,3.318177734,3.312826157,1.167082667,1.609957337
1.75935E+18,3.328236084,4.198229313,1.579491019,1.640369058
1.75935E+18,3.338294189,4.815769196,1.61061132,1.772505164
1.75935E+18,3.348351807,5.056896687,1.639473915,1.93317318
1.75935E+18,3.358410156,4.158771515,2.670661926,1.280236363
1.75935E+18,3.368467041,1.636825085,3.14789629,0.625803411
1.75935E+18,3.378524902,-0.115936719,3.32632494,0.211423025
1.75935E+18,3.388583008,1.180134058,2.17383194,-0.047364052
1.75935E+18,3.398640869,3.669889688,1.462335587,0.02838104
1.75935E+18,3.408698975,3.945599556,1.420567632,0.034427483
1.75935E+18,3.418756836,2.838325739,0.828680396,-0.05446564
1.75935E+18,3.428815186,1.715833426,-1.624305844,0.494282156
1.75935E+18,3.438872803,0.871889889,-2.897861719,0.826535761
1.75935E+18,3.448930908,0.409382463,-3.29783082,0.903431058
1.75935E+18,3.458989014,0.113099128,-3.729366541,0.951962352
1.75935E+18,3.469047119,-0.417341053,-3.854670048,0.879063904
1.75935E+18,3.479104736,-0.770888209,-3.932709694,0.778142393
1.75935E+18,3.489162842,-0.790501595,-3.902011633,0.72078985
1.75935E+18,3.499220947,-0.766154408,-3.693004608,0.602840602
1.75935E+18,3.509279053,-0.880388558,-3.284016848,0.420644164
1.75935E+18,3.51933667,-1.028123975,-3.183710814,0.377659678
1.75935E+18,3.529394043,-1.12104857,-2.898910761,0.45223245
1.75935E+18,3.539451904,-1.180699706,-1.814065695,0.315450102
1.75935E+18,3.54951001,-1.163793445,-0.652991116,0.075901687
1.75935E+18,3.559567871,-1.129408479,0.305564433,-0.166537851
1.75935E+18,3.569625977,-0.978310108,1.101101756,-0.420817256
1.75935E+18,3.579683838,-0.591387689,1.555911422,-0.615170479
1.75935E+18,3.589741943,-0.119477659,2.100226402,-0.823400378
1.75935E+18,3.599800049,0.300682068,2.576967001,-0.990782976
1.75935E+18,3.609858154,0.6066311,2.881905317,-1.0418185
1.75935E+18,3.619915771,0.880531609,2.9497931,-1.160665035
1.75935E+18,3.629974121,1.146606445,2.757214785,-1.465302587
1.75935E+18,3.640031982,1.181781769,2.274023771,-1.756921411
1.75935E+18,3.650090088,0.827173293,1.449107647,-1.726365685
1.75935E+18,3.660147949,0.401080579,0.693074346,-1.552873254
1.75935E+18,3.670206055,0.170148298,0.272543371,-1.419597745
1.75935E+18,3.680263916,0.266482562,0.336926103,-1.54688704
1.75935E+18,3.690322021,0.511475503,-0.26404202,-1.92216897
1.75935E+18,3.700380615,1.015485168,-0.727804363,-1.966615319
1.75935E+18,3.710437744,1.365118504,-0.43065685,-1.772650599
1.75935E+18,3.720495605,-0.306393743,2.248425245,-1.379609346
1.75935E+18,3.730553955,-2.835682869,4.954520702,-0.870024383
1.75935E+18,3.740611572,-3.150722742,4.137650967,-0.698188961
1.75935E+18,3.750669678,-2.162214518,2.149998426,-0.577794373
1.75935E+18,3.760727783,-1.199594259,0.240173981,-0.548353136
1.75935E+18,3.770785889,-0.96687156,-1.226935863,-0.4690274
1.75935E+18,3.780843506,-1.250764489,-2.035422802,-0.404453993
1.75935E+18,3.790901611,-1.566093206,-2.031289339,-0.3597579
1.75935E+18,3.800959717,-1.921052098,-1.689486742,-0.20140022
1.75935E+18,3.811017822,-2.291568756,-0.934950113,-0.186275601
1.75935E+18,3.821075439,-2.521162271,0.21366328,-0.827700078
1.75935E+18,3.831133789,-2.741758347,0.644833565,-1.571057796
1.75935E+18,3.84119165,-2.910345793,-0.272119135,-2.228038549
1.75935E+18,3.851249756,-2.926491261,-2.063355684,-2.754504204
1.75935E+18,3.861307617,-3.078507423,-3.004141092,-3.459148407
1.75935E+18,3.871365723,-3.277092695,-2.343087673,-4.242688656
1.75935E+18,3.881423584,-3.03865242,0.02125602,-4.695037365
1.75935E+18,3.891481934,-2.900161743,3.847620487,-4.545677185
1.75935E+18,3.901539551,-3.042690516,7.168247223,-3.571933508
1.75935E+18,3.91159668,-3.212109089,7.035711288,-3.01713109
1.75935E+18,3.921654541,-2.757594585,3.353585958,-2.027471542
1.75935E+18,3.931712891,-1.684772134,0.662885308,-0.722547531
1.75935E+18,3.941770752,-0.738892198,-0.943315327,0.25882864
1.75935E+18,3.951828613,-0.105828963,-1.161733389,0.73349154
1.75935E+18,3.961886719,0.25109908,-0.690400541,1.115405083
1.75935E+18,3.971944824,0.485894799,0.026561303,1.469659567
1.75935E+18,3.982002686,0.631925762,0.32568115,1.690636158
1.75935E+18,3.992060791,0.770576596,0.092350967,1.735339165
1.75935E+18,4.002118652,0.868554592,-0.266301185,1.722732067
1.75935E+18,4.012176758,0.922572017,-0.640087843,1.758377671
1.75935E+18,4.022234619,0.915640831,-0.950438261,1.838971615
1.75935E+18,4.032292725,0.891944826,-1.103565693,1.937354326
1.75935E+18,4.042350586,0.857770383,-0.824386299,2.073937416
1.75935E+18,4.052408691,0.821897328,-0.094677508,2.280771017
1.75935E+18,4.062466797,0.820420861,0.642695069,2.587536573
1.75935E+18,4.072524658,0.902696013,0.934334636,2.927418709
1.75935E+18,4.08258252,1.141590595,0.711705267,3.169294357
1.75935E+18,4.092640869,1.772325754,0.275695235,3.167109251
1.75935E+18,4.10269873,2.63099575,0.049911901,2.486229658
1.75935E+18,4.112756836,3.301615477,-0.593195677,1.464066982
1.75935E+18,4.122814697,4.007588863,-0.718575478,1.287659645
1.75935E+18,4.132871826,4.619176388,-1.037920952,1.55443573
1.75935E+18,4.142929688,4.869696617,-1.543504477,2.364740372
1.75935E+18,4.152987793,4.083223343,0.785246909,1.898536921
1.75935E+18,4.163045898,2.270062447,2.397539616,1.000444412
1.75935E+18,4.17310376,0.277552247,2.85552597,0.623835087
1.75935E+18,4.183161621,0.308898717,2.826912642,0.130053073
1.75935E+18,4.193219727,2.559556723,2.266726732,-0.618264854
1.75935E+18,4.203277832,4.112187386,2.611843348,-1.134114385
1.75935E+18,4.213335693,4.013954639,2.715096235,-1.576121092
1.75935E+18,4.223393555,3.175793409,1.382417917,-1.44957459
1.75935E+18,4.233451904,2.262142658,-0.248775735,-0.958700716
1.75935E+18,4.243509766,1.375005245,-2.187279701,-0.320341259
1.75935E+18,4.253567627,0.847365916,-3.386205912,0.119223863
1.75935E+18,4.263625732,0.279829264,-4.044298649,0.455639958
1.75935E+18,4.273683838,-0.309635073,-4.4029603,0.809466481
1.75935E+18,4.283741699,-0.758077025,-4.026694298,0.845978975
1.75935E+18,4.293799805,-1.11176455,-3.890688181,0.871101856
1.75935E+18,4.303857666,-1.367782712,-3.895097733,0.947178006
1.75935E+18,4.313915771,-1.594239831,-3.548357487,1.012004614
1.75935E+18,4.323973877,-1.764939666,-3.295050383,1.159713745
1.75935E+18,4.334031738,-1.783242583,-2.886343002,1.320394516
1.75935E+18,4.3440896,-1.660385013,-2.134291887,1.315941691
1.75935E+18,4.354147705,-1.430862904,-1.262316227,1.162498593
1.75935E+18,4.364205811,-1.142013788,-0.327989578,0.916649938
1.75935E+18,4.374262939,-0.824390829,0.432986319,0.620262206
1.75935E+18,4.384320557,-0.388713926,1.163604856,0.193715945
1.75935E+18,4.394378662,0.118889101,1.83028996,-0.254559577
1.75935E+18,4.404436768,0.539246976,2.323312759,-0.536403239
1.75935E+18,4.414494873,0.867568374,2.318376303,-0.625993848
1.75935E+18,4.42455249,1.123139501,2.058723211,-0.863257527
1.75935E+18,4.43461084,1.211550474,1.522365093,-1.213991642
1.75935E+18,4.444668701,1.075777531,1.086125493,-1.627741575
1.75935E+18,4.454726807,0.755326033,0.663621664,-1.90111804
1.75935E+18,4.464784668,0.552185416,0.241405427,-1.998565793
1.75935E+18,4.474842773,0.410312682,-0.069619022,-2.104177475
1.75935E+18,4.484900635,0.439677507,0.012064919,-2.171160221
1.75935E+18,4.494958984,0.534282565,-0.697345257,-2.365735531
1.75935E+18,4.505016602,0.772958279,-1.338732719,-2.492092848
1.75935E+18,4.515074707,0.576952279,-0.84037751,-2.272110701
1.75935E+18,4.525132813,-1.49069643,1.710225105,-2.165329695
1.75935E+18,4.535190918,-4.407983303,4.848919392,-1.466271281
1.75935E+18,4.545248535,-4.689577579,4.587620735,-0.962654412
1.75935E+18,4.555306641,-2.348191977,1.774476171,-0.928572357
1.75935E+18,4.565364746,-0.789315164,-1.198442936,-0.886794031
1.75935E+18,4.575422852,-0.642116904,-2.775549889,-0.859910727
1.75935E+18,4.585480469,-1.171432137,-2.681024313,-0.718768001
1.75935E+18,4.595538818,-1.783816218,-1.683942318,-0.276704818
1.75935E+18,4.60559668,-2.248277426,-1.07590723,0.44359529
1.75935E+18,4.615654785,-2.481293201,-0.460930318,0.686442018
1.75935E+18,4.625712646,-2.524648428,0.537842691,0.073615894
1.75935E+18,4.635770752,-2.681323767,0.931009412,-0.884815812
1.75935E+18,4.645828613,-2.814179897,0.653710425,-1.993465304
1.75935E+18,4.655886963,-2.347843647,0.094690822,-3.245056152
1.75935E+18,4.665943848,-1.760395527,-0.362267673,-4.603142738
1.75935E+18,4.676001953,-1.872589707,0.155180261,-5.568079472
1.75935E+18,4.68605957,-2.529727936,4.535107613,-5.547576427
1.75935E+18,4.69611792,-3.127106905,9.684346199,-4.059185982
1.75935E+18,4.706176514,-2.950975657,8.060639381,-2.879139662
1.75935E+18,4.716234375,-2.060022116,2.984657049,-1.316483617
1.75935E+18,4.726292236,-1.275515437,-0.643989384,-0.18470566
1.75935E+18,4.736350342,-0.95718348,-1.926633477,0.506211281
1.75935E+18,4.746408447,-0.821080267,-1.472005844,0.80965209
1.75935E+18,4.756466309,-0.519851983,-0.040289633,0.844823122
1.75935E+18,4.76652417,-0.11790853,0.844738722,1.087240815
1.75935E+18,4.77658252,0.275638491,0.58338356,1.506655455
1.75935E+18,4.786640381,0.537784874,0.09593372,1.718295217
1.75935E+18,4.796698242,0.745025456,-0.399978042,1.648740649
1.75935E+18,4.806756348,0.87250936,-0.689986169,1.527959347
1.75935E+18,4.816814453,0.990122259,-0.658075094,1.398777962
1.75935E+18,4.826872314,1.087115884,-0.399567634,1.340249181
1.75935E+18,4.83693042,1.143073201,0.054551657,1.37283206
1.75935E+18,4.846988281,1.156482458,0.635762036,1.554645896
1.75935E+18,4.857046387,1.17994225,1.083569884,1.964402437
1.75935E+18,4.867104248,1.311515689,1.059463263,2.477543831
1.75935E+18,4.877162354,1.689175963,0.462168157,2.753638268
1.75935E+18,4.887220215,2.346317291,-0.700183392,2.204260349
1.75935E+18,4.89727832,2.975512505,-1.679311872,1.54392767
1.75935E+18,4.907336426,3.58949852,-1.964984655,1.495059252
1.75935E+18,4.917394287,4.313034534,-2.166995525,1.769354463
1.75935E+18,4.927452148,4.953684807,-2.544417381,2.342040062
1.75935E+18,4.937509277,5.16477108,-1.728070855,2.940817356
1.75935E+18,4.947567383,4.327732563,1.580736876,2.184936285
1.75935E+18,4.957625488,2.263268232,2.887040138,1.579165816
1.75935E+18,4.967683105,0.372583151,3.670361042,1.103997946
1.75935E+18,4.977741455,0.323833466,3.14556098,0.056091499
1.75935E+18,4.987799316,2.95386219,2.260497332,-0.987550437
1.75935E+18,4.997857422,5.139248848,2.370745659,-1.958132863
1.75935E+18,5.007915283,4.324019432,2.427746534,-2.261651993
1.75935E+18,5.017973389,2.721059799,1.193679333,-1.803105474
1.75935E+18,5.02803125,1.613351464,-0.859131217,-0.775319695
1.75935E+18,5.0380896,0.934571147,-2.025228262,-0.048762478
1.75935E+18,5.048147217,0.606447875,-2.81550765,0.269275934
1.75935E+18,5.058205322,0.298494011,-3.412817478,0.440357685
1.75935E+18,5.068263184,-0.28756547,-3.556824684,0.56410414
1.75935E+18,5.078321533,-0.795406878,-3.512449741,0.711554289
1.75935E+18,5.088379395,-1.093357563,-3.535452366,0.792978287
1.75935E+18,5.098437256,-1.229222417,-3.693033934,0.863986969
1.75935E+18,5.108495361,-1.333693504,-3.561720848,0.8809039
1.75935E+18,5.118553467,-1.444669008,-2.776139498,0.840325594
1.75935E+18,5.128611328,-1.541521549,-2.155831814,0.878711045
1.75935E+18,5.138669434,-1.453229427,-1.324084759,0.858500302
1.75935E+18,5.148727295,-1.297701359,-0.440075636,0.737543523
1.75935E+18,5.1587854,-1.083009124,0.416317582,0.55454284
1.75935E+18,5.168843506,-0.739688993,1.076393008,0.310521662
1.75935E+18,5.178901367,-0.232234299,1.563764215,-0.046655919
1.75935E+18,5.188959229,0.275092274,2.170050859,-0.509003341
1.75935E+18,5.199017334,0.600075424,2.424001694,-0.802841842
1.75935E+18,5.209075439,0.831463635,2.245850563,-1.017890215
1.75935E+18,5.219133301,0.968732834,1.741209865,-1.283285737
1.75935E+18,5.229191162,0.923484683,1.179819822,-1.664760947
1.75935E+18,5.239249512,0.741068482,0.76579833,-1.988019109
1.75935E+18,5.249306396,0.634939969,0.422276139,-2.057060957
1.75935E+18,5.259364502,0.97467196,0.78751272,-1.941514969
1.75935E+18,5.269422119,1.754626632,0.137725636,-2.106318951
1.75935E+18,5.279480469,2.303078413,-0.082755066,-2.094020128
1.75935E+18,5.28953833,1.959427118,1.521230936,-1.413929462
1.75935E+18,5.299596436,0.530452669,2.954605103,-1.348129392
1.75935E+18,5.309654297,-1.644122243,3.344096661,-1.29370749
1.75935E+18,5.319712402,-3.656002998,2.909224272,-1.176542163
1.75935E+18,5.329770264,-3.860541344,1.217714667,-0.870790839
1.75935E+18,5.339828613,-3.033536673,-1.156095266,-0.35704416
1.75935E+18,5.34988623,-2.271071672,-2.39709878,0.116189189
1.75935E+18,5.359944336,-2.206356525,-2.775066614,0.502902806
1.75935E+18,5.370002441,-2.650701046,-3.189460278,0.903151691
1.75935E+18,5.380060547,-3.145439386,-3.294987202,1.286793947
1.75935E+18,5.390118164,-3.443037748,-2.398664951,1.44752121
1.75935E+18,5.40017627,-3.246753216,-2.019316673,0.977194488
1.75935E+18,5.410234375,-3.036627531,-1.906739712,0.119066738
1.75935E+18,5.42029248,-2.953555822,-1.797261119,-1.04664278
1.75935E+18,5.430350098,-2.802753687,-1.784398556,-2.334336996
1.75935E+18,5.440408447,-2.670736074,-2.886083364,-3.21148181
1.75935E+18,5.450466309,-1.909015894,-1.889592648,-4.870547771
1.75935E+18,5.460524414,-1.459124923,0.549788058,-6.413236141
1.75935E+18,5.470582275,-1.93673408,4.78991127,-6.397294044
1.75935E+18,5.480640381,-2.717440128,10.33490372,-4.843103409
1.75935E+18,5.490698242,-2.752825022,9.178166389,-3.46249485
1.75935E+18,5.500756592,-1.74974072,3.524855137,-1.264778614
1.75935E+18,5.510814209,-0.79144007,-0.854003072,0.327998906
1.75935E+18,5.520872314,-0.308196723,-2.606426477,0.986396253
1.75935E+18,5.53093042,-0.224822462,-1.714231014,0.86085856
1.75935E+18,5.540987549,-0.139741391,0.365665585,0.57421881
1.75935E+18,5.55104541,0.185438305,1.016834617,0.903943956
1.75935E+18,5.561103271,0.5492149,0.634092271,1.346239328
1.75935E+18,5.571161377,0.751989067,0.189111069,1.548948765
1.75935E+18,5.581219482,0.793968737,-0.075502746,1.542928696
1.75935E+18,5.591277344,0.772011757,-0.063645557,1.471018553
1.75935E+18,5.601335449,0.780881703,0.002660232,1.414069533
1.75935E+18,5.611393311,0.806079984,0.145816594,1.410318255
1.75935E+18,5.621451416,0.845211983,0.470059633,1.486305356
1.75935E+18,5.631509277,0.921590626,0.968423367,1.654896259
1.75935E+18,5.641567383,1.117199302,1.151365757,1.901170492
1.75935E+18,5.651625244,1.595518231,0.705810666,2.101963997
1.75935E+18,5.66168335,2.490458965,-0.941691637,1.476112366
1.75935E+18,5.671741455,3.504534006,-2.437950134,0.915809453
1.75935E+18,5.681799561,4.382380486,-2.788218498,1.300529718
1.75935E+18,5.691857178,5.060351849,-2.626467943,2.115949869
1.75935E+18,5.701914551,5.527439117,-2.334724665,3.146084547
1.75935E+18,5.711972656,5.673670769,-1.171273947,4.056856155
1.75935E+18,5.722030762,4.899102211,2.068555832,3.511581659
1.75935E+18,5.732088623,2.693700552,3.567611694,2.54868865
1.75935E+18,5.742146729,0.368304789,4.367565632,1.649508715
1.75935E+18,5.75220459,-0.374414623,2.890571594,0.766244709
1.75935E+18,5.762262695,0.906351745,2.04799366,0.026597256
1.75935E+18,5.772320557,2.968279123,2.453761339,-0.785988569
1.75935E+18,5.782378662,4.116538525,3.160442829,-1.693857551
1.75935E+18,5.792436523,3.794132948,2.7033813,-2.002424717
1.75935E+18,5.802494629,2.985756874,0.308215886,-1.260687232
1.75935E+18,5.812551514,2.135555744,-1.540275693,-0.340445727
1.75935E+18,5.822609619,1.348928094,-2.493618965,0.434011638
1.75935E+18,5.83266748,0.630545199,-3.228277683,1.038662076
1.75935E+18,5.842725342,0.063513994,-3.40342021,1.198326826
1.75935E+18,5.852783691,-0.254743874,-3.280227184,1.037860274
1.75935E+18,5.862841553,-0.577034831,-3.398192644,0.929962814
1.75935E+18,5.872899414,-0.82022804,-3.47482872,0.852838457
1.75935E+18,5.88295752,-0.913696766,-3.388747215,0.702033222
1.75935E+18,5.893015625,-1.016175151,-3.066162348,0.620012403
1.75935E+18,5.903073486,-1.201634526,-2.683235407,0.662589669
1.75935E+18,5.913131592,-1.390737653,-1.977876186,0.564510226
1.75935E+18,5.923189453,-1.545885086,-1.029224157,0.278363973
1.75935E+18,5.933247559,-1.594486952,-0.292406291,0.064030915
1.75935E+18,5.943305908,-1.402303219,0.217195168,-0.089224152
1.75935E+18,5.953363525,-0.874240935,0.672031403,-0.249165878
1.75935E+18,5.963421387,-0.173935845,1.436373234,-0.252821326
1.75935E+18,5.973479492,0.581698,2.156109333,-0.186828211
1.75935E+18,5.983537842,1.106206775,2.62573719,-0.353291214
1.75935E+18,5.993595459,1.285731554,2.622555256,-0.870007575
1.75935E+18,6.00365332,1.069985986,2.025767803,-1.484899998
1.75935E+18,6.01371167,0.563045502,1.221317649,-1.835420012
1.75935E+18,6.023769775,0.183077142,0.642175198,-1.811994791
1.75935E+18,6.033827393,0.464945853,0.952974617,-1.699564695
1.75935E+18,6.043885742,1.108953834,0.234878287,-1.98687613
1.75935E+18,6.053942627,1.750070214,-1.422487259,-2.219563007
1.75935E+18,6.064000488,1.675488114,-1.202594042,-2.050373793
1.75935E+18,6.074058594,0.923927784,0.347253829,-1.796136975
1.75935E+18,6.084116455,-1.242254376,2.293118477,-1.480739355
1.75935E+18,6.094174561,-3.916496515,3.736109257,-0.979452848
1.75935E+18,6.104232422,-4.684967041,2.423650026,-0.655174911
1.75935E+18,6.114290771,-3.125897646,0.479694963,-0.394275129
1.75935E+18,6.124348389,-1.710122466,-1.451744199,-0.511410534
1.75935E+18,6.134406494,-1.552647352,-2.826225042,-0.4514817
1.75935E+18,6.1444646,-1.991430879,-3.594472408,-0.244818807
1.75935E+18,6.154522705,-2.566763878,-2.394388676,0.187004238
1.75935E+18,6.164580322,-2.916496038,-0.448858231,0.48024863
1.75935E+18,6.174638428,-2.761351585,0.094631702,0.205396295
1.75935E+18,6.184696533,-2.903990507,0.038719699,-0.33834821
1.75935E+18,6.194754639,-3.214235067,-0.839923978,-0.992604613
1.75935E+18,6.204812256,-3.327645302,-2.237604856,-1.890429139
1.75935E+18,6.214870605,-3.15714407,-3.131791592,-3.117999077
1.75935E+18,6.224928467,-2.505810261,-1.46473968,-5.103374958
1.75935E+18,6.234986572,-2.240086079,1.998102427,-6.247949123
1.75935E+18,6.245044434,-2.63532114,7.169858932,-5.395571709
1.75935E+18,6.255102539,-2.94438386,9.980415344,-3.995030403
1.75935E+18,6.2651604,-2.454307795,6.073165417,-2.565381289
1.75935E+18,6.275217529,-1.422610879,1.894561887,-0.731339157
1.75935E+18,6.285275635,-0.663264275,-0.685451329,0.492839783
1.75935E+18,6.29533374,-0.407204777,-1.211740375,1.014933825
1.75935E+18,6.305391357,-0.357439369,-0.09371344,0.894300163
1.75935E+18,6.315449707,-0.282545954,0.7508623,0.854691744
1.75935E+18,6.325507568,-0.052936982,0.648082912,1.12031889
1.75935E+18,6.335565674,0.147571608,0.295486242,1.331818342
1.75935E+18,6.345623535,0.250599205,-0.037978008,1.295756221
1.75935E+18,6.355681641,0.337019563,-0.313496947,0.958634913
1.75935E+18,6.365739502,0.373829782,-0.16354233,0.648970783
1.75935E+18,6.375797607,0.425684452,0.38474369,0.538759589
1.75935E+18,6.385855469,0.455721706,1.14882803,0.690888405
1.75935E+18,6.395913574,0.559922695,1.918260813,1.12283504
1.75935E+18,6.405971436,0.843424439,2.152049303,1.822999477
1.75935E+18,6.416029785,1.405935764,1.536456466,2.584796429
1.75935E+18,6.426087402,2.020375729,-0.051265053,2.908142328
1.75935E+18,6.436145508,2.721896648,-2.531723738,2.165607452
1.75935E+18,6.446203613,3.412727833,-3.832863808,1.227919936
1.75935E+18,6.456261719,3.861202002,-3.3310256,1.517707229
1.75935E+18,6.466318604,4.248730183,-2.623001337,2.473003626
1.75935E+18,6.476376465,4.829990864,-2.256578207,3.644220591
1.75935E+18,6.48643457,5.382379532,-1.547189474,4.484209538
1.75935E+18,6.496492676,5.47702837,0.377316386,4.490544319
1.75935E+18,6.506550537,4.017218113,2.972815275,3.236846685
1.75935E+18,6.516608643,1.721925378,2.814461946,2.419324636
1.75935E+18,6.526666504,0.418187648,2.131840706,1.759681821
1.75935E+18,6.536724609,0.613862872,1.515902996,0.759547412
1.75935E+18,6.546782715,1.982246161,1.673074007,-0.180062711
1.75935E+18,6.556840576,3.47174859,2.547055006,-1.210294604
1.75935E+18,6.566898438,3.940063953,2.623387098,-1.813496351
1.75935E+18,6.576956543,3.249385357,1.368813872,-1.702464819
1.75935E+18,6.587014648,2.322352409,-0.300021887,-1.117025852
1.75935E+18,6.59707251,1.632907629,-1.592971683,-0.466518968
1.75935E+18,6.607130371,1.049071074,-2.753436327,0.163367093
1.75935E+18,6.617188721,0.376444995,-3.428357601,0.661581933
1.75935E+18,6.627246582,-0.196773246,-3.559320688,0.994023025
1.75935E+18,6.637304443,-0.566884995,-3.394165277,1.021179199
1.75935E+18,6.647361328,-0.783780038,-3.340167999,0.896266878
1.75935E+18,6.657419678,-0.931090891,-3.063704967,0.64792496
1.75935E+18,6.667477539,-1.128954768,-2.929435968,0.538388133
1.75935E+18,6.677535645,-1.365242839,-2.911670923,0.622334957
1.75935E+18,6.687593506,-1.531059504,-2.685235739,0.659016013
1.75935E+18,6.697651611,-1.601816297,-2.189866781,0.588965774
1.75935E+18,6.707709717,-1.49052465,-1.400675178,0.375327557
1.75935E+18,6.717767822,-1.144598126,-0.784553111,0.189443171
1.75935E+18,6.727825439,-0.542256355,-0.230708048,0.003369431
1.75935E+18,6.737883789,0.176156119,0.481078744,-0.155291855
1.75935E+18,6.74794165,0.726915121,1.490608573,-0.348345995
1.75935E+18,6.757999756,0.925240993,2.347775936,-0.601683736
1.75935E+18,6.768057617,0.980598271,2.542315245,-0.906664908
1.75935E+18,6.778115723,0.945443213,2.171219349,-1.190771222
1.75935E+18,6.788173584,0.816059113,1.703214526,-1.433871269
1.75935E+18,6.798230713,0.550318539,1.341549516,-1.55684936
1.75935E+18,6.808288818,0.278450012,1.154952765,-1.560389996
1.75935E+18,6.81834668,0.113516971,0.868498385,-1.647149086
1.75935E+18,6.828404541,0.186561093,0.44957462,-2.024263382
1.75935E+18,6.838462891,0.435649753,-0.977823555,-2.990390062
1.75935E+18,6.848520752,0.852906883,-1.216849208,-3.216644049
1.75935E+18,6.858578857,0.610243678,-1.129469752,-2.817744493
1.75935E+18,6.868636719,-1.454978347,2.293616772,-2.187732935
1.75935E+18,6.878694824,-3.882208347,6.404598713,-1.206167221
1.75935E+18,6.888752686,-3.392540216,6.247648239,-1.142286539
1.75935E+18,6.898810791,-1.567146182,3.721307516,-1.451033473
1.75935E+18,6.908868652,-0.642855644,0.709413648,-1.526679158
1.75935E+18,6.918926758,-1.019847393,-2.227004766,-1.324109077
1.75935E+18,6.928984619,-1.917459249,-3.849917889,-0.838811576
1.75935E+18,6.939042969,-2.630607128,-3.818840504,-0.092517152
1.75935E+18,6.949099854,-2.957576036,-2.659546852,0.707037568
1.75935E+18,6.959157471,-3.003691435,-1.31769824,1.400334001
1.75935E+18,6.969215576,-2.919405699,0.058046792,1.303605914
1.75935E+18,6.979273682,-2.966029644,0.689266324,0.540103436
1.75935E+18,6.989331787,-3.187421322,0.22415401,-0.317775309
1.75935E+18,6.999389404,-3.264581203,-1.180667162,-1.195483923
1.75935E+18,7.009447754,-3.217952967,-3.045852423,-1.923247814
1.75935E+18,7.019505615,-2.403086901,-2.410515547,-3.739295721
1.75935E+18,7.029563721,-2.006298065,-0.006707171,-5.586555958
1.75935E+18,7.039621582,-2.562456131,3.909388304,-6.13350153
1.75935E+18,7.049679688,-3.256544828,7.904185295,-5.474716187
1.75935E+18,7.059737549,-3.034203291,6.445108414,-4.183772564
1.75935E+18,7.069795898,-2.084169149,2.445455074,-1.66014564
1.75935E+18,7.079852783,-1.231788635,-0.760400653,0.480393499
1.75935E+18,7.089910645,-0.616392612,-2.033163309,1.677331805
1.75935E+18,7.099968506,-0.323449969,-1.470758438,1.886432528
1.75935E+18,7.110026855,-0.214427873,-0.080475137,1.563006878
1.75935E+18,7.120084717,0.060653493,0.56741178,1.469853401
1.75935E+18,7.130142578,0.475395024,0.545300066,1.504376769
1.75935E+18,7.140200684,0.746420145,0.357538432,1.497168422
1.75935E+18,7.150258789,0.921359479,-0.023460319,1.44189322
1.75935E+18,7.16031665,1.04159534,-0.33340168,1.37821722
1.75935E+18,7.170374512,1.163194776,-0.447166324,1.265381813
1.75935E+18,7.180432617,1.248237729,-0.110718794,1.272903681
1.75935E+18,7.190490723,1.287986398,0.56501627,1.486237764
1.75935E+18,7.200547607,1.329269409,1.273666382,1.871540189
1.75935E+18,7.210605713,1.466507196,1.461934566,2.303222895
1.75935E+18,7.220663574,1.908512592,0.886104524,2.509512186
1.75935E+18,7.23072168,2.651418447,-0.831171513,1.95867157
1.75935E+18,7.240779541,3.395833015,-2.070120811,1.500005722
1.75935E+18,7.250837891,4.068087578,-2.211261749,1.827652335
1.75935E+18,7.260895508,4.60167408,-2.181941509,2.466772079
1.75935E+18,7.270953613,4.989628315,-2.027149439,3.353397846
1.75935E+18,7.281011719,5.347373962,-1.165428042,4.129480839
1.75935E+18,7.291069824,4.656895161,2.129739046,3.635952234
1.75935E+18,7.301127686,2.548063755,3.687304497,2.342518568
1.75935E+18,7.311185791,0.912302852,2.925005436,1.700307965
1.75935E+18,7.321242676,0.601152182,1.602690339,0.896027744
1.75935E+18,7.331300781,1.744862914,1.707859635,0.058430552
1.75935E+18,7.341358643,3.095714092,2.469368935,-0.714980185
1.75935E+18,7.351416992,3.108287573,2.94587779,-1.252726674
1.75935E+18,7.361474609,2.304029703,2.049890995,-1.357193708
1.75935E+18,7.371532715,1.695306301,-0.131033391,-0.814191461
1.75935E+18,7.38159082,1.255878091,-1.592412353,-0.152279556
1.75935E+18,7.391648926,0.664365232,-2.468102932,0.355384737
1.75935E+18,7.401706543,0.044662811,-3.075038433,0.602068543
1.75935E+18,7.411764648,-0.450987428,-3.133047581,0.577748001
1.75935E+18,7.421822754,-0.858285427,-2.916340351,0.461283207
1.75935E+18,7.431880859,-1.270026922,-2.693770647,0.356277943
1.75935E+18,7.441937744,-1.517575383,-2.704329014,0.308485657
1.75935E+18,7.451995605,-1.545395613,-2.610050678,0.22047165
1.75935E+18,7.462053711,-1.472889781,-2.582264662,0.176171571
1.75935E+18,7.472111572,-1.353633404,-2.252959013,0.217122197
1.75935E+18,7.482169678,-1.09539628,-1.506219149,0.255330563
1.75935E+18,7.492227539,-0.802962244,-0.475040287,0.226160169
1.75935E+18,7.502285645,-0.559149563,0.639938414,0.085054703
1.75935E+18,7.512343506,-0.374410629,1.318516612,-0.070246466
1.75935E+18,7.522401855,-0.058831625,1.696715117,-0.361261785
1.75935E+18,7.532459473,0.387094736,1.934877276,-0.783542454
1.75935E+18,7.542516602,0.744110346,2.06531477,-1.138994813
1.75935E+18,7.552574463,0.906311512,2.072352409,-1.392446756
1.75935E+18,7.562632813,0.907945395,1.796821475,-1.546576142
1.75935E+18,7.572690674,0.735268652,1.412489176,-1.564430594
1.75935E+18,7.582748535,0.47170496,1.174674273,-1.479840875
1.75935E+18,7.592806641,0.402041703,1.009797454,-1.378901958
1.75935E+18,7.602864746,0.818884194,0.478457123,-1.628616214
1.75935E+18,7.612922607,1.514108539,-0.967250228,-1.940244913
1.75935E+18,7.622980713,1.766161323,-0.27275005,-1.548492551
1.75935E+18,7.633038574,0.962006986,0.874919772,-1.497565746
1.75935E+18,7.643095703,-0.984738708,2.671500921,-1.415094614
1.75935E+18,7.653153564,-3.213288307,3.828626156,-1.150316238
1.75935E+18,7.663211914,-3.82672739,3.177071571,-1.016018629
1.75935E+18,7.673269775,-2.941824675,1.39761436,-0.903751671
1.75935E+18,7.683327637,-1.733908057,-0.434369564,-0.54213649
1.75935E+18,7.693385742,-1.541808128,-1.719998598,-0.195558578
1.75935E+18,7.703443604,-1.999738097,-2.664309263,0.297152579
1.75935E+18,7.713501465,-2.546905041,-3.444683075,0.842440963
1.75935E+18,7.723559326,-2.98409009,-3.671720028,1.259013653
1.75935E+18,7.733617432,-3.262511253,-2.609654903,1.108994842
1.75935E+18,7.743674316,-3.165387869,-1.861868382,0.615768135
1.75935E+18,7.753732422,-3.205945969,-1.709970951,-0.175483406
1.75935E+18,7.763790283,-3.351127386,-1.995495081,-1.495687485
1.75935E+18,7.773848389,-3.015517473,-3.301818371,-3.033354759
1.75935E+18,7.78390625,-2.497448683,-3.772239923,-4.014486313
1.75935E+18,7.793964355,-1.719016194,-0.414851516,-5.588428497
1.75935E+18,7.804022705,-1.561800957,4.760770798,-6.221721649
1.75935E+18,7.814080322,-2.001545668,10.18543816,-5.15826273
1.75935E+18,7.824138184,-2.230309486,9.175382614,-3.950128555
1.75935E+18,7.834195313,-1.593582273,3.404753447,-1.951348424
1.75935E+18,7.844253418,-0.803859174,-0.671261191,-0.195210233
1.75935E+18,7.854311523,-0.212157533,-2.26695776,0.905320585
1.75935E+18,7.864369141,0.063362464,-1.532755971,1.2699821
1.75935E+18,7.87442749,0.116726086,0.377908677,1.201793551
1.75935E+18,7.884485352,0.228673384,1.182435751,1.394559264
1.75935E+18,7.894543457,0.442301244,0.768861532,1.707494259
1.75935E+18,7.904601318,0.570648313,0.137082756,1.814094424
1.75935E+18,7.914659424,0.621327996,-0.332097262,1.807952404
1.75935E+18,7.924716309,0.629787505,-0.406791717,1.785889745
1.75935E+18,7.934774414,0.619715214,-0.16544196,1.685690999
1.75935E+18,7.94483252,0.655871868,0.181266993,1.565463305
1.75935E+18,7.954890625,0.714013457,0.497172505,1.506508112
1.75935E+18,7.964948242,0.785826385,0.994572937,1.566674232
1.75935E+18,7.975006592,0.912954271,1.398771048,1.80899775
1.75935E+18,7.985064453,1.205598354,1.31756568,2.171063185
1.75935E+18,7.995122559,1.866489172,0.676766753,2.191490412
1.75935E+18,8.00518042,2.711326361,-1.12207365,1.422439575
1.75935E+18,8.015237549,3.419543028,-1.922111154,1.22923255
1.75935E+18,8.02529541,4.147248268,-1.748167157,1.705374599
1.75935E+18,8.035353516,4.750671387,-1.513080001,2.329418182
1.75935E+18,8.045411621,5.181316376,-1.475312352,3.146074533
1.75935E+18,8.055469482,5.245646477,0.460159868,3.330804825
1.75935E+18,8.065527344,3.890538692,2.842525959,2.187908411
1.75935E+18,8.075585693,1.449804902,3.521166563,1.231452584
1.75935E+18,8.085643555,-0.151009217,3.350988388,0.031667914
1.75935E+18,8.095700439,0.800866842,2.701236486,-0.607161283
1.75935E+18,8.105758301,3.171382189,2.115876436,-1.069759369
1.75935E+18,8.115816406,4.226148605,2.006514311,-1.708532572
1.75935E+18,8.125874512,3.33912015,1.556653619,-1.930719018
1.75935E+18,8.135932373,2.215563774,-0.083433643,-1.446469069
1.75935E+18,8.145990234,1.464249611,-1.694303393,-0.625988007
1.75935E+18,8.15604834,1.028974652,-2.721758127,0.045840193
1.75935E+18,8.166106445,0.471733987,-3.003192663,0.454255104
1.75935E+18,8.17616333,-0.289156169,-2.718096972,0.608460665
1.75935E+18,8.18622168,-0.943969131,-2.530331135,0.642377615
1.75935E+18,8.196279297,-1.449037075,-2.652036667,0.711669087
1.75935E+18,8.206337402,-1.668850183,-2.952429295,0.752292156
1.75935E+18,8.216395264,-1.569522023,-3.090109825,0.752805054
1.75935E+18,8.226453613,-1.446646452,-2.940816641,0.759027243
1.75935E+18,8.23651123,-1.295680881,-2.806769609,0.916730106
1.75935E+18,8.246569336,-1.1442101,-2.072546244,0.91241765
1.75935E+18,8.256626465,-1.054775,-1.207459927,0.808832109
1.75935E+18,8.26668457,-0.944150805,-0.482313126,0.73886925
1.75935E+18,8.276742432,-0.734301388,0.284998983,0.592312038
1.75935E+18,8.286800537,-0.240315139,0.983718455,0.425382465
1.75935E+18,8.296858398,0.358211935,1.589005709,0.220527306
1.75935E+18,8.306916504,0.909432769,1.977444291,-0.047183756
1.75935E+18,8.316974365,1.186562896,1.948212028,-0.410020024
1.75935E+18,8.327032715,1.145924091,1.549665451,-0.902514935
1.75935E+18,8.3370896,0.853446424,1.067301989,-1.364646316
1.75935E+18,8.347147217,0.512151718,0.539049089,-1.549672961
1.75935E+18,8.357205322,0.362336099,0.263121098,-1.623327971
1.75935E+18,8.367263672,0.553262413,0.675421298,-1.807766199
1.75935E+18,8.377321533,1.092705965,-0.060315538,-2.429850101
1.75935E+18,8.38737915,1.922085404,-1.488315821,-2.834215641
1.75935E+18,8.3974375,2.159413815,-1.013058424,-2.630025864
1.75935E+18,8.407495605,1.471572518,1.44509542,-2.347042799
1.75935E+18,8.41755249,-0.974087119,5.134101868,-1.418995857
1.75935E+18,8.427610352,-3.493600845,5.968230724,-0.906223118
1.75935E+18,8.437668457,-3.486237049,3.754142284,-0.634839296
1.75935E+18,8.447726318,-1.873154283,0.445826471,-0.367886126
1.75935E+18,8.457784424,-1.239484191,-1.811732531,-0.238453045
1.75935E+18,8.467842529,-1.791870356,-3.121947765,-0.062886022
1.75935E+18,8.477900391,-2.668434381,-3.256152868,0.439158201
1.75935E+18,8.487957275,-3.394324303,-2.00917697,1.229456782
1.75935E+18,8.498015381,-3.607411146,-1.237029552,1.731917858
1.75935E+18,8.508073486,-3.301014185,-1.384112954,1.299240708
1.75935E+18,8.518131592,-3.23533082,-1.47345221,0.339598566
1.75935E+18,8.528189209,-3.3111763,-1.97800827,-0.905936301
1.75935E+18,8.538247559,-3.326089859,-3.438813686,-2.050436735
1.75935E+18,8.54830542,-3.200748444,-4.122113705,-3.168878794
1.75935E+18,8.558362549,-2.594695091,-3.197623253,-4.305645466
1.75935E+18,8.56842041,-1.880253792,0.52409786,-5.654840946
1.75935E+18,8.578478516,-1.886936188,5.624065876,-5.863894939
1.75935E+18,8.588536377,-2.434967041,10.89748287,-4.676585197
1.75935E+18,8.598594482,-2.470457315,9.396326065,-3.821524858
1.75935E+18,8.608652588,-1.696959257,3.958800554,-1.825232863
1.75935E+18,8.618710693,-0.878675401,-0.156248197,0.067040816
1.75935E+18,8.628767578,-0.240275711,-2.162959337,1.311136484
1.75935E+18,8.638825195,0.088402569,-2.158441782,1.901597619
1.75935E+18,8.648883545,0.149029702,-0.778133869,1.835475922
1.75935E+18,8.658941406,0.122654811,0.429081857,1.611305952
1.75935E+18,8.668999512,0.227350339,0.590683281,1.537483096
1.75935E+18,8.679057373,0.351614237,0.180990025,1.506014347
1.75935E+18,8.689115479,0.407838881,-0.146276787,1.476834416
1.75935E+18,8.69917334,0.42691803,-0.287607819,1.483932495
1.75935E+18,8.709230957,0.439329177,-0.310934693,1.505136609
1.75935E+18,8.719288818,0.500694275,-0.239421904,1.492629886
1.75935E+18,8.729346924,0.605643332,0.135023862,1.471587181
1.75935E+18,8.739404785,0.732958138,0.671795189,1.566428185
1.75935E+18,8.749462891,0.927539051,1.086425424,1.830525637
1.75935E+18,8.759520752,1.370292187,0.873998582,2.133087635
1.75935E+18,8.769578125,2.088588238,-0.043479033,1.931509972
1.75935E+18,8.779635742,2.925810814,-1.859437943,1.171045423
1.75935E+18,8.789693848,3.486961842,-2.277822733,0.953162134
1.75935E+18,8.799751953,3.987254143,-2.335074902,1.451534867
1.75935E+18,8.809810059,4.490252972,-2.342561245,2.239634037
1.75935E+18,8.819867676,5.036175728,-2.249140978,3.320245743
1.75935E+18,8.829926025,5.340788364,-0.975941479,4.245090961
1.75935E+18,8.83998291,4.551395416,1.67061317,3.73942256
1.75935E+18,8.850041016,2.449411154,2.564093351,2.690855742
1.75935E+18,8.860098877,0.741502583,2.371225119,1.435936809
1.75935E+18,8.870156982,0.625996768,1.389588475,0.229169533
1.75935E+18,8.880214844,2.287363529,0.544219613,-0.70422262
1.75935E+18,8.890272949,3.746790171,1.015102744,-1.487820983
1.75935E+18,8.900331055,3.595054388,2.236970663,-2.124894619
1.75935E+18,8.910387939,2.691603661,1.377511859,-1.983672857
1.75935E+18,8.920445801,1.821069002,-0.33677721,-1.043416619
1.75935E+18,8.930503662,1.233376145,-1.329300046,-0.304381996
1.75935E+18,8.940562012,0.909561396,-2.33888793,0.374969602
1.75935E+18,8.950619873,0.539067984,-2.625959873,0.807155669
1.75935E+18,8.960677734,0.133533552,-2.355058432,0.955106258
1.75935E+18,8.970734619,-0.352285624,-2.312623501,0.820911407
1.75935E+18,8.980792969,-0.778149843,-2.693603992,0.659018636
1.75935E+18,8.99085083,-1.14699924,-2.893650532,0.506606221
1.75935E+18,9.000908936,-1.480536938,-2.833621502,0.429401428
1.75935E+18,9.010966797,-1.690759778,-2.801269054,0.449551433
1.75935E+18,9.021024902,-1.768611908,-2.343651533,0.395008832
1.75935E+18,9.031081787,-1.716448069,-1.534898758,0.315260202
1.75935E+18,9.041139893,-1.457128286,-0.584964156,0.265012741
1.75935E+18,9.051197998,-1.05062747,0.151416153,0.198921353
1.75935E+18,9.061256104,-0.520304203,0.672154427,0.159099638
1.75935E+18,9.071313721,-0.008598815,1.258773685,0.080174461
1.75935E+18,9.08137207,0.41001761,1.872417688,-0.034664769
1.75935E+18,9.091429932,0.733238816,2.412849665,-0.261157036
1.75935E+18,9.101486816,1.054454088,2.704822063,-0.572318614
1.75935E+18,9.111544922,1.230900764,2.506568432,-0.963790536
1.75935E+18,9.121602783,1.155331731,1.930932641,-1.244098663
1.75935E+18,9.131660889,0.777698398,1.025242209,-1.226249337
1.75935E+18,9.14171875,0.405583709,0.485677212,-1.158469796
1.75935E+18,9.151776855,0.207666904,0.313060701,-1.317154408
1.75935E+18,9.161833984,0.294720322,-0.189854354,-1.843596697
1.75935E+18,9.171891846,0.672521114,-1.698687434,-2.158912897
1.75935E+18,9.181949707,1.091151714,-2.446082115,-1.837582231
1.75935E+18,9.192008057,0.454620779,-0.60913527,-1.956705928
1.75935E+18,9.202065918,-2.114450455,3.700039625,-1.24912858
1.75935E+18,9.212123779,-3.478148699,5.158915997,-0.908743501
1.75935E+18,9.222180664,-1.862512827,3.657490015,-0.788273036
1.75935E+18,9.232239014,-0.476444572,1.956330419,-0.62357676
1.75935E+18,9.242296875,-0.586437643,-0.337003857,-0.340349317
1.75935E+18,9.25235498,-1.48914063,-2.604064703,0.059710201
1.75935E+18,9.262412598,-2.202908754,-3.700819731,0.547056675
1.75935E+18,9.272470947,-2.610502005,-4.059531212,0.947651505
1.75935E+18,9.282527832,-2.657791853,-3.871814251,1.274877548
1.75935E+18,9.292585693,-2.605235338,-2.944927692,1.052381158
1.75935E+18,9.302644043,-2.720127106,-1.284891844,0.18760559
1.75935E+18,9.312701904,-2.976536036,-0.787999272,-0.756469548
1.75935E+18,9.322759766,-2.976813078,-1.287933707,-1.911303282
1.75935E+18,9.332817627,-2.473663568,-2.425939798,-3.160695791
1.75935E+18,9.342875,-1.726760387,-2.06644249,-4.703271389
1.75935E+18,9.352932861,-1.198879957,-0.101912253,-6.121517658
1.75935E+18,9.362990967,-1.63933146,4.387319565,-6.723935127
1.75935E+18,9.373048828,-2.352472067,10.33593464,-5.5446105
1.75935E+18,9.383106934,-2.413192511,10.68524361,-4.0115695
1.75935E+18,9.393163818,-1.592879772,4.495304585,-1.646062255
1.75935E+18,9.403221924,-0.662600338,-0.350914359,0.47023195
1.75935E+18,9.413280029,-0.297346741,-2.308324575,1.526171565
1.75935E+18,9.423337891,-0.345583498,-2.142885685,1.881500363
1.75935E+18,9.433395752,-0.529363453,-0.875107825,1.803165674
1.75935E+18,9.443453857,-0.469350994,0.106528044,1.78677094
1.75935E+18,9.453510986,-0.183387935,0.216201544,1.820358992
1.75935E+18,9.463568848,0.117515445,-0.08165092,1.847006559
1.75935E+18,9.473626709,0.357998371,-0.47764194,1.716952443
1.75935E+18,9.483684814,0.518928409,-0.526165247,1.50081718
1.75935E+18,9.49374292,0.620595872,-0.307576209,1.326106906
1.75935E+18,9.503800781,0.694653094,-0.1114951,1.1911515
1.75935E+18,9.51385791,0.746451795,0.147646442,1.119339108
1.75935E+18,9.523915771,0.836745501,0.550098836,1.174364805
1.75935E+18,9.533973877,0.962124705,1.031354904,1.425192237
1.75935E+18,9.544031738,1.126112342,1.324093103,1.846355438
1.75935E+18,9.554090088,1.430161953,1.136065841,2.235309124
1.75935E+18,9.564146973,1.931007743,0.152636141,2.038617373
1.75935E+18,9.574205078,2.491695881,-1.653226495,1.417941213
1.75935E+18,9.584262695,2.987467766,-1.923943162,1.374389529
1.75935E+18,9.594321045,3.500833511,-1.407697916,1.62305522
1.75935E+18,9.604378906,4.151295662,-1.230170846,1.844281912
1.75935E+18,9.614437012,4.484163284,-1.465933323,2.445931911
1.75935E+18,9.624493896,4.570365906,-0.904012144,3.24224925
1.75935E+18,9.634551758,3.385963202,1.182849407,2.616684914
1.75935E+18,9.644609863,0.899598241,2.577401876,1.787654281
1.75935E+18,9.654667725,-0.768622398,2.298834562,0.770338535
1.75935E+18,9.664726074,-0.119746909,1.298166394,0.191576883
1.75935E+18,9.674782959,2.343982458,0.85212791,-0.446125299
1.75935E+18,9.68484082,3.668362141,1.933112502,-1.35008812
1.75935E+18,9.694898682,3.188584805,2.146514654,-1.929051399
1.75935E+18,9.704956787,2.22898078,0.942692697,-1.749284267
1.75935E+18,9.715014648,1.482809782,-0.467134416,-0.940370142
1.75935E+18,9.725072754,1.055828333,-0.860136032,-0.490787566
1.75935E+18,9.735129639,0.848023713,-1.511295915,-0.190949976
1.75935E+18,9.745187744,0.28193742,-2.35206151,0.209088236
1.75935E+18,9.755245605,-0.479743958,-2.535999775,0.530823648
1.75935E+18,9.765303955,-1.018878579,-2.143195868,0.513035059
1.75935E+18,9.775361572,-1.321955919,-2.161878109,0.489436001
1.75935E+18,9.785418701,-1.406269908,-2.352933645,0.517733932
1.75935E+18,9.795476563,-1.416446209,-2.336627722,0.523837924
1.75935E+18,9.805534668,-1.3569839,-2.238680601,0.571144998
1.75935E+18,9.815592773,-1.257716417,-1.900902867,0.588671803
1.75935E+18,9.825650635,-1.175840974,-1.338066101,0.528896332
1.75935E+18,9.835707764,-1.02589488,-0.728708506,0.443293542
1.75935E+18,9.845765625,-0.785389662,-0.02953925,0.278339207
1.75935E+18,9.85582373,-0.426358491,0.47266075,0.133102924
1.75935E+18,9.865881592,0.08236891,0.879825354,0.026019616
1.75935E+18,9.875939941,0.59300369,1.312220097,-0.131418481
1.75935E+18,9.885996826,0.936761558,1.447378516,-0.268102288
1.75935E+18,9.896054688,1.224667192,1.450765491,-0.50384742
1.75935E+18,9.906112549,1.46495533,1.420185447,-0.838707209
1.75935E+18,9.916170898,1.652511716,1.30760777,-1.144538999
1.75935E+18,9.92622876,1.635915637,1.039934278,-1.237026811
1.75935E+18,9.936286621,1.470086217,0.886152208,-1.155738711
1.75935E+18,9.946343506,1.147432804,0.778931975,-0.98451072
1.75935E+18,9.956401611,0.797553062,0.567706287,-0.883100986
1.75935E+18,9.966459717,0.623663604,0.320037931,-1.002124906
1.75935E+18,9.976517578,0.691573143,-0.147416621,-1.38328898
1.75935E+18,9.986575684,1.144713998,-1.902465582,-1.737870216
1.75935E+18,9.996632568,1.553960085,-1.517206907,-1.534839153
1.75935E+18,10.00669067,0.651192963,1.530520558,-0.822179615
1.75935E+18,10.01674854,-2.339786053,4.549655914,-0.04277809
1.75935E+18,10.02680688,-3.391123533,4.031522751,0.093854323
1.75935E+18,10.03686475,-1.981605172,1.8463943,0.128885284
1.75935E+18,10.04692188,-0.603249133,-0.088426799,0.040382843
1.75935E+18,10.05697974,-0.656334162,-1.790289283,0.061773352
1.75935E+18,10.06703784,-1.352846384,-3.04179287,0.389953613
1.75935E+18,10.0770957,-2.024659157,-3.544414043,0.713078678
1.75935E+18,10.08715381,-2.547856092,-3.699048758,0.964039028
1.75935E+18,10.09721094,-2.849856853,-3.397590637,1.037576318
1.75935E+18,10.10726855,-3.04210043,-2.120042324,0.639651358
1.75935E+18,10.11732666,-3.199673176,-1.134625077,0.014684138
1.75935E+18,10.12738452,-3.18870163,-1.336484432,-0.859706461
1.75935E+18,10.13744287,-2.95467639,-2.193153858,-1.920900226
1.75935E+18,10.14749976,-2.6328125,-2.829463005,-3.004862309
1.75935E+18,10.15755762,-2.488934517,-2.258267164,-3.771553993
1.75935E+18,10.16761572,-1.844563127,0.215576768,-4.902522087
1.75935E+18,10.17767383,-1.766305685,3.975666523,-5.320155144
1.75935E+18,10.18773169,-2.060278893,8.304087639,-4.800630093
1.75935E+18,10.19778882,-2.073034763,9.119848251,-3.958019257
1.75935E+18,10.20784668,-1.323763132,4.630198479,-2.142610312
1.75935E+18,10.21790479,-0.486887902,0.715490699,-0.142748892
1.75935E+18,10.22796265,-0.1287705,-1.625590563,1.018376827
1.75935E+18,10.238021,-0.072339177,-2.610270262,1.534332633
1.75935E+18,10.24807788,-0.266240478,-2.043379307,1.429507375
1.75935E+18,10.25813599,-0.434941083,-0.364577442,0.979213417
1.75935E+18,10.2681936,-0.46465528,0.995508492,0.682740748
1.75935E+18,10.27825195,-0.393633038,1.304040551,0.723333478
1.75935E+18,10.28830884,-0.25562191,1.046427608,0.855482459
1.75935E+18,10.2983667,-0.135416418,0.442575037,0.869958341
1.75935E+18,10.3084248,0.010045177,-0.367317021,0.732715786
1.75935E+18,10.31848267,0.170726731,-1.0930233,0.43179214
1.75935E+18,10.32854077,0.334384918,-1.338760734,0.106944822
1.75935E+18,10.33859766,0.517577112,-0.881074369,0.032208003
1.75935E+18,10.34865576,0.744140446,0.12513715,0.405219674
1.75935E+18,10.35871387,1.135209918,1.033637285,1.055815578
1.75935E+18,10.36877173,1.73401165,1.378498793,1.82591486
1.75935E+18,10.37882959,2.299668789,0.991329491,2.556566238
1.75935E+18,10.38888647,2.77148962,-0.020135628,2.881618738
1.75935E+18,10.39894482,3.186156273,-1.575806737,2.373728037
1.75935E+18,10.40900293,3.585554123,-3.60794735,0.905905426
1.75935E+18,10.41906055,3.515258551,-3.566214561,0.549430907
1.75935E+18,10.4291189,3.695945263,-2.256824732,1.157992721
1.75935E+18,10.43917578,3.970141411,-1.83376646,1.745400906
1.75935E+18,10.44923364,4.013820171,-2.167062521,3.00817728
1.75935E+18,10.45929175,4.272992611,-2.357910633,4.331483841
1.75935E+18,10.46934961,2.852243423,-0.188852742,3.851596355
1.75935E+18,10.47940674,0.794882476,1.574709535,2.878271341
1.75935E+18,10.4894646,0.417218,2.239396334,2.196029663
1.75935E+18,10.49952271,1.719118714,1.697490335,1.689651608
1.75935E+18,10.50958081,3.211749077,0.95265317,1.442568779
1.75935E+18,10.51963892,3.890938997,0.926570714,1.134491444
1.75935E+18,10.5296958,3.563595533,1.804314256,0.289688021
1.75935E+18,10.53975342,3.19518137,3.049088001,-1.368375778
1.75935E+18,10.54981177,3.52529335,2.411704779,-2.235890388
1.75935E+18,10.55986987,3.165064096,1.280860424,-1.576715708
1.75935E+18,10.56992676,1.999641895,0.094960071,-0.443548679
1.75935E+18,10.57998462,0.941685259,-0.462720245,0.248846307
1.75935E+18,10.59004272,0.322772473,-0.507596076,0.390534729
1.75935E+18,10.60010059,0.189747304,-0.943506539,0.360656202
1.75935E+18,10.61015869,0.193505019,-1.512552142,0.263730168
1.75935E+18,10.62021582,0.051634699,-2.002562046,0.1420919
1.75935E+18,10.63027393,-0.12481384,-2.673273087,0.100700781
1.75935E+18,10.64033154,-0.301816314,-3.170243263,0.158789918
1.75935E+18,10.65038965,-0.540474713,-3.388947248,0.25984621
1.75935E+18,10.66044678,-0.813655913,-3.337236404,0.31075415
1.75935E+18,10.67050488,-1.036825895,-3.132609844,0.33314839
1.75935E+18,10.68056274,-1.251138687,-2.712705374,0.27706489
1.75935E+18,10.69062085,-1.445876479,-2.303175449,0.343876958
1.75935E+18,10.70067871,-1.564244628,-1.780562282,0.595485747
1.75935E+18,10.71073535,-1.479556441,-1.041401744,0.749600232
1.75935E+18,10.7207937,-1.14124763,-0.369776994,0.715374053
1.75935E+18,10.73085156,-0.72182107,-0.012847089,0.543126643
1.75935E+18,10.74090967,-0.270171046,0.111307085,0.287049621
1.75935E+18,10.75096655,0.213409752,0.044773597,0.050702326
1.75935E+18,10.76102466,0.522665083,-0.21554561,-0.163968697
1.75935E+18,10.77108252,0.508985758,-0.437675327,-0.29949376
1.75935E+18,10.78114063,0.383450449,-0.535728931,-0.282439411
1.75935E+18,10.79119873,0.312630087,-0.427399546,-0.20623599
1.75935E+18,10.80125586,0.261999667,-0.024855282,-0.213629454
1.75935E+18,10.81131348,0.170206353,0.321389198,-0.295619667
1.75935E+18,10.82137134,0.104002833,0.406249255,-0.49520123
1.75935E+18,10.83142969,-0.060958158,0.070179887,-0.75943315
1.75935E+18,10.84148657,-0.084238984,-0.638868928,-0.867809415
1.75935E+18,10.85154468,0.118840635,-0.700917363,-0.533986449
1.75935E+18,10.86160229,0.683102429,0.98255676,0.424873263
1.75935E+18,10.87166064,3.175211906,1.527430177,0.741548657
1.75935E+18,10.88171753,4.072786331,0.007968444,-0.455293208
1.75935E+18,10.89177563,2.18503499,1.321924925,-1.619742513
1.75935E+18,10.90183374,0.296484917,3.805221319,-1.323914647
1.75935E+18,10.9118916,-0.015730759,4.162285328,-0.428622723
1.75935E+18,10.92194873,0.414008349,3.286397457,0.248677194
1.75935E+18,10.93200635,0.897532403,1.627566338,0.435738146
1.75935E+18,10.9420647,0.734649241,-0.309217513,0.460242957
1.75935E+18,10.9521228,0.140090525,-1.817828774,0.388374358
1.75935E+18,10.96218066,-0.251083106,-2.554846764,0.195445135
1.75935E+18,10.97223755,-0.421858549,-3.049977303,0.09691909
1.75935E+18,10.98229565,-0.619107187,-3.279876471,0.113508455
1.75935E+18,10.99235352,-0.813534975,-2.890354633,0.181485102
1.75935E+18,11.00241162,-1.015279293,-2.241843224,0.307225466
1.75935E+18,11.01246851,-1.28989625,-1.414299607,0.285000592
1.75935E+18,11.02252686,-1.616354704,-0.49313435,0.060326457
1.75935E+18,11.03258447,-1.871326804,0.38272047,-0.272641391
1.75935E+18,11.04264258,-1.875598073,0.845741928,-0.70515579
1.75935E+18,11.05269946,-1.689377308,0.699201763,-1.204497695
1.75935E+18,11.06275781,-1.544078112,0.335808367,-1.596725941
1.75935E+18,11.07281567,-1.494980693,-0.047434893,-1.720621705
1.75935E+18,11.08287329,-1.519848466,-0.334424853,-1.572285056
1.75935E+18,11.09293066,-1.482397795,-0.441939592,-1.258355379
1.75935E+18,11.10298853,-1.372772932,-0.522890925,-0.922931492
1.75935E+18,11.11304663,-1.216809511,-0.639986098,-0.659343004
1.75935E+18,11.12310449,-1.020001292,-0.848425567,-0.470756054
1.75935E+18,11.13316162,-0.826706707,-1.128206611,-0.324092597
1.75935E+18,11.14321973,-0.66722703,-1.397825599,-0.208287165
1.75935E+18,11.15327759,-0.56385833,-1.583165407,-0.174087912
1.75935E+18,11.16333545,-0.498581558,-1.65273273,-0.184975713
1.75935E+18,11.1733938,-0.4213278,-1.435703516,-0.192006454
1.75935E+18,11.18345068,-0.325391144,-1.070039749,-0.197992712
1.75935E+18,11.19350879,-0.216791704,-0.631509006,-0.225503698
1.75935E+18,11.20356641,-0.119897373,-0.156312644,-0.281972826
1.75935E+18,11.21362476,-0.119066738,0.13519004,-0.380566239
1.75935E+18,11.22368164,-0.195903987,0.360645801,-0.432455271
1.75935E+18,11.2337395,-0.224029377,0.485869765,-0.40884316
1.75935E+18,11.24379761,-0.20763202,0.457808852,-0.366181463
1.75935E+18,11.25385547,-0.288669348,0.364297003,-0.391515851
1.75935E+18,11.2639126,-0.466994077,0.367602766,-0.490396082
1.75935E+18,11.27397046,-0.617105842,0.336411566,-0.677313745
1.75935E+18,11.28402881,-0.611357927,0.302313,-0.898318827
1.75935E+18,11.29408667,-0.577755511,0.326741099,-1.09210062
1.75935E+18,11.3041438,-0.501775503,0.549715877,-1.179421306
1.75935E+18,11.31420166,-0.462103993,0.909070849,-1.171047807
1.75935E+18,11.32425977,-0.418126941,1.252385616,-1.093053699
1.75935E+18,11.33431763,-0.331505239,1.473420978,-0.920535743
1.75935E+18,11.34437451,-0.211913586,1.514420867,-0.624586642
1.75935E+18,11.35443262,-0.117642477,1.404315233,-0.262300313
1.75935E+18,11.36449072,-0.092068143,1.173307776,0.075036958
1.75935E+18,11.37454858,-0.141169369,0.696910918,0.287717789
1.75935E+18,11.38460547,-0.280227929,-0.381646156,0.157092407
1.75935E+18,11.39466357,-0.339259565,-1.532405257,-0.064198159
1.75935E+18,11.40472168,-0.267625302,-2.175013065,-0.10674908
1.75935E+18,11.41477979,-0.14954555,-2.413763046,-0.014191186
1.75935E+18,11.42483667,-0.026015354,-2.222042561,0.227865919
1.75935E+18,11.43489429,0.11121121,-1.717665911,0.553630948
1.75935E+18,11.44495264,0.254744411,-1.117209911,0.830015421
1.75935E+18,11.45501074,0.341115236,-0.61637795,0.93603158
1.75935E+18,11.46506763,0.275727451,-0.172835425,0.893323004
1.75935E+18,11.47512549,0.12398506,0.161566794,0.759856284
1.75935E+18,11.48518359,-0.013855095,0.394288182,0.587897599
1.75935E+18,11.49524146,-0.057497382,0.612966716,0.404024452
1.75935E+18,11.50529858,-0.035050929,0.88751173,0.197632119
1.75935E+18,11.51535645,-0.014776816,1.045429945,-0.101384148
1.75935E+18,11.52541479,0.027570641,1.035024285,-0.506933272
1.75935E+18,11.53547168,0.158850104,0.819380641,-0.925427973
1.75935E+18,11.54552979,0.295040429,0.538185418,-1.259352684
1.75935E+18,11.55558765,0.355080336,0.290825456,-1.454696059
1.75935E+18,11.56564575,0.345308661,0.158614412,-1.497439265
1.75935E+18,11.57570264,0.279765606,0.160184339,-1.421366572
1.75935E+18,11.5857605,0.167246252,0.297148585,-1.27403605
1.75935E+18,11.59581885,0.042089131,0.400524765,-1.132608056
1.75935E+18,11.60587646,-0.025494708,0.437980801,-0.95360285
1.75935E+18,11.61593359,-0.024288028,0.43296048,-0.690105438
1.75935E+18,11.62599146,-0.001841043,0.434187144,-0.358171195
1.75935E+18,11.6360498,-0.005975068,0.439768046,0.010162356
1.75935E+18,11.64610767,-0.075136565,0.425471395,0.349374235
1.75935E+18,11.65616455,-0.192749217,0.359440446,0.616162777
1.75935E+18,11.66622241,-0.325164229,0.241984129,0.78979665
1.75935E+18,11.67628076,-0.454266578,0.035797413,0.851637602
1.75935E+18,11.68633862,-0.550100982,-0.242017686,0.801227212
1.75935E+18,11.69639551,-0.534639955,-0.593955755,0.665219545
1.75935E+18,11.70645361,-0.460509807,-0.895588338,0.468586653
1.75935E+18,11.71651123,-0.415833145,-1.107916832,0.272766292
1.75935E+18,11.72656909,-0.438370168,-1.156780005,0.108555771
1.75935E+18,11.73662622,-0.500987232,-1.063280582,-0.019887954
1.75935E+18,11.74668433,-0.565577924,-0.871988714,-0.113454126
1.75935E+18,11.75674219,-0.573223293,-0.626289487,-0.188973919
1.75935E+18,11.76679907,-0.488284737,-0.364387006,-0.286669582
1.75935E+18,11.77685742,-0.357413262,-0.105738677,-0.427690357
1.75935E+18,11.78691504,-0.233581334,0.184175968,-0.561876893
1.75935E+18,11.79697314,-0.184715256,0.461388916,-0.626883626
1.75935E+18,11.80703003,-0.211359918,0.497898459,-0.647801399
1.75935E+18,11.81708838,-0.116834208,0.411386758,-0.542188406
1.75935E+18,11.82714624,0.066329487,0.198407903,-0.370537043
1.75935E+18,11.83720435,0.230606049,-0.049798716,-0.19752346
1.75935E+18,11.84726123,0.255639493,-0.179711699,-0.034436002
1.75935E+18,11.85731934,0.141037285,-0.096053295,0.153845221
1.75935E+18,11.8673772,0.078965656,0.259799093,0.403390884
1.75935E+18,11.87743408,0.1334012,0.679798245,0.585432053
1.75935E+18,11.88749219,0.104205228,0.998655558,0.603651822
1.75935E+18,11.89755029,0.040606014,1.273889542,0.514031649
1.75935E+18,11.90760815,-0.017270334,1.396196246,0.327279329
1.75935E+18,11.91766504,0.006106894,1.317859411,0.10283637
1.75935E+18,11.92772314,0.033384055,1.115620852,-0.122485965
1.75935E+18,11.93778125,-0.010368219,0.874802053,-0.339149296
1.75935E+18,11.94783936,-0.041139979,0.581450641,-0.477989733
1.75935E+18,11.95789624,0.051745221,0.277585,-0.510589778
1.75935E+18,11.96795435,0.142321199,0.056119729,-0.47357741
1.75935E+18,11.97801221,0.11367543,-0.031855401,-0.402843595
1.75935E+18,11.98807031,-0.013582122,0.017328124,-0.312744588
1.75935E+18,11.9981272,-0.141701207,0.135573536,-0.219942749
1.75935E+18,12.0081853,-0.209485576,0.202905446,-0.140895605
1.75935E+18,12.01824316,-0.191786483,0.204986975,-0.083371855
1.75935E+18,12.02830029,-0.153062522,0.195692003,-0.044445228
1.75935E+18,12.03835815,-0.123580791,0.193163335,-0.019377958
1.75935E+18,12.04841626,-0.095827192,0.203247398,0.035927907
1.75935E+18,12.05847437,-0.088680334,0.232716873,0.125900671
1.75935E+18,12.06853125,-0.092078529,0.243872583,0.233319804
1.75935E+18,12.07858936,-0.081282072,0.229173005,0.319150835
1.75935E+18,12.08864722,-0.070912257,0.190275401,0.356362909
1.75935E+18,12.0987041,-0.113770775,0.142810151,0.332597136
1.75935E+18,12.10876221,-0.168460116,0.016660202,0.312052697
1.75935E+18,12.11882007,-0.178894654,-0.191168353,0.296527267
1.75935E+18,12.12887842,-0.213734657,-0.35271439,0.275123447
1.75935E+18,12.1389353,-0.248402089,-0.451975465,0.232991174
1.75935E+18,12.14899316,-0.236466333,-0.488758236,0.188303068
1.75935E+18,12.15905103,-0.170065209,-0.475934595,0.154831663
1.75935E+18,12.1691084,-0.084023267,-0.418692321,0.122719526
1.75935E+18,12.17916626,-0.016547818,-0.309980512,0.093674563
1.75935E+18,12.18922437,0.01462608,-0.161601946,0.060821541
1.75935E+18,12.19928223,0.024366593,0.002223739,0.010303237
1.75935E+18,12.20933936,0.028715001,0.1469495,-0.039943688
1.75935E+18,12.21939722,0.052996904,0.248663604,-0.076282784
1.75935E+18,12.22945508,0.064008541,0.31111446,-0.102743424
1.75935E+18,12.23951221,0.080172069,0.313352853,-0.099607281
1.75935E+18,12.24957031,0.09282741,0.27187413,-0.053382799
1.75935E+18,12.25962842,0.06534332,0.194834992,0.028362665
1.75935E+18,12.26968604,-0.049474876,0.104597516,0.076787725
1.75935E+18,12.27974292,-0.146801963,-0.055720519,0.126596287
1.75935E+18,12.28980127,-0.183784485,-0.251830101,0.175715372
1.75935E+18,12.29985938,-0.187053517,-0.415068835,0.215273157
1.75935E+18,12.30991626,-0.205070853,-0.503819466,0.241351098
1.75935E+18,12.31997412,-0.224903956,-0.513812482,0.247088611
1.75935E+18,12.33003223,-0.224662676,-0.462294936,0.232515261
1.75935E+18,12.34009009,-0.192290083,-0.35670805,0.198816419
1.75935E+18,12.35014722,-0.164195597,-0.245706439,0.161322579
1.75935E+18,12.36020508,-0.173274577,-0.114663996,0.133778572
1.75935E+18,12.37026343,-0.253601909,0.100742057,0.053875215
1.75935E+18,12.38032031,-0.360674828,0.314444751,-0.051302601
1.75935E+18,12.39037842,-0.401710421,0.455923319,-0.127769411
1.75935E+18,12.40043604,-0.442894608,0.501938462,-0.176095128
1.75935E+18,12.41049438,-0.585555613,0.493537009,-0.230926961
1.75935E+18,12.42055127,-0.815711319,0.428576916,-0.25604564
1.75935E+18,12.43060913,-1.117363095,0.285968632,-0.253276199
1.75935E+18,12.44066748,-1.4166435,0.035147067,-0.21281001
1.75935E+18,12.45072437,-1.671719193,-0.314657271,-0.105094194
1.75935E+18,12.46078223,-1.882151484,-0.682080269,0.038354315
1.75935E+18,12.47084009,-1.968659759,-1.031647086,0.203004777
1.75935E+18,12.48089844,-1.715351343,-1.339691401,0.363331854
1.75935E+18,12.49095532,-1.148762226,-1.636510611,0.515217543
1.75935E+18,12.50101343,-0.479019582,-1.659802079,0.580989599
1.75935E+18,12.51107104,-0.015089471,-1.322615504,0.568139076
1.75935E+18,12.52112793,0.109152317,-0.726506889,0.505403817
1.75935E+18,12.53118628,0.050471429,-0.126845568,0.416747689
1.75935E+18,12.54124414,-0.007735151,0.304949522,0.329190671
1.75935E+18,12.55130127,-0.029923543,0.520560086,0.255695701
1.75935E+18,12.56135913,-0.012244948,0.524537563,0.205233574
1.75935E+18,12.57141748,0.000855141,0.389866531,0.157630101
1.75935E+18,12.5814751,-0.005652027,0.179912776,0.107941382
1.75935E+18,12.59153198,-0.049967825,-0.012886237,0.051958006
1.75935E+18,12.60159033,-0.108187459,-0.136243328,-0.016124908
1.75935E+18,12.61164844,-0.147588924,-0.200183958,-0.090007119
1.75935E+18,12.62170532,-0.167542651,-0.224739641,-0.169973329
1.75935E+18,12.63176318,-0.139373332,-0.217549369,-0.228764743
1.75935E+18,12.64182129,-0.109682292,-0.182614014,-0.250497192
1.75935E+18,12.65187817,-0.094321445,-0.112151571,-0.231272638
1.75935E+18,12.66193628,-0.08199127,-0.007038735,-0.176163837
1.75935E+18,12.67199414,-0.027618578,0.089757316,-0.114645086
1.75935E+18,12.68205249,0.005340437,0.204531297,-0.040259272
1.75935E+18,12.69210938,0.04631903,0.362159014,0.029056951
1.75935E+18,12.70216699,0.063783504,0.577803433,0.121739753
1.75935E+18,12.71222559,0.054292265,0.770298541,0.216856152
1.75935E+18,12.72228247,0.053453106,0.901913822,0.30120939
1.75935E+18,12.73234082,0.021189973,1.049582958,0.409753948
1.75935E+18,12.74239868,-0.03640328,1.077492356,0.497425765
1.75935E+18,12.75245581,-0.130776927,0.940282524,0.519487679
1.75935E+18,12.76251343,-0.166895241,0.652681112,0.48233363
1.75935E+18,12.77257178,-0.151406303,0.306549817,0.402813762
1.75935E+18,12.78262964,-0.109288409,0.008724782,0.316570491
1.75935E+18,12.79268677,-0.058533084,-0.193687171,0.221517473
1.75935E+18,12.80274463,-0.021847775,-0.204205066,0.126360342
1.75935E+18,12.81280273,0.00017497,-0.049374741,0.045411158
1.75935E+18,12.82285986,0.032028772,0.129018962,-0.021285847
1.75935E+18,12.83291748,0.046218093,0.22688508,-0.067105003
1.75935E+18,12.84297583,0.055196676,0.234479621,-0.077231936
1.75935E+18,12.85303271,0.031861261,0.142246619,-0.061270814
1.75935E+18,12.86309082,0.011955729,0.024220385,-0.034319624
1.75935E+18,12.87314868,0.000856206,-0.090638027,-0.010942662
1.75935E+18,12.88320581,-0.006251771,-0.176234156,-0.004334028
1.75935E+18,12.89326367,-0.019303124,-0.178485319,-0.016563797
1.75935E+18,12.90332178,-0.068822742,-0.126269251,-0.042323221
1.75935E+18,12.91337964,-0.105931491,-0.01656859,-0.065176338
1.75935E+18,12.92343652,-0.092528865,0.104267813,-0.079575785
1.75935E+18,12.93349487,-0.053897854,0.198441193,-0.079674326
1.75935E+18,12.94355249,-0.011431885,0.210727677,-0.068677068
1.75935E+18,12.95360962,0.01713318,0.151502177,-0.059232961
1.75935E+18,12.96366748,0.047229029,0.091097683,-0.068971612
1.75935E+18,12.97372583,0.052267198,0.077007435,-0.084949248
1.75935E+18,12.98378271,0.049981941,0.080985665,-0.085689336
1.75935E+18,12.99384082,0.028144287,0.070277356,-0.062472165
1.75935E+18,13.00389868,0.005498362,0.043358926,-0.022577215
1.75935E+18,13.01395581,-0.002802444,-0.002812032,0.013679859
1.75935E+18,13.02401367,0.002227468,-0.026742931,0.030712105
1.75935E+18,13.03407153,-0.002889796,-0.024163393,0.019263176
1.75935E+18,13.04412988,-0.044010334,-0.014354705,0.003234409
1.75935E+18,13.05418677,-0.084259488,0.014536599,0.01028646
1.75935E+18,13.06424487,-0.076872148,0.1179277,0.06665466
1.75935E+18,13.07430249,-0.019151857,0.162078917,0.095570728
1.75935E+18,13.08435938,0.010833473,0.120365828,0.067995831
1.75935E+18,13.09441772,-0.003664243,0.028461736,-0.001166465
1.75935E+18,13.10447583,-0.009172992,-0.044672929,-0.08433672
1.75935E+18,13.11453271,-0.008090417,-0.037031788,-0.119943447
1.75935E+18,13.12459058,-0.013327789,0.028436169,-0.088236384
1.75935E+18,13.13464868,-0.023291741,0.083642431,-0.029066272
1.75935E+18,13.14470557,-0.021910358,0.094066843,0.007786018
1.75935E+18,13.15476367,-0.024067253,0.080171004,0.023572437
1.75935E+18,13.16482153,-0.062013835,0.030878553,0.043681167
1.75935E+18,13.17487866,-0.066470638,0.004736965,0.058186606
1.75935E+18,13.18493677,-0.053077333,0.016989902,0.062715046
1.75935E+18,13.19499487,-0.052248023,0.036117259,0.065940671
1.75935E+18,13.20505176,-0.065289788,0.043673977,0.073558636
1.75935E+18,13.21510962,-0.051167846,0.052772667,0.073365562
1.75935E+18,13.22516772,-0.03685895,0.055406801,0.069967635
1.75935E+18,13.23522461,-0.020097012,0.068073057,0.060244966
1.75935E+18,13.24528271,-0.005626461,0.071066454,0.048510011
1.75935E+18,13.25534082,0.000549943,0.065741464,0.035387818
1.75935E+18,13.26539771,0.012260927,0.071660608,0.022229139
1.75935E+18,13.27545557,0.024937307,0.083654679,0.015195997
1.75935E+18,13.28551343,0.029257488,0.094109721,0.00847338
1.75935E+18,13.29557178,0.027156785,0.08481209,-0.004527107
1.75935E+18,13.30562866,0.018798988,0.052391037,-0.013802631
1.75935E+18,13.31568677,0.020106601,0.022884808,-0.021184115
1.75935E+18,13.32574463,0.02509257,0.009264072,-0.022091987
1.75935E+18,13.33580176,0.019688483,0.007984956,-0.019056249
1.75935E+18,13.34585962,0.009797503,0.01836942,-0.006849118
1.75935E+18,13.35591772,0.010578342,0.031523839,0.000960868
1.75935E+18,13.36597461,0.007175621,0.017325727,-0.004898618
1.75935E+18,13.37603271,0.003601925,0.003589675,-0.012466523
1.75935E+18,13.38609082,0.001863147,0.026997263,-0.012813533
1.75935E+18,13.39614771,0.023809459,0.192043737,0.042265698
1.75935E+18,13.40620557,0.063999757,0.325593799,0.085970566
1.75935E+18,13.41626367,0.074162111,0.333086878,0.077618629
1.75935E+18,13.4263208,0.043845486,0.230357841,0.018990468
1.75935E+18,13.43637866,-0.001009604,0.051888499,-0.068384916
1.75935E+18,13.44643677,-0.002882872,-0.039619315,-0.120512299
1.75935E+18,13.4564939,-0.006455769,-0.017285513,-0.117508784
1.75935E+18,13.46655151,-0.02322809,0.048042092,-0.074879035
1.75935E+18,13.47660962,-0.024921328,0.103817478,-0.018618692
1.75935E+18,13.4866665,-0.008240886,0.143243983,0.036939111
1.75935E+18,13.49672485,0.00068097,0.171314761,0.075993836
1.75935E+18,13.50678271,0.003285542,0.18935208,0.090792224
1.75935E+18,13.51683984,0.008435829,0.195005715,0.083744429
1.75935E+18,13.52689771,0.007582552,0.180635557,0.06777399
1.75935E+18,13.53695581,-0.004410994,0.146792904,0.047888696
1.75935E+18,13.5470127,-0.006403305,0.105090998,0.037223537
1.75935E+18,13.55707056,0.000331564,0.076031119,0.027119502
1.75935E+18,13.56712866,0.008605206,0.061992798,0.030048979
1.75935E+18,13.57718555,0.008433699,0.062032744,0.047808003
1.75935E+18,13.5872439,0.010092049,0.070008114,0.079376578
1.75935E+18,13.59730151,0.005627792,0.079182968,0.115545772
1.75935E+18,13.60735864,-0.022400647,0.086809732,0.153716326
1.75935E+18,13.6174165,-0.088249698,0.097680487,0.177074909
1.75935E+18,13.62747485,-0.096488453,0.104427069,0.175547853
1.75935E+18,13.63753174,-0.090379164,0.085451253,0.164500535
1.75935E+18,13.6475896,-0.10847827,0.047340084,0.17117627
1.75935E+18,13.65764771,-0.133551404,-0.002143046,0.193768144
1.75935E+18,13.66770483,-0.12273524,-0.058794342,0.203239143
1.75935E+18,13.6777627,-0.11302349,-0.087698162,0.221184582
1.75935E+18,13.68782056,-0.140908659,-0.056690976,0.258287996
1.75935E+18,13.69787769,-0.153603941,0.030478546,0.293273419
1.75935E+18,13.70793579,-0.152836949,0.124572821,0.329288423
1.75935E+18,13.71799365,-0.124774955,0.233028457,0.336353242
1.75935E+18,13.72805054,-0.059312593,0.331682056,0.325709403
1.75935E+18,13.73810815,0.008743424,0.44107753,0.31043005
1.75935E+18,13.7481665,0.039990027,0.380060524,0.306560993
1.75935E+18,13.75822339,0.096355028,0.417013198,0.268950254
1.75935E+18,13.76828149,0.119016938,0.496368736,0.220633566
1.75935E+18,13.77833936,0.110510796,0.550243676,0.198306963
1.75935E+18,13.78839673,0.133228898,0.597679675,0.181292295
1.75935E+18,13.79845459,0.129846409,0.60544306,0.181321055
1.75935E+18,13.80851221,0.013058278,0.613274872,0.205131054
1.75935E+18,13.81856934,-0.001502555,0.67394489,0.176981434
1.75935E+18,13.82862744,0.043116845,0.743981719,0.098178767
1.75935E+18,13.83868555,0.099431247,0.775367379,-0.056450225
1.75935E+18,13.84874243,0.095898829,0.30046156,-0.316129476
1.75935E+18,13.85880054,-0.0755371,-0.947777987,-0.638049424
1.75935E+18,13.8688584,-0.191163301,-2.199054956,-0.990817368
1.75935E+18,13.87891528,-0.227432355,-3.077768803,-1.330926418
1.75935E+18,13.88897339,-0.215844408,-3.565135956,-1.634232044
1.75935E+18,13.89903125,-0.143355295,-2.80525732,-1.577062726
1.75935E+18,13.90908838,-0.014359232,-1.267655134,-1.221224427
1.75935E+18,13.91914648,0.045855373,-0.330715865,-0.942788601
1.75935E+18,13.92920435,0.004149471,-0.078651406,-0.700644135
1.75935E+18,13.93926147,-0.00329433,-0.280431926,-0.450433493
1.75935E+18,13.94931958,0.019683424,-0.626864433,-0.269657046
1.75935E+18,13.95937744,0.062001318,-0.735173881,-0.169565067
1.75935E+18,13.96943433,0.06322664,-0.550859153,-0.133790553
1.75935E+18,13.97949243,0.06410522,-0.22206369,-0.18120122
1.75935E+18,13.98955054,0.103554621,0.096900448,-0.295745105
1.75935E+18,13.99960767,0.165757269,0.327234864,-0.403522164
1.75935E+18,14.00966528,0.202333122,0.450083286,-0.427622169
1.75935E+18,14.01972241,0.233829543,0.512257993,-0.384728491
1.75935E+18,14.02978027,0.195135668,0.507580638,-0.354560494
1.75935E+18,14.03983862,0.126892433,0.498433232,-0.329777896
1.75935E+18,14.04989551,0.100077868,0.541108012,-0.233661756
1.75935E+18,14.05995337,0.136928827,0.587299705,-0.096888997
1.75935E+18,14.07001123,0.176225632,0.619942605,0.031609058
1.75935E+18,14.08006836,0.168384224,0.670520067,0.126819462
1.75935E+18,14.09012646,0.125525162,0.686382115,0.143511891
1.75935E+18,14.10018433,0.073812172,0.698211312,0.139752045
1.75935E+18,14.11024146,0.056481652,0.797170937,0.201513946
1.75935E+18,14.12029956,0.041130394,0.972186148,0.299638391
1.75935E+18,14.13035767,0.031421307,1.240043998,0.45448947
1.75935E+18,14.14041455,-0.004927647,1.585397601,0.506489277
1.75935E+18,14.15047217,-0.080484986,1.866235375,0.428295165
1.75935E+18,14.16053052,-0.049652774,1.95588243,0.333147079
1.75935E+18,14.1705874,0.0631795,1.846855283,0.351937532
1.75935E+18,14.18064551,0.130421385,1.446499705,0.372792751
1.75935E+18,14.19070337,0.150171131,0.888655305,0.369328231
1.75935E+18,14.20076074,0.165391892,0.462769777,0.392563254
1.75935E+18,14.21081836,0.196533829,0.281250328,0.468129933
1.75935E+18,14.22087646,0.209341511,0.167049438,0.57191515
1.75935E+18,14.23093335,0.237881809,0.050292198,0.652181268
1.75935E+18,14.24099146,0.29618746,0.018743327,0.699962378
1.75935E+18,14.25104956,0.415328503,0.088735998,0.737602651
1.75935E+18,14.26110645,0.610780537,0.254673302,0.796150923
1.75935E+18,14.27116455,0.925541401,0.382847786,0.815727592
1.75935E+18,14.28122241,1.227462649,0.375802398,0.801774204
1.75935E+18,14.29127954,1.483994603,0.323810548,0.757983565
1.75935E+18,14.3013374,1.698407292,0.278099269,0.734692395
1.75935E+18,14.31139429,1.898629308,0.29480952,0.785028517
1.75935E+18,14.32145239,2.058475494,0.307967156,0.866417646
1.75935E+18,14.3315105,2.191549301,0.245047033,0.929528713
1.75935E+18,14.34156763,2.29800868,0.128536671,0.880016267
1.75935E+18,14.35162524,2.461382151,0.056549564,0.798742473
1.75935E+18,14.36168359,2.657191515,0.074934162,0.761279762
1.75935E+18,14.37174048,2.738280296,0.059229769,0.741108716
1.75935E+18,14.38179858,2.76033926,0.124841265,0.766964555
1.75935E+18,14.39185645,2.75517416,0.098472245,0.827818871
1.75935E+18,14.40191333,2.896013975,0.174011216,0.888766646
1.75935E+18,14.41197144,3.152939796,0.348800063,0.957175791
1.75935E+18,14.4220293,3.317175627,0.169570118,1.005460262
1.75935E+18,14.43208643,3.488828897,-0.159427211,1.079480648
1.75935E+18,14.44214429,3.54046917,-0.298765928,1.192941904
1.75935E+18,14.45220264,3.516438723,-0.273743391,1.278511763
1.75935E+18,14.46225952,3.455091715,-0.218757644,1.272365689
1.75935E+18,14.47231738,3.34160161,-0.172132611,1.218346357
1.75935E+18,14.48237451,3.227436066,0.11597161,1.020469785
1.75935E+18,14.49243237,3.178887606,0.597931564,0.786013901
1.75935E+18,14.50249048,3.115408897,1.132727385,0.589734912
