seconds_elapsed,acc_z,acc_y,acc_x,grav_z,grav_y,grav_x,gyro_z,gyro_y,gyro_x
6.04328955078125,2.415606997887045,-4.461825095325708,-3.1540716411814094,-1.841896278941631,-9.345984207084774,2.3303163402229545,-0.057860255241394,0.6339394450187683,-0.5080579519271851
6.053348388671875,4.201728344245255,-3.924782165172696,-3.059408613407612,-1.871571724628657,-9.336250748577712,2.3456372434735298,0.0332209207117557,0.8984315395355225,-0.4817304909229278
6.063407470703125,6.268790346139669,-3.403308560073376,-2.9958868660897013,-1.8835104380950327,-9.33070071323514,2.3581311066046355,0.118568368256092,1.1843059062957764,-0.2725075781345367
6.07346630859375,7.329719787752628,-3.018910598802566,-2.7830753055363893,-1.863158408809453,-9.332026993402838,2.369027909802645,0.1606865227222442,1.4089821577072144,0.058033064007759
6.083525390625,7.211222003144026,-3.0306273400813337,-2.6820710920423267,-1.8033194416575131,-9.34095907239914,2.3801016770027577,0.1389918029308319,1.31391179561615,0.5277761220932007
6.093584228515625,6.207151343828439,-3.1834821523219343,-2.6401445059388875,-1.7029093946643172,-9.357046283847094,2.390848258075118,0.0572114586830139,0.9955654740333556,1.0059432983398438
6.103643310546875,5.193844069612026,-3.4885207456737755,-2.9168554149508474,-1.5699205817580222,-9.377170203465225,2.40299973750934,-0.0374732315540313,0.5556191802024841,1.4110655784606934
6.113702392578125,5.099888021063804,-3.5283611731529234,-3.47670697376132,-1.4110213747866451,-9.399580188193918,2.413981004120409,-0.0587281845510005,0.3145149350166321,1.7279855012893677
6.12376123046875,4.528005832719803,-3.121251613858342,-4.091782699404656,-1.2284969620779156,-9.42346725973785,2.420629648354649,-0.0082946894690394,0.208228200674057,1.9868276119232176
6.1338203125,3.035170828729868,-2.4769997703522444,-4.634571479733288,-1.0256875209052114,-9.448369061282277,2.41798965523988,0.0937733501195907,0.0280781425535678,2.2145705223083496
6.14387939453125,1.1529391053337603,-1.8082599667996169,-4.942235453152656,-0.8083232654836028,-9.473816221749782,2.400790390896797,0.2284750938415527,-0.3799655735492706,2.429805040359497
6.1539384765625,-0.5428676542511209,-1.3391630301475523,-4.835066871809959,-0.5833048055144027,-9.498938972568512,2.366495176454633,0.3800323903560638,-1.0000107288360596,2.614607334136963
6.163997314453125,-1.9111434181690212,-1.176899169048667,-4.464722570332884,-0.3591578676827252,-9.522637828063964,2.315328029927611,0.5425090789794922,-1.7001341581344604,2.7161619663238525
6.174056396484375,-2.9597148979902266,-1.1291723722338676,-4.001420875956118,-0.1448166316104121,-9.544178628742694,2.24901475219503,0.7161540985107422,-2.38571834564209,2.7173001766204834
6.184115478515625,-3.949025795069337,-1.1937649636536836,-3.0913807917296885,0.0529117936706868,-9.563083820220829,2.1714089499451217,0.8423726558685303,-2.970810651779175,2.621671438217163
6.19417431640625,-4.839612698546052,-1.763650425222516,-1.9768730507947505,0.2292784007023088,-9.57828138935268,2.0914953091442583,0.8714229464530945,-3.335477113723755,2.4406609535217285
6.2042333984375,-5.169904391098022,-2.210546051460504,-1.0342742205299436,0.3846436065949499,-9.588528642600776,2.020535666910559,0.7788363695144653,-3.337490558624268,2.2161498069763184
6.21429248046875,-5.311531706881523,-2.206194285991788,-0.980989351196587,0.5262705935848877,-9.59288040806949,1.9672507975772024,0.612244188785553,-2.806588649749756,2.0211856365203857
6.224351318359375,-4.608684466543793,-2.4410008207321168,0.1348440853841602,0.6696241851717233,-9.591208675464989,1.9315014388039704,0.3763365447521209,-1.4966106414794922,1.8397330045700075
6.23441015625,-3.70000427249372,-3.1427994287997483,1.6417476544760166,0.8311522062767297,-9.583429273635147,1.9072073938943443,0.2289862334728241,0.3031458258628845,1.772264838218689
6.244469482421875,-2.8860867671996355,-3.732227210706472,2.3986254679478702,1.0265404844727366,-9.57130512059927,1.872630439901352,0.2597981095314026,2.146078586578369,1.8030357360839844
6.254528076171875,-2.417148966632038,-4.463076556691527,3.178317316904664,1.2583553631164133,-9.556320901957154,1.806560177144408,0.4251998364925384,3.550461769104004,1.9078154563903809
6.2645869140625,-1.6357155347049237,-4.88581272418499,4.547812649212777,1.5115161774538457,-9.538953003048896,1.7012033213987945,0.6209620237350464,4.126414775848389,1.8917919397354128
6.27464599609375,-0.5185825598329306,-4.382574448478222,6.938941185534,1.7462094610780476,-9.5210035048604,1.5721460027225314,0.7432788610458374,3.364973783493042,1.670621395111084
6.284705078125,-0.3278362622238695,-2.7580098378628493,9.009318303325772,1.930305214756727,-9.504342877438663,1.4531930216923354,0.7375702261924744,1.7731904983520508,1.3411494493484497
6.294763916015625,-1.27335112606585,-0.493603601399064,8.460943831819295,2.0537110835425554,-9.491414422282576,1.3659072446882723,0.6254474520683289,0.4604001343250274,0.9080714583396912
6.304822998046875,-1.713364299313724,0.2511117728531361,6.475875930261611,2.1169372089147567,-9.485249469912052,1.3111151856623589,0.4820255041122436,-0.1530437171459198,0.37458336353302
6.314882080078125,-2.430225305826217,0.2925730795323848,4.172636689795554,2.123617563461512,-9.48914998448193,1.2714783179312945,0.4366689324378967,-0.1337621659040451,-0.1764411479234695
6.32494091796875,-3.133372259762883,0.6758867526978254,1.930331225980818,2.090697729025781,-9.502710307800768,1.223879677540809,0.5672048926353455,0.259118914604187,-0.4598704874515533
6.335,-1.7556794463433325,0.9245511323988436,-0.2361929475974291,2.0564507376395165,-9.51973450783789,1.1471867523521184,0.8555485010147095,0.5906601548194885,-0.3564551472663879
6.34505908203125,-1.4440410163350403,1.2243588393598794,-2.5631650188937782,2.0387009998068213,-9.53612800875604,1.0374598648287354,1.1626580953598022,0.5685791373252869,-0.1249000653624534
6.355117919921875,-2.2625851585164667,1.628700102984905,-3.537252335616946,2.0483036715410647,-9.546772736889125,0.9132070968899876,1.1111663579940796,0.6414962410926819,0.2031814157962799
6.365177001953125,-1.9302580146141348,2.475698040103912,-1.4642635740220546,2.0918664805442093,-9.546523146042228,0.8113947818834334,0.7241300344467163,0.4469189047813415,0.6185283660888672
6.375236083984375,-2.903932220491767,3.405784594798088,0.524710468128696,2.1763943371422587,-9.531648232993485,0.7624720532823354,0.1856798827648162,0.0849750861525535,1.0671043395996094
6.385294921875,-4.122894461505115,3.917189225825667,1.1339199320871385,2.285044827605784,-9.506152557209134,0.762886406236887,-0.0314415954053401,-0.5661736726760864,1.1997987031936646
6.39535400390625,-6.319090792834759,3.055067953854799,-3.134224492678046,2.3876629060372707,-9.479460365116596,0.780574403944984,0.1494418978691101,-1.1868761777877808,1.077536702156067
6.405412841796875,-4.540816506715118,2.462558572545648,-3.813099029015005,2.4693825733467936,-9.45856487660408,0.7797953093312681,0.5431868433952332,-1.432844638824463,0.8669575452804565
6.41547216796875,-2.4465187073707577,2.0657161402434108,-1.9164887247197329,2.533757430362701,-9.443897468826174,0.7505122970279305,0.7579164505004883,-1.301870346069336,0.7371329665184021
6.42553076171875,-1.9104849542602893,1.4507429981917142,-0.4833849166583269,2.5910364838987587,-9.431664010196924,0.7075419009599834,0.7743326425552368,-1.1193394660949707,0.6658771634101868
6.435590087890625,-2.6751523986950514,0.8288824347138405,0.312874255413562,2.6438781395092605,-9.419875957247614,0.6680001641664653,0.7038635611534119,-1.272770643234253,0.6281401515007019
6.44564892578125,-2.957724600955844,0.785350166979432,1.5111957133278249,2.691968508939445,-9.407917808428406,0.6440344744283706,0.6023834943771362,-1.5814107656478882,0.588612973690033
6.4557080078125,-2.8078628330513835,0.9222066150993108,2.379820814234763,2.7351386653631926,-9.395884256285427,0.6377710301194339,0.5074407458305359,-1.75268816947937,0.5538861751556396
6.465766845703125,-2.758116220846772,1.0439280379295348,2.356948326560855,2.773828461502492,-9.384578433895111,0.6371504870682955,0.5317407846450806,-1.6590428352355957,0.4964850544929504
6.475826171875,-2.855089279128611,1.523857334241271,2.567166363489628,2.8075045211330054,-9.375343572559952,0.625501696459204,0.6192666888237,-1.369049072265625,0.4250806272029876
6.485884765625,-3.5726880983963607,1.9829706370174884,2.714092077942192,2.83572260761857,-9.36863326126635,0.5981363178128376,0.7157902717590332,-1.1754177808761597,0.3353391289710998
6.495944091796875,-3.6237706353798496,2.3946593407958745,3.016971155172586,2.854782989658416,-9.365077614611389,0.5620611246187239,0.7396726608276367,-1.1445029973983765,0.2095779925584793
6.5060029296875,-3.0363182451993227,2.333620057943463,2.998092267179489,2.861242248800397,-9.36509105861485,0.5279683739461004,0.676899254322052,-1.1579359769821167,0.0604113675653934
6.516062255859375,-2.030750625324249,1.6480588834494352,2.3620164236053824,2.855103892175853,-9.368460827308892,0.500700683520548,0.6351915001869202,-1.222994327545166,-0.0511303432285785
6.526120849609375,-0.4725190200552344,1.3542571389049292,2.040247936987877,2.8418808379873632,-9.3736350150764,0.4786018471002578,0.5731468796730042,-1.2018964290618896,-0.0899594128131866
6.536179931640625,0.7996297444835305,1.0559376246750354,1.6458631269708277,2.829081562168896,-9.37848128606379,0.4590891912482678,0.5116041898727417,-0.9943597316741944,-0.0678296089172363
6.546239013671875,1.4415326867759226,0.8993769436538219,0.9511563768602908,2.8211937315285205,-9.381883787983655,0.4376301505688578,0.4738292992115021,-0.7774220108985901,-0.0111005259677767
6.5562978515625,1.6230515757039188,0.9278899214327336,0.7384373168960213,2.8193896047160028,-9.383463166129587,0.4148196222152561,0.4167369902133941,-0.6127193570137024,0.0326120667159557
6.56635693359375,1.6327616533353924,1.3056331009894608,0.9215187789656222,2.820752709762752,-9.383818555438518,0.3970876757675781,0.301354706287384,-0.5676689147949219,0.0467250756919384
6.576416015625,1.6323717772349715,1.841570115727186,1.0466257525809108,2.822488739775121,-9.383454398301245,0.393337054529786,0.1516594737768173,-0.6837219595909119,0.0388991124927997
6.586474853515625,1.633420409505069,1.84113406239748,1.0290855658456683,2.8214403997659683,-9.383018344971536,0.4108771316671744,-0.0490507185459136,-0.9119368195533752,0.002447169739753
6.596533935546875,1.6535200714647769,2.4942934349805115,1.096032684502378,2.8140599341258405,-9.38330885235071,0.4527165509438142,-0.2064608484506607,-1.1610161066055298,-0.0653718262910842
6.606593017578125,1.7521052411183713,2.5988807676583527,0.8987390841417014,2.797775738801062,-9.385096904811263,0.5126427579877898,-0.3162983059883117,-1.310595154762268,-0.1544406116008758
6.61665185546875,1.8523881546005605,2.4402152233123777,0.8316536529928445,2.772311919459701,-9.388488885337114,0.5839182612376287,-0.3758593797683716,-1.4234516620635986,-0.2204819470643997
6.6267109375,1.8785238818541168,2.098454042240977,0.4704001282051205,2.740190103533864,-9.392837728196382,0.6605609540764242,-0.3835005164146423,-1.4720957279205322,-0.2655240595340729
6.63677001953125,2.0512556532144544,1.4821423450618982,-0.077574822589755,2.704077756667137,-9.39767172422409,0.7362796274054795,-0.3812211155891418,-1.4148433208465576,-0.2778792381286621
6.6468291015625,2.339503855285048,0.8243447912842035,-0.412205421128869,2.6673706587776542,-9.402320426812768,0.80739833265841,-0.3352483808994293,-1.3049880266189575,-0.2765238285064697
6.656887939453125,2.4422560814902186,-0.0285299289137125,-0.927400749676302,2.630758545695245,-9.407319258013366,0.8670967953611165,-0.2365279048681259,-1.113950490951538,-0.2823060750961303
6.666947021484375,2.650529998613894,-0.9193962338536976,-1.4525507782660425,2.5941180833011863,-9.413528634047507,0.9090670014105736,-0.0882526934146881,-0.8829177021980286,-0.3081699013710022
6.677006103515625,2.573525961649418,-1.7652865019917487,-2.110387202749401,2.554105806386471,-9.422667633792758,0.9275017988979816,0.1403724998235702,-0.7049258947372437,-0.3880961537361145
6.687064697265625,1.9922861623734236,-2.667802328193188,-3.114982032069564,2.505371293833852,-9.436832352745531,0.9163567200273276,0.4231691062450409,-0.551673412322998,-0.519970715045929
6.697123046875,1.533265506316721,-3.361734440669417,-3.6160780350506303,2.44485033576712,-9.456373504039645,0.8775601025126873,0.6357501149177551,-0.4157901108264923,-0.6601746678352356
6.70718212890625,1.4483347680062055,-3.188231977197528,-3.39201676620841,2.3750554995290933,-9.47948900668919,0.8178010687291621,0.7655737996101379,-0.2090991139411926,-0.7360191941261292
6.717240966796875,2.070889012836665,-2.0466899527341127,-3.031509383612871,2.3040653160266578,-9.502789218255876,0.7474407075628637,0.7411071062088013,-0.0124156167730689,-0.7268357872962952
6.727300048828125,2.4259184024125338,-0.1833960809767246,-2.36494838540405,2.235592376042157,-9.52389455012679,0.6840692554358393,0.5281143188476562,0.1280533224344253,-0.7144327759742737
6.737359130859375,2.2147437954112887,1.6451783595770595,-1.3510799701735376,2.16769285203144,-9.542304067042467,0.64494019109644,0.1711540073156356,0.3148692846298218,-0.7347055077552795
6.74741796875,2.294977315816283,2.6490684016287327,-0.0785565271034836,2.0973351212136446,-9.55828548002839,0.6408945689674467,-0.2780519723892212,0.4713626801967621,-0.7868824601173401
6.75747705078125,2.3368914808295664,2.628219090345502,1.3002208666823805,2.0211537988089026,-9.571852817609903,0.6818786135237663,-0.7887280583381653,0.5018255114555359,-0.8630654215812683
6.767535888671875,3.203253605240583,-0.1054173537611961,3.7661961158037194,1.941137866677344,-9.58167220083475,0.7706665387190877,-1.2645753622055054,0.5463859438896179,-0.854618489742279
6.777594970703125,4.560813292822242,-3.113213853353262,5.311310757607221,1.8736038149781524,-9.583686463266613,0.901642550498247,-1.6953562498092651,0.6932973861694336,-0.6268617510795593
6.78765380859375,3.3169454508721827,-6.986092812809348,7.099018350243568,1.8373216645024717,-9.573253916579484,1.0711950342353431,-2.0744435787200928,0.6898444294929504,-0.2636921107769012
6.797713134765625,-0.2503869657099247,-11.012677648377418,7.494139950102567,1.836545419432968,-9.550372807207705,1.260108928785473,-1.9655756950378416,0.3959094285964966,0.1099802702665329
6.807771728515625,-0.2790954660609364,-11.038569630002977,7.348730777692794,1.8652539197839797,-9.524480241060257,1.405518101195246,-1.0885597467422483,0.0560882650315761,0.403950423002243
6.8178310546875,-6.069622695535421,-7.359709852346778,6.210877670875191,1.9047588316984476,-9.507440258932114,1.4665785729661582,-0.2210335880517959,-0.2209185659885406,0.4053027629852295
6.827889892578125,-6.389670641970634,-0.2657803496748209,6.181110893642902,1.9288240362882612,-9.5006171349138,1.479287247891724,-0.0391834862530231,-0.1791344285011291,0.1573848128318786
6.83794921875,-5.7043988058120005,4.044223368111252,4.995801623645424,1.930837714198232,-9.49821474994719,1.4920358164362608,-0.1781426966190338,-0.1163362860679626,-0.0641960501670837
6.8480078125,-4.867959087586403,6.233244985505938,3.513501457673311,1.9144123568370937,-9.497439673921466,1.5179130388841031,-0.3297103941440582,-0.0315305739641189,-0.2541158497333526
6.858067138671875,-4.6246997817993165,7.51914462749958,2.2642931314781305,1.877503160504252,-9.49870048763752,1.555655617301166,-0.450735330581665,-0.0055594276636838,-0.5277889370918274
6.8681259765625,-4.5423844866842025,7.714396565964818,1.2807256003566083,1.8111990889914331,-9.503912669327857,1.6017435608677566,-0.5047028660774231,0.0243446864187717,-0.8558216094970703
6.87818505859375,-4.525860052862763,7.252917118579149,0.7220756724208593,1.714767882501334,-9.513491229534148,1.6502788975864648,-0.5246520638465881,0.0850154981017112,-1.1749165058135986
6.888243896484375,-4.929264912420511,6.6234577705353495,0.0200393100745975,1.590550843463093,-9.526726558682322,1.697650743483752,-0.4808075129985809,0.0313621722161769,-1.4317362308502195
6.898302978515625,-4.782959667953849,6.639187839108705,-0.0218675484150648,1.4442453067354857,-9.542456627255678,1.7395577481038866,-0.375971645116806,-0.085901066660881,-1.5906803607940674
6.90836181640625,-3.8572920987457033,4.223746991568803,0.2372876840315759,1.2884633550018072,-9.559074584579466,1.770399899482727,-0.2279678285121917,-0.1259321123361587,-1.589432954788208
6.9184208984375,-3.466659626999497,2.6840356701135635,0.3449553009375929,1.1393456834629176,-9.5751460139364,1.7857345389977095,-0.0372524634003639,-0.2422182410955429,-1.4268150329589844
6.92847998046875,-3.5119805317163464,0.901433876183629,0.5946713816486299,1.0094412464380265,-9.59029039157629,1.7826209370218216,0.1698791831731796,-0.4217148423194885,-1.1300294399261477
6.9385390625,-3.7694168314158913,-0.7051368125796318,1.1632570126652717,0.9095431675549596,-9.603397710430622,1.7657494433283805,0.2627281546592712,-0.6432051658630371,-0.7363883256912231
6.948597900390625,-4.259354311522841,-2.3073323549985885,1.7057669760525225,0.8450733257319778,-9.612200025567413,1.7498142075717449,0.1948840916156768,-0.9386847019195556,-0.3142291605472564
6.958656982421875,-4.809765841814875,-3.614239713707566,1.7352356471210717,0.809952547185868,-9.614921559485792,1.7514700119547544,-0.086449310183525,-1.0187398195266724,-0.073008581995964
6.968716064453125,-4.920271458625793,-4.893530751216411,0.5236937653668224,0.7889270756181329,-9.60979471799135,1.7888059092670678,-0.5270004272460938,-0.9090570211410522,-0.0318288877606391
6.97877490234375,-4.891468557989597,-4.905709264788031,0.4474629047319293,0.7601241749819367,-9.59761737346351,1.865036769901961,-0.9037599563598632,-0.6202334761619568,-0.3460704684257507
6.988833984375,-4.069141536268591,-5.498395171707868,-1.5988010776750743,0.6630906186845154,-9.586271219062803,1.9580809643022716,-0.970284640789032,0.7987146973609924,-1.6635618209838867
6.99889306640625,-0.3848907862890511,-6.282537716463208,-3.834094470770657,0.4842501551855355,-9.582188918185231,2.029165255828947,-0.6247629523277283,1.8276575803756716,-2.5388646125793457
7.008951904296875,0.4225578883171081,-5.378825373953581,-5.246152933520079,0.2639792368032969,-9.58493500202298,2.0566277016416192,-0.1044005677103996,2.3913300037384038,-2.874434471130371
7.019010986328125,1.3437556186348198,-3.805512227147817,-5.715623379659652,0.0418888113763183,-9.592142156922815,2.039476806484908,0.3616073429584503,2.587965488433838,-2.74676775932312
7.029070068359375,2.169302186924219,-2.112455679586529,-5.430743777239322,-0.1490448802973143,-9.600877836564182,1.99281997698918,0.6062760353088379,2.516361951828003,-2.2463929653167725
7.039127685546875,2.8484102397561077,-0.6840402485370636,-4.269472969955205,-0.2863154804423451,-9.609229485324024,1.936772072683275,0.6446591019630432,2.25569486618042,-1.5695587396621704
7.04918701171875,2.932724015212059,0.1623620607763528,-3.166055216702819,-0.3688332758596166,-9.616914194607734,1.883959935428202,0.5853034257888794,1.9672714471817017,-0.99014151096344
7.059245849609375,2.309788515979052,0.8005629336804151,-2.5966689368277787,-0.4099894621124491,-9.623794601771236,1.8398016447499392,0.4729441404342651,1.729806423187256,-0.5969516038894653
7.069304931640625,1.3270365390241146,1.577276789739728,-2.062457722969353,-0.4286128409745171,-9.629276248052715,1.806577420540154,0.3526560068130493,1.4620922803878784,-0.4164115786552429
7.07936376953125,0.1225836291501298,2.2233529260635376,-1.9107278231054543,-0.4450525191219523,-9.63265829170644,1.7844333932712673,0.2199043482542038,1.2401466369628906,-0.4449239075183868
7.089423095703125,-0.7508990313231945,2.563341252243519,-1.676094014583528,-0.4747821426816284,-9.633118310433623,1.7742559903889894,0.1023116186261177,0.9225718379020692,-0.5746180415153503
7.099481689453125,-1.0383984608530998,2.509914197960496,-1.6282596657410262,-0.5247156922930851,-9.6313173984915,1.769966330371052,0.0710429102182388,0.4312982261180877,-0.7021642923355103
7.109541015625,-0.7620458637595177,2.07573309186697,-1.651520129819214,-0.5951670927437022,-9.62869114164114,1.7619526813939212,0.1253379136323928,-0.069583423435688,-0.8158508539199829
7.119599853515625,-0.217927223066613,1.4719973831444977,-1.437436649633944,-0.6843877468004822,-9.626049102699756,1.7438944621339438,0.2069861739873886,-0.4123660624027252,-0.931728184223175
7.129658935546875,0.0875251387178897,1.0162824906349182,-0.8358801846466958,-0.78737970004566,-9.622539633274078,1.7196397263213992,0.199317455291748,-0.6008660197257996,-0.9964560866355896
7.1397177734375,0.5335107374388725,0.4940858319580554,0.1727989913776516,-0.892790404870361,-9.616890813732146,1.6996163444682957,0.0956906676292419,-0.6334085464477539,-0.9475423097610474
7.14977685546875,1.2610066082775593,-0.227172678861022,0.9214772779114544,-0.988966029164195,-9.608805706954,1.6920929632261394,-0.048655517399311,-0.4103458821773529,-0.845531702041626
7.159836181640625,1.1985083587884902,-0.3902987097471952,0.6102526894010603,-1.068323278191313,-9.598909166839718,1.7000021289154883,-0.1589391380548477,-0.0622097365558147,-0.7101879715919495
7.169894775390625,0.8270316922806202,-0.5196376218438148,0.5245874993361532,-1.1291504526630043,-9.58838426569402,1.719976557060331,-0.2201968282461166,0.3269477486610412,-0.6081093549728394
7.1799541015625,0.2078195974849164,-0.5216249962687493,0.6658525576785207,-1.17851866000928,-9.577267828395962,1.7485504712462423,-0.2480857223272323,0.6667465567588806,-0.6116684079170227
7.190012939453125,-0.5700923823177814,-0.5937187570989132,0.8223470415957271,-1.2297481311827898,-9.564579611736535,1.7823945809200403,-0.2634998857975006,0.8129158616065979,-0.744968831539154
7.200072021484375,-0.913939575883001,-0.6056266370356083,0.9785561327002942,-1.2965073991172016,-9.548930207183956,1.818619448250532,-0.2817193567752838,0.752237856388092,-0.9460678100585938
7.210130859375,-0.7427028653860092,-0.3783680334568023,1.1062835179470478,-1.3851442984692752,-9.52913771147728,1.8566905279695989,-0.3289609253406524,0.6055774092674255,-1.159225344657898
7.220190185546875,0.2486332539103925,-0.028126024287939,1.021725704602152,-1.492570653965324,-9.50438905466795,1.8997990173339845,-0.4116257131099701,0.4818640351295471,-1.2802053689956665
7.230248779296875,1.540780850382894,0.3828437175661325,0.7371018305085599,-1.606023137883097,-9.47557329455018,1.9505393167510627,-0.5077381134033203,0.4142882227897644,-1.2577266693115234
7.24030810546875,2.660081963074207,0.5827367598354816,0.4988477856628596,-1.7113794091068206,-9.444275069966912,2.01177207634896,-0.6359062194824219,0.4376534521579742,-1.1199448108673096
7.250366943359375,3.105871089375019,0.5619283650845289,-0.1907727472245693,-1.798487053065002,-9.411945164248348,2.0859331449724734,-0.7558438181877136,0.4440913498401642,-0.8992382287979126
7.26042626953125,3.153011902995408,0.2196457904875278,-1.2009930152110757,-1.862386839915067,-9.380757414302227,2.1686989603340625,-0.8257256746292114,0.3883822858333587,-0.6356614828109741
7.270485107421875,2.9507223209783437,-0.3099363022655248,-2.1949368327878416,-1.9023612690374252,-9.35261326983571,2.2538943409301337,-0.8334991931915283,0.3076992630958557,-0.3888628482818603
7.280543212890625,2.4745184749305245,-1.1614894184708595,-2.9972283438265324,-1.924451228031516,-9.32825624269247,2.3346327421173454,-0.7847726345062256,0.1632968038320541,-0.2036943584680557
7.290601806640625,2.485468908011913,-1.1822989822655916,-3.070096303899586,-1.93540136885196,-9.307447263419627,2.4075008483208715,-0.7231565117835999,0.0632964968681335,-0.0963128954172134
7.3006611328125,1.6631182131543754,-2.830213488808274,-3.891033332566917,-1.9427908945813772,-9.288934870651364,2.472169573716819,-0.6414304375648499,0.0123603455722332,-0.0944060683250427
7.310719970703125,1.5416402436912058,-3.637202656143904,-4.311859867046773,-1.9543406087301671,-9.271583922877907,2.527581079815328,-0.534545361995697,0.0458340235054492,-0.1680999249219894
7.320779296875,1.9018296463787556,-4.037722900176048,-4.781104103215038,-1.9715610619917512,-9.25533421434462,2.5733508973434565,-0.3977012634277344,0.2078623324632644,-0.2634440064430237
7.330837890625,2.778741367985308,-3.7327936124175785,-5.240096117699146,-1.9901510500408708,-9.24093510211408,2.610514506828785,-0.2518485486507416,0.5052555799484253,-0.3240767121315002
7.340897216796875,3.7445559464037417,-3.427953171986341,-5.693390505063533,-2.002325764220208,-9.23004195217788,2.639585995273292,-0.0788216516375541,0.8414381146430969,-0.3080159723758697
7.3509560546875,3.741012282447517,-3.4324019680887456,-5.7115656287014485,-1.998781808003038,-9.225593740597366,2.657761703433096,0.1085960268974304,1.098090887069702,-0.1602315902709961
7.361014892578125,4.754551027332246,-3.4170641137033697,-5.801818146556616,-1.9700947888314724,-9.22985841230452,2.6643670930474994,0.2371947616338729,1.2156912088394165,0.1235351487994194
7.371073974609375,5.578190592956543,-3.784530229395628,-5.101037775620818,-1.908328068487346,-9.242920722973349,2.66404005305022,0.2663406133651733,1.185847282409668,0.519726037979126
7.381133056640625,6.009005437487364,-4.456017870351672,-3.858962662306428,-1.810173837596923,-9.263656052488088,2.6605153860554096,0.2617237567901611,1.077000379562378,0.9357850551605223
7.39119189453125,5.971877776098251,-4.909798579928279,-2.880214368034899,-1.6778776831299065,-9.29066037926972,2.6530644855275747,0.2843770980834961,0.954420566558838,1.31413733959198
7.4012509765625,5.61846064402461,-4.737039628300071,-2.489556761847436,-1.514050372106582,-9.322909036445616,2.6384458853274584,0.329365074634552,0.7955792546272278,1.689732789993286
7.41131005859375,5.061635739558935,-4.055986286619305,-2.492667879605293,-1.3200965106278657,-9.35932533469498,2.613575063443184,0.3985931873321533,0.481275200843811,2.075025081634521
7.421369140625,3.9513013387858864,-3.273898336306214,-3.027438480912149,-1.1008549900922924,-9.398761857548356,2.573288645762205,0.5188692808151245,-0.0549051389098167,2.4407055377960205
7.431427978515625,2.281547925400734,-2.738030879673361,-3.962493179407716,-0.8658263370338827,-9.439626951900124,2.5128040741831064,0.6645224690437317,-0.8144815564155579,2.7380850315093994
7.441487060546875,0.3927670726221055,-2.350173717859388,-4.588826796646416,-0.6260523891445249,-9.479129525727034,2.434045302505791,0.7816994190216064,-1.634199619293213,2.921907424926758
7.451546142578125,-1.293724636530876,-1.975292357474565,-4.42589131989628,-0.392990104255639,-9.51388344372213,2.345629352428019,0.829086184501648,-2.374826431274414,2.94858980178833
7.46160400390625,-2.6787059995234013,-1.7863596851587291,-3.6151930689096448,-0.1757813864556141,-9.541506194663048,2.2581296404123306,0.8109234571456909,-2.8312666416168213,2.8311002254486084
7.4716630859375,-3.512037814861536,-2.1607915482103826,-2.293891858667135,0.0218902009215787,-9.561519055122137,2.178820541375875,0.7558201551437378,-2.989243030548096,2.6265640258789062
7.48172216796875,-4.277499040022493,-2.8343869751006365,-0.9141153708413244,0.1994256256869994,-9.573861819344758,2.1146577196754515,0.6106605529785156,-2.79587197303772,2.364190101623535
7.491781005859375,-4.860471362179517,-3.236169201892614,0.1738384174279868,0.3625145942321047,-9.578645546489954,2.070875276572257,0.427951842546463,-2.1030235290527344,2.109039068222046
7.501840087890625,-4.658779161533713,-3.2739129493534564,1.1558129802696406,0.5248906470011919,-9.576665186327697,2.045085001755506,0.2434278130531311,-0.8636754751205444,1.9184080362319944
7.511899169921875,-4.101122482419013,-3.6085377026736736,2.1923121833726764,0.7030022847689688,-9.569147650304435,2.0267200546339152,0.152743712067604,0.7034971117973328,1.830343246459961
7.5219580078125,-3.5113872419983148,-3.8733459924459455,3.1149554363235827,0.9108353993225842,-9.557526770615578,1.9986103969588875,0.1879192888736724,2.3646252155303955,1.865677833557129
7.53201708984375,-2.5948399678349494,-4.090054560437799,4.236542760255933,1.1559248431462794,-9.542230417284369,1.9442383169107136,0.2852885127067566,3.529200792312622,1.9943655729293823
7.542076171875,0.0943036929421126,-2.7667601305514573,7.949724494230747,1.4201783485800028,-9.522676406508683,1.8633599227309223,0.4055936336517334,3.7226834297180176,2.015344381332397
7.552135009765625,0.9250565977029502,-1.7552268802702429,8.356094633334875,1.6681629293233156,-9.501410915639996,1.7637465790733693,0.608004093170166,2.793766021728516,1.885422110557556
7.562194091796875,-0.304710092049837,-0.018372107514739,7.344171506953239,1.8723134829066688,-9.481370582652092,1.6638626017808913,0.6674932837486267,1.4089237451553345,1.5919466018676758
7.572253173828125,-2.290019985669851,0.839786106044054,5.344250904178619,2.010496941846609,-9.465795996901392,1.5896565249718724,0.5064816474914551,0.501336395740509,0.9607388377189636
7.58231201171875,-2.231841937467456,0.7689508208423852,3.971267437493801,2.0745729620464144,-9.459902847209571,1.541681160223484,0.2920220792293548,0.6051424145698547,0.2311578392982483
7.592370849609375,-2.1361767469137907,0.4291980569839477,0.7979555276609956,2.086347424861789,-9.464317156520485,1.4980837182983755,0.3410092890262604,0.8673214912414551,-0.1728270351886749
7.60243017578125,-1.942767221444845,0.6194996795654296,-2.5810835374221206,2.078338890451193,-9.476998358917236,1.4273776124343276,0.73050856590271,1.142175793647766,-0.2713581621646881
7.612489013671875,-1.7461816962882877,1.1501152070194482,-3.3127214034363623,2.07673116299361,-9.494208436915278,1.3105705573916435,1.142558455467224,1.4023665189743042,-0.1125707849860191
7.622548095703125,-3.1714608751386404,1.7371090397775173,-2.927563271448016,2.0973623014815157,-9.509135956934092,1.1609415753297507,1.3681164979934692,1.230675220489502,0.2020292282104492
7.632606201171875,-4.203504414007067,2.715061507496237,-1.6454745660446584,2.143593160650134,-9.516090598377584,1.0096643876694142,1.2972142696380615,0.7380101680755615,0.5426296591758728
7.6426650390625,-4.302939186227321,3.26446941370368,-0.4423421276520937,2.2162429479278623,-9.511091182655097,0.8932000816497951,0.918114185333252,0.2111812382936477,0.875194787979126
7.65272412109375,-4.782878419411182,3.4295383953511718,-0.8462417849894612,2.312511072810739,-9.49449952881634,0.8228982457377017,0.5725197196006775,-0.3055923581123352,1.1222132444381714
7.662783203125,-4.972355281606316,3.4892087279379367,-2.0551289875164627,2.4171432675436137,-9.471271213442089,0.7891946405131369,0.4451470971107483,-0.749451756477356,1.137163758277893
7.672842041015625,-3.833693488754332,3.09682327504456,-2.1690885441735386,2.513440618520975,-9.448340419709682,0.7627944171044975,0.5427010655403137,-0.8149052262306213,1.0173147916793823
7.682901123046875,-2.9849408169224856,3.1035569672137497,-0.8826211122293025,2.598426301889121,-9.428139343202114,0.7271474957924335,0.6157315969467163,-0.7674189805984497,0.9037551879882812
7.6929599609375,-2.664391642966866,3.0425580163717267,0.3006774755328893,2.673669174399972,-9.409937331557272,0.6891753464031964,0.5999774932861328,-0.7635048031806946,0.8095114827156067
7.703019287109375,-2.932565025258064,2.85577170843482,1.2899318201191723,2.741477805256844,-9.39269042868018,0.6573023176066577,0.5301214456558228,-0.9240350723266602,0.7709653973579407
7.713077880859375,-3.703032680404186,2.434929391863942,1.5696518478192387,2.8038600271508094,-9.375420729449392,0.6404956327777356,0.4859747886657715,-1.2809429168701172,0.6963744163513184
7.72313720703125,-3.3230870223671194,1.8388234473675489,1.7176809934690591,2.854870960202813,-9.360656875559688,0.631030908209458,0.5500480532646179,-1.4321016073226929,0.5794432759284973
7.733196044921875,-3.362389981968701,1.82774325042665,1.7326238571874797,2.894174504326284,-9.349577263140675,0.6160878983605653,0.6400392651557922,-1.39017915725708,0.4384521245956421
7.743255126953125,-3.124662299084663,1.854278790652752,2.2780700201570987,2.9196584896728397,-9.343341583621502,0.5898843665678054,0.7318677306175232,-1.2388732433319092,0.2809871435165405
7.75331396484375,-3.075103902928531,1.956413469481468,2.486988372664153,2.9323496289417146,-9.34162893448472,0.5528994015850126,0.7906822562217712,-1.1424908638000488,0.1307851672172546
7.763373291015625,-3.26013313806504,2.20736508333683,2.4772803408592936,2.929433449234068,-9.344928560552,0.5109824966253712,0.8162822127342224,-1.1674432754516602,-0.0635209307074546
7.773431884765625,-3.817280698613822,2.3234832793325184,2.21416336517483,2.9074837754935023,-9.353906232255696,0.470484883879125,0.8059519529342651,-1.2669752836227417,-0.2767292559146881
7.783489990234375,-3.829723708340525,2.29871299521327,1.727610120678693,2.866655798281729,-9.368341584843396,0.4322590154571458,0.8087000846862793,-1.3744421005249023,-0.4564768970012665
7.793549072265625,-2.965221970973909,2.0939234130740165,1.2609113312095404,2.811694081777334,-9.386513785871864,0.397671941928938,0.7747830748558044,-1.4176009893417358,-0.5711837410926819
7.803608154296875,-1.758170824767649,1.6271441057145597,0.8440573536224663,2.751165671056509,-9.405755661958455,0.3650143020933494,0.767645537853241,-1.4387809038162231,-0.5802578926086426
7.8136669921875,-0.5471686028480529,0.9774603002876042,0.3786102447148412,2.6937200287818905,-9.423605206903815,0.3315697131311521,0.7246479988098145,-1.3192355632781982,-0.523903489112854
7.823726318359375,0.9401274717152118,0.8810323086678982,0.3312937092013657,2.645488789576292,-9.438208317273856,0.3033194779416546,0.573608934879303,-1.1834765672683716,-0.4007895290851593
7.833784912109375,1.9833415161564945,0.8939303686857223,0.2016698426835239,2.6106822646111247,-9.448411731380224,0.2867473690535873,0.4014216661453247,-1.0813332796096802,-0.2646596133708954
7.84384423828125,2.6410996147066355,1.054470474731922,-0.1013963180841878,2.586489780379832,-9.455125549805164,0.2847024374888278,0.2030169516801834,-0.970692217350006,-0.1905837953090667
7.853903076171875,2.9766753851413723,1.5363514896333217,-0.0391919187088496,2.5654525453090664,-9.46041079673171,0.2991125277711078,0.0200300626456737,-0.957044243812561,-0.2037631422281265
7.86396240234375,2.879690344160795,2.0744974125921725,-0.0169714104039594,2.539884096549452,-9.466295763117074,0.3295642550602555,-0.1230703741312027,-1.0243092775344849,-0.2689906358718872
7.87402099609375,2.948612196956575,2.2956220434606074,0.0670638403715565,2.5080726617470384,-9.473138760879635,0.3736189392335712,-0.2224111855030059,-1.130387544631958,-0.311925858259201
7.884080078125,3.312564167048037,1.829744068855047,0.068177866028063,2.4740713156849146,-9.479816338947415,0.4271226754819974,-0.2810329496860504,-1.2172410488128662,-0.2915542721748352
7.89413916015625,3.587981236857176,0.9146469934999942,-0.0868963392950594,2.4448085424520074,-9.484542198425531,0.486578269339539,-0.3134840130805969,-1.274178981781006,-0.1910266280174255
7.904197998046875,3.833476923394203,-0.0219049578160047,-0.4121672445429489,2.426013387219608,-9.486068385079502,0.5471402900690212,-0.2820762693881988,-1.3115720748901367,-0.062012992799282
7.914257080078125,3.2980706545323133,-1.7663719591408966,-1.7399948243469,2.416888854391128,-9.4851787427634,0.6003547245146706,-0.1623109579086303,-1.2663486003875732,0.0223365146666765
7.924315185546875,3.301837313589453,-1.7677841640263794,-1.7763570543214675,2.413122049203515,-9.483766537877916,0.6367168448913842,0.0191301982849836,-1.140101194381714,0.0486203171312809
7.9343740234375,1.6742349427133798,-3.4949101544499395,-1.835357524822652,2.4092257724173365,-9.483757770049571,0.6514248038753867,0.2186078578233719,-1.016154408454895,0.0087703149765729
7.94443310546875,0.8959222731553017,-3.653648764032125,-1.763989447918534,2.399247106977552,-9.486776825609804,0.6442512589842081,0.4163510501384735,-0.9115353226661682,-0.0929400697350502
7.9544921875,0.7936112148463725,-2.7271622796565294,-1.587072645958513,2.379304389145225,-9.493591181799768,0.6172712629262358,0.5583268404006958,-0.7588726282119751,-0.2090182900428772
7.964551025390625,1.3212287295281886,-0.8159259225070477,-1.255973290285468,2.351027850470692,-9.50323287037015,0.5758701620016247,0.6095373034477234,-0.4789927899837494,-0.2984288930892944
7.974610107421875,1.3988210877746343,1.4657523512750863,-0.9411242276675998,2.3186260485596955,-9.51386123189032,0.5299199098726735,0.5091050863265991,-0.2171726524829864,-0.3367998898029327
7.9846689453125,0.8706436011224985,3.351559083613753,-0.4341656527960673,2.2823703476995227,-9.524708789119124,0.491027869159542,0.3283595144748688,0.0720996409654617,-0.4221499264240265
7.99472802734375,0.3588412029489874,4.790166822853684,0.57655960557051,2.235276588091254,-9.537121111446618,0.4661152174275368,0.0698720142245292,0.402888685464859,-0.5937268733978271
8.004786865234376,0.0688058252006769,5.26907028324902,2.1810716813035307,2.1700721483834085,-9.552297053268552,0.4634734707470983,-0.2918646335601806,0.6971631646156311,-0.8214231729507446
8.01484619140625,0.089234865245223,4.500132906410098,4.126516451394558,2.084550312311947,-9.569555646583437,0.4986322432160377,-0.800534725189209,0.8335458040237427,-1.0247128009796145
8.02490478515625,1.2645895813308656,2.294082412803173,5.6169946631252765,1.9873348235763608,-9.585323709079622,0.5851848471073433,-1.3595036268234253,0.8503589034080505,-1.0559074878692627
8.034964111328126,3.198288676309585,-1.9785113195210693,6.832798440107703,1.902707744387537,-9.592963994699716,0.724648883909732,-1.829532027244568,0.6812542080879211,-0.7601732015609741
8.045022216796875,2.6534227974459528,-8.509418816652893,8.35460994773507,1.8571032004237171,-9.586554712179302,0.9052641019962728,-2.0349013805389404,0.1980190873146057,-0.2481253892183303
