seconds_elapsed,acc_z,acc_y,acc_x,grav_z,grav_y,grav_x,gyro_z,gyro_y,gyro_x
16.10203125,2.8152982437491416,-0.0877262142479419,-1.3737335543997584,-1.6419900849297642,-9.426383439445496,2.148856488005817,-0.4157889187335968,0.1741235852241516,-0.5601378083229065
16.112090087890625,2.7622587274789807,-0.8088315803319215,-1.3769913871519266,-1.687261743677407,-9.408873501718045,2.1901222721129656,-0.4231197834014892,-0.0071705603040754,-0.4405762553215027
16.122148193359376,2.4790640094056724,-1.8436726409643889,-1.444774299045652,-1.7269846822567283,-9.392762909394502,2.227977078732848,-0.4251338243484497,-0.2626375555992126,-0.3367724418640136
16.13220703125,1.9555565603911875,-2.696550283771753,-1.5370976318255063,-1.763870497713983,-9.377707963603736,2.26224145964533,-0.4504945576190948,-0.5010136365890503,-0.2632095515727997
16.14226513671875,1.5831507963396607,-3.288473389625549,-1.7881138353496788,-1.799975245796144,-9.362487013596295,2.296582120664417,-0.4917008280754089,-0.6062477231025696,-0.2324250340461731
16.15232421875,1.6670694349981845,-3.670464289754629,-2.267275946681201,-1.8337649949342008,-9.346660498911142,2.3340143179580566,-0.5201316475868225,-0.5238383412361145,-0.1959913969039917
16.162382080078125,1.6941304604031144,-3.685850074934959,-2.307083933195472,-1.860826312600076,-9.331273544687033,2.373822158341855,-0.4870673418045044,-0.2931364476680755,-0.1709917336702346
16.172440185546876,1.8174901519596576,-3.694647713896632,-3.01836231727004,-1.8779443284004929,-9.317688086926935,2.413377631399781,-0.3862667083740234,0.1271955966949463,-0.1437345445156097
16.182499267578127,2.52644856865406,-3.446915646609664,-3.724339087805152,-1.87851803663522,-9.308044060268998,2.4498753243222837,-0.2278719693422317,0.679061770439148,-0.0692172423005104
16.192556884765626,3.780037301890552,-3.0943343808382746,-4.372334794014692,-1.8558475012741984,-9.304488998135923,2.480467154201865,-0.0490931682288646,1.1847436428070068,0.0631328150629997
16.2026162109375,4.778231470388174,-2.6785283048689363,-4.58588168310523,-1.806877426400036,-9.308191944307088,2.5026266713008285,0.1038801297545433,1.509103536605835,0.264148473739624
16.21267431640625,5.567132607847452,-2.338842761027813,-4.213988106359541,-1.7307241610459982,-9.318673590832947,2.517396662670374,0.1552522331476211,1.5721442699432373,0.5294227600097656
16.222733154296876,6.018816052883863,-2.2345377524226904,-3.240217015978694,-1.6287484721712766,-9.33394422520101,2.528839555443823,0.1303566098213195,1.3720909357070925,0.8443937301635742
16.232791259765627,6.022977848738432,-2.499180622500181,-2.278349421620369,-1.5036232322469352,-9.352566508084536,2.537521751332283,0.0861017853021621,1.0142982006072998,1.17105233669281
16.242850341796874,5.68893995539546,-2.8209201752841477,-1.623700395001471,-1.3573806777529418,-9.373646120992303,2.5421757146179678,0.0609017983078956,0.568888783454895,1.508208990097046
16.252908203125,5.068894332385063,-2.7963404453009364,-1.4612211375862358,-1.1881932279359548,-9.397028750145434,2.5405568812444805,0.0838910043239593,0.2429119795560836,1.8621947765350344
16.26296630859375,4.523146117728948,-2.230233917748928,-1.448100374728441,-0.9927459860943256,-9.422046871545913,2.5317761934176084,0.1213420107960701,-0.0692369043827056,2.2141036987304688
16.273024658203123,3.300285407972336,-1.6169424451738594,-1.5608911798670888,-0.7747016394540667,-9.446962701615693,2.5149805414393542,0.1838858127593994,-0.532939612865448,2.526805639266968
16.283082763671874,1.111166759943962,-1.5208774416476487,-2.0101813000261783,-0.5450880337143317,-9.470753327047824,2.485579967170953,0.3160063624382019,-1.1895724534988403,2.728450059890747
16.293141845703126,-1.4016460820674896,-1.8732798437207936,-2.8102888911545274,-0.3203833524020388,-9.492593987455964,2.4409834312058982,0.4714308381080627,-1.946562886238098,2.782287836074829
16.30319970703125,-3.3019664929270744,-2.15607737917006,-3.2936876171424982,-0.1111169719086028,-9.511764551872014,2.3841902614906427,0.6004406213760376,-2.5807642936706543,2.740168809890747
16.313259033203124,-4.069630781090259,-2.2509388521254063,-3.349599766239524,0.0784964583461638,-9.527635490220783,2.3212904454633594,0.6793655157089233,-3.001567840576172,2.58446741104126
16.32331689453125,-4.829222237434983,-2.251873502627015,-3.023973727411032,0.2458222698765806,-9.539569089120626,2.259774192748964,0.6715719103813171,-3.062479019165039,2.370760917663574
16.333375732421874,-4.831141222798824,-2.312329432633519,-2.1642865507192908,0.3981271383505314,-9.546450665327908,2.208429643828422,0.5623096227645874,-2.707648992538452,2.172560214996338
16.343433837890625,-3.189545397883653,-2.530897364756465,0.2592987325705588,0.5494893008805811,-9.546952769631147,2.1735097216166555,0.3676878213882446,-1.7768508195877075,2.027771234512329
16.353491943359376,-2.549440737184882,-3.220316968244314,0.9774396958909928,0.71518328255862,-9.54062707374096,2.152978682502359,0.2186546623706817,-0.3752727806568146,1.9368199110031128
16.363551025390624,-1.8388158485829829,-3.704447223377227,1.5717815533243118,0.9104638625964522,-9.529352815532684,2.129055516731739,0.2170384377241134,1.2174278497695925,1.9592608213424685
16.37360888671875,-1.06595581840761,-4.2023067286551,2.8617168805748223,1.1436174424979837,-9.514672548273206,2.081710851102322,0.3368894755840301,2.856024265289306,2.0061888694763184
16.383667724609374,-0.2103736658819019,-4.471200826436281,4.468777106420696,1.4077733327761293,-9.497917812827229,1.9945199127748607,0.5628661513328552,3.975552082061768,2.0175466537475586
16.393725830078125,0.0861747470222413,-4.017851494014263,6.325100262382626,1.6734133971974252,-9.480656296902897,1.867408759730309,0.7663103342056274,4.024230003356934,1.8654274940490725
16.40378466796875,-0.2508274029538035,-2.5511931338101625,6.8076879642486565,1.9020780681818723,-9.465004554262755,1.72225385434255,0.8709838390350342,3.2974395751953125,1.5101726055145264
16.4138427734375,-1.226336276912689,-0.8564899880856275,5.762915876710415,2.069992794649303,-9.454139461377263,1.5826447465136646,0.8741557002067566,2.28455114364624,1.032151460647583
16.42390185546875,-2.5514295729145404,0.0450707293480634,4.898237321472168,2.17060143295452,-9.450241869416832,1.4668969912655652,0.7454038262367249,1.2918381690979004,0.5121941566467285
16.433959716796874,-2.50229787773788,0.6921937443763018,4.309043348321318,2.2123002016514537,-9.45317616930306,1.383320882434398,0.5336025953292847,0.8830421566963196,0.0711866915225982
16.444017822265625,-2.511764209741354,0.6992156058371066,4.373728878721595,2.2217666797854005,-9.460198030763864,1.3186353520341216,0.3818718194961548,1.056529521942139,-0.10451240837574
16.454076904296876,-3.0306629959166047,1.716712148436904,1.0445353561729191,2.228605439764261,-9.466593869280814,1.2598837417274713,0.3630893528461456,1.0844193696975708,-0.0378606766462326
16.464134521484375,-6.369970500722527,1.804949819338321,-2.542112001731992,2.2341366242758927,-9.47357773681879,1.19597211830914,0.6421087384223938,0.3651400506496429,-0.0570905655622482
16.47419384765625,-5.360957708829641,1.794859217956662,-4.748048221309483,2.229042808268219,-9.484735675171017,1.114248797737807,1.0655744075775146,-0.2501913011074066,-0.044695146381855
16.484251953125,-2.6918577420413494,1.853100394523144,-4.58461268608272,2.2294775464236736,-9.49703869190514,1.0030365670274943,1.3892537355422974,-0.3328282237052917,0.1540081650018692
16.494310791015625,-1.921201870846748,2.3857523962408305,-2.983855359773337,2.256540033133328,-9.5035642942816,0.8721696416459978,1.417298674583435,-0.1206549704074859,0.4599950015544891
16.504368896484376,-3.7443636387020343,2.875005401214957,-2.2364799725316464,2.309937276799977,-9.501257770904898,0.7487829890172928,1.229502558708191,-0.2832042276859283,0.6624200344085693
16.5144267578125,-4.8723204976663,3.193390382874012,-1.9439593538388609,2.37082823722288,-9.493132332116366,0.6557292230710386,0.963484227657318,-0.7167916893959045,0.666631817817688
16.52448583984375,-4.015913803949952,3.003692571404576,-1.900446375326812,2.4240686828926203,-9.483749002221224,0.5939605299655347,0.7914561629295349,-0.9856511354446412,0.5606914758682251
16.534543701171874,-3.1136659810349343,2.4199264685213566,-1.764696719405055,2.464837623393536,-9.476238480460644,0.5439533305959776,0.7920830845832825,-1.050787329673767,0.4290399849414825
16.544602783203125,-3.1456054261311888,2.414256021669507,-1.7155717462301254,2.4967764839679,-9.470566280043125,0.4948279920948669,0.8213767409324646,-1.2075088024139404,0.3762418925762176
16.554660888671876,-2.8404797390177845,1.8773621445983648,-0.6965053239651023,2.5259414959147573,-9.46503728748858,0.4506508505856618,0.8000325560569763,-1.5135639905929563,0.3907744884490967
16.5647197265625,-2.9365155164495107,1.2277169176161289,0.6274763575330377,2.555388539673388,-9.458534481465817,0.4201365429216995,0.746296226978302,-1.9178966283798216,0.4083838164806366
16.57477783203125,-3.3686794375017284,0.7480775441616773,1.56166304102242,2.585476219423115,-9.450999994307756,0.4053231142692268,0.6561011075973511,-2.100040435791016,0.4062077403068542
16.584835693359373,-3.097189185747504,0.8142389923334121,2.6336446225255727,2.614458568279445,-9.443241050744057,0.4002577571710571,0.5999440550804138,-2.0521914958953857,0.3915212154388428
16.594894775390625,-2.9287933977648613,1.1202356170624497,3.191219468575716,2.645080208775401,-9.434847900930048,0.3969406685123219,0.5817565321922302,-1.9205405712127688,0.4249294996261596
16.604952880859376,-2.906871196553111,1.5229367122650146,3.312129867284,2.67777544067502,-9.425895948189495,0.3903534356091171,0.5625877976417542,-1.679043889045715,0.4125323891639709
16.61501171875,-2.8337735193774103,2.332456859382987,3.699889706203341,2.7064319185778496,-9.41809608809352,0.380877458994463,0.511880099773407,-1.4167765378952026,0.3119879364967346
16.62506982421875,-2.910214369501173,3.0365701741337774,3.770724699144065,2.723017142675817,-9.41367534904182,0.3718428329391405,0.4575304090976715,-1.281086564064026,0.1385339945554733
16.635127685546873,-2.8102535275802016,3.5331536681264635,3.2617309286504983,2.723164442192018,-9.413910911363365,0.364736581130512,0.4070485830307007,-1.2348095178604126,-0.0226085595786571
16.64518701171875,-1.9898840696677564,3.530510460141301,2.824128031414747,2.71263340356648,-9.41695451684296,0.3646493412384763,0.3183033764362335,-1.28599750995636,-0.0936488136649131
16.65524462890625,-0.7358639592766761,3.1853865246385333,2.5795316318050023,2.69686446428746,-9.421234386119243,0.3710228583257645,0.259390264749527,-1.169434905052185,-0.1424416601657867
16.6653037109375,0.5281017910674214,2.649768658852577,2.2037796260654927,2.676835821737349,-9.426705511006713,0.3770201990444213,0.2374773025512695,-0.9925257563591005,-0.1892696470022201
16.675362060546874,1.2480606174647808,2.1207675808578728,1.6996578455224631,2.6538892459139225,-9.43310836378634,0.3791076363103464,0.2236270010471344,-0.8151366114616394,-0.2191931903362274
16.685420654296873,1.7108412105768918,1.7793588664859532,1.3477261297009884,2.629996036890149,-9.439756715759634,0.3801393174456432,0.1416397243738174,-0.5868813395500183,-0.2224001735448837
16.69547900390625,2.395784545433521,1.6556524073183536,1.2892851927787066,2.607498081617057,-9.44578664357364,0.385309413559921,0.0337729156017303,-0.4705568552017212,-0.2077293545007705
16.705536865234375,2.8082641073286534,1.5262158800661565,1.0382756381910294,2.586171508210897,-9.451023375183343,0.4003402478227391,-0.09986312687397,-0.4690550565719604,-0.2037896662950515
16.715595703125,3.1306612472385167,1.3139274666041134,1.175363922305405,2.564396606515348,-9.45570948717296,0.4287510073361918,-0.1996565759181976,-0.6109861135482788,-0.2025843113660812
16.725654052734374,3.437140687048435,0.8215151208162307,1.0430858880169689,2.5428268720030784,-9.45964507305622,0.4685531486315652,-0.2542542219161987,-0.7984424233436584,-0.1806038171052932
16.735712646484377,4.0024902587533,-0.4512748642355203,0.5095828954931348,2.52290636600256,-9.462515660056471,0.5158835665399208,-0.2604117095470428,-0.9590393304824828,-0.1438676416873932
16.745770751953124,3.9726799346402286,-1.131319905656576,-0.1507676307030022,2.505580844931304,-9.464369178968669,0.5640665461570025,-0.2190613597631454,-1.01742422580719,-0.1078945845365524
16.755828857421875,3.68903747279942,-1.788160012578964,-1.1678642141997813,2.490546941928565,-9.46578489098549,0.6053763520689681,-0.1070935428142547,-0.9758310317993164,-0.0845413282513618
16.7658876953125,3.0790052942812443,-2.381188449326157,-2.341964400179684,2.477188570922613,-9.467715566787124,0.6295118088833987,0.0931272953748703,-0.8657844066619873,-0.0775965675711631
16.77594580078125,2.34904968226552,-2.759882061475515,-3.140071172879636,2.463594929856062,-9.471345447722078,0.6282542100377381,0.3323963284492492,-0.656083345413208,-0.1093411743640899
16.786004638671876,1.4552869252316654,-3.0364637911498544,-3.5582831409469247,2.446513300543278,-9.477729011279344,0.5980024257674813,0.5784300565719604,-0.4172264337539673,-0.1831610053777694
16.796062744140624,0.9208404413126408,-2.881786439657211,-3.613395371837914,2.4229613061726094,-9.487257302603124,0.5399885186182335,0.7865585088729858,-0.1994123607873916,-0.273397147655487
16.806121826171875,0.9509230064958334,-2.870017091408372,-3.5349361676290627,2.392878887119889,-9.499027235373854,0.4615294240072369,0.8938790559768677,-0.0170711241662502,-0.3383694291114807
16.8161796875,1.3586778779566286,-0.3970025913000106,-2.8610788749322293,2.3604152720190585,-9.51095265096724,0.3749996895348653,0.8600673079490662,0.149636372923851,-0.3359419703483581
16.82623779296875,1.1430445379808545,1.3778273995846508,-2.1374666405938565,2.3294452564768493,-9.521404486876726,0.2948290234993211,0.68808513879776,0.2833645641803741,-0.3345163762569427
16.836296875,0.1067306283168494,3.2379999244511124,-1.064571305246651,2.2936063197240237,-9.531757538586854,0.2352796138784848,0.3709471821784973,0.3719703257083893,-0.4446553885936737
16.846354736328124,-0.428833899846673,4.565521032121778,-0.007880359719973,2.2416937616571784,-9.544712297227978,0.2089932261078618,-0.0255020484328269,0.4828968048095703,-0.6662178635597229
16.856413818359375,-0.333091844664514,4.932268185889721,0.9250411809381096,2.16630256671682,-9.561906593135,0.2178909279105253,-0.4107733070850372,0.5992801785469055,-0.9226309657096864
16.866471923828126,0.0795174810901284,4.52799180419445,1.8899226432248948,2.068829449958354,-9.582300561866164,0.2642604648974724,-0.8303390145301819,0.6204544901847839,-1.11900532245636
16.876529541015625,0.8783772641144693,3.0067694946318864,2.3128952498227355,1.958302644228935,-9.602644846236704,0.353048116098158,-1.2484768629074097,0.5266361236572266,-1.183692455291748
16.8865888671875,2.373230622189492,0.0182867673188447,2.499128015530109,1.852834583193809,-9.6179873767972,0.4813537761569023,-1.575498342514038,0.3810949325561523,-1.0012420415878296
16.896646728515623,3.5598102043837305,-4.266422350212931,3.64919207688421,1.7800073935225604,-9.622490533435345,0.6400199780900031,-1.8081555366516116,0.2692501544952392,-0.5123703479766846
16.906705810546875,0.4964068222515285,-9.21730463567972,4.9955759981960055,1.7547412887103857,-9.614138300153613,0.8121586789280175,-1.7535873651504517,0.0268907714635133,-0.0669796094298362
16.916763916015626,0.4980224407546222,-9.230393249833584,4.8502527505040165,1.753125816337764,-9.60105027052164,0.9574819996852428,-1.1423709392547607,-0.258933275938034,0.01152531709522
16.92682177734375,-3.951828577530384,-12.259857975876333,6.083685123157501,1.7479660954870282,-9.59426397138238,1.032031556169689,-0.3111723661422729,-0.2967417538166046,-0.0605327412486076
16.936880859375,-4.922802438408136,-11.02624907761216,7.475256385934353,1.7332767681382597,-9.595758009332418,1.04286450035125,0.1302875876426696,-0.3569454252719879,-0.1786047965288162
16.946938720703123,-5.056159353974461,-5.603254307064414,7.30452046456635,1.704725650306046,-9.60142319548726,1.0377758719753474,0.0447178781032562,-0.3323294520378113,-0.3352793157100677
16.956997802734374,-4.04137323937714,0.12184066529572,6.422613126629591,1.6625841062776745,-9.607369536671042,1.051036627825722,-0.2196871489286422,-0.1678726077079773,-0.4792117178440094
16.967055908203125,-2.8391818081617357,3.324107013064623,4.806707623288035,1.6091608513869344,-9.612927755320072,1.0828786769621073,-0.4127330183982849,0.0217513889074325,-0.6054878830909729
16.97711376953125,-2.6041519860595463,4.686082179000973,3.505519226747751,1.5456157231934369,-9.617987961319088,1.1295054035805163,-0.5753922462463379,0.1442906111478805,-0.7262766361236572
16.9871728515625,-2.956543282216787,5.326758502107858,2.99312967633605,1.471389918770641,-9.62270505296886,1.1869969308234751,-0.6533467173576355,0.2277002185583114,-0.8449031114578247
16.997230712890627,-3.4260002843528983,5.175348043456673,2.3306923339284955,1.3868886579185724,-9.62766472120285,1.2469931343637406,-0.6375719904899597,0.1917552649974823,-0.94463849067688
17.007289794921874,-3.9703316179484127,4.637869059973955,1.696347990322113,1.295110245670378,-9.63307271772623,1.3026888642311096,-0.5396108627319336,0.0634533241391182,-0.9675821661949158
17.01734765625,-4.02682741215229,3.8932255819141854,1.3248681089438497,1.2049612612549214,-9.638561378270389,1.3478089856788515,-0.375568151473999,-0.1441725790500641,-0.863328754901886
17.02740576171875,-3.790797473096848,3.016267390817404,1.0814737786002455,1.127996314191818,-9.643417586129903,1.3793164690986277,-0.2122687399387359,-0.4204834401607513,-0.629501461982727
17.03746484375,-3.5441543700903653,2.263375139850378,1.0607109765566884,1.073487529086694,-9.646495093879103,1.4011271727599204,-0.1163477972149849,-0.7518466711044312,-0.3189915120601654
17.047522705078126,-3.399454807254672,1.651231083744764,1.0800288404889404,1.044608056082949,-9.64666869688034,1.4216126191668212,-0.1172768846154213,-1.0361994504928589,-0.0198494456708431
17.05758203125,-3.486654367280006,0.9469096792012452,1.1445837302468715,1.0361889681100844,-9.643398296907543,1.4496834061361847,-0.2344362586736679,-1.21795916557312,0.1675034016370773
17.0676396484375,-3.9615176123738287,0.2344821250915527,1.2046281568430364,1.0344563721638171,-9.636363575965165,1.4969291414357722,-0.4909178614616394,-1.1753299236297607,0.1102009043097496
17.07769775390625,-4.044290588128567,-0.7389893978208303,0.7901958534449338,1.0000633233703673,-9.62850234107077,1.5691399527743457,-0.7465085983276367,-1.0042569637298584,-0.5466659069061279
17.087757080078124,-4.183091740575432,-2.746546194562316,-0.6921005131348967,0.8852283721182495,-9.626239072313904,1.6499308148011564,-0.7108356952667236,-0.7807580828666687,-1.5372974872589111
17.097814697265626,-3.842326584804058,-4.877417820805311,-2.5779987231493,0.6792870626606047,-9.631593292823434,1.715038662266731,-0.512504518032074,-0.5226157307624817,-2.442701816558838
17.1078740234375,-2.68210207170248,-5.243925905120372,-3.8780607460081575,0.410752920765616,-9.640077628052234,1.752308946996927,-0.2061022967100143,-0.1126544848084449,-2.9102988243103027
17.117931884765625,1.3304513159036635,-3.52338864543736,-6.071445234787464,0.1303110450644046,-9.646964464956522,1.7576919552095234,0.0854429975152015,0.4362355172634125,-2.8620505332946777
17.12798974609375,3.3756361247718334,-2.206829661285877,-5.602593212807178,-0.1132374711939133,-9.65060311371982,1.7388003538653254,0.2947332859039306,1.1526294946670532,-2.3979148864746094
17.138049072265623,4.257830462956428,-0.9166735308915376,-4.478405350987613,-0.2891414793821983,-9.652380060264468,1.7083140301868318,0.3876706957817077,1.8067082166671755,-1.741281509399414
17.14810693359375,3.7896740220248697,0.2697007379889488,-3.7135391691103576,-0.3932002764075994,-9.6548210236758,1.6733800794497131,0.4823679327964782,2.255948781967163,-1.13668954372406
17.15816455078125,2.427423546278477,1.373380941569805,-2.7713866213083267,-0.4441270017748698,-9.659712302848696,1.631895830286294,0.5752941370010376,2.540838718414306,-0.7668225169181824
17.168223876953125,0.869525410747528,1.986917328816652,-1.7026218098945916,-0.4705909746021032,-9.666019294038414,1.5865028832465409,0.594243586063385,2.648612260818481,-0.679216742515564
17.17828173828125,-0.0722820499438792,1.915935328620672,-0.6958170494399964,-0.5002313124431297,-9.671204003199934,1.545309725984186,0.5010819435119629,2.619553565979004,-0.8015866279602051
17.1883408203125,-0.0226829564511775,1.917777741616964,-0.6671680241912603,-0.5498310635229572,-9.673045831674337,1.5166607007354498,0.3594560325145721,2.366517305374145,-1.01574969291687
17.19839892578125,-0.7435024182658642,1.6144588116645813,0.1486417245902121,-0.6277760711319744,-9.671096451172232,1.4987185090705752,0.2795974314212799,1.82748818397522,-1.2383270263671875
17.20845654296875,-0.4977682467978447,1.5947025563150643,0.4185369622379541,-0.7347962569799273,-9.666153734073042,1.4818604593805969,0.2719356119632721,1.088762640953064,-1.3997122049331665
17.218515869140624,0.2785563176829367,1.530916605103016,1.210268793078512,-0.8630405057076365,-9.658333415710926,1.4636054023742675,0.2196364551782608,0.4028353095054626,-1.4451481103897097
17.228573974609375,0.9439409655887632,1.2692653180569409,2.006810216157884,-0.9984088341616092,-9.647474168044328,1.4490699504129587,0.0949211418628692,-0.0686369389295578,-1.376489758491516
17.2386328125,1.252704059356451,0.779283414286375,2.3718410675272343,-1.1277568794127553,-9.633490066355469,1.4472098556295037,-0.1055951714515686,-0.2894710302352905,-1.2202130556106567
17.24869091796875,1.6188940176330506,0.3489233277857303,2.402162409902364,-1.238665304870903,-9.617178398501872,1.464922184061259,-0.3379339873790741,-0.2973102927207947,-0.9647693037986756
17.258748779296877,1.8094177585326132,0.0649532414257526,2.1441201071336864,-1.320252577972412,-9.600012159645557,1.5056909784317016,-0.5558969378471375,-0.1092660799622535,-0.6576775312423706
17.268807861328124,1.8595967708051204,0.0480558826386928,2.082571267323941,-1.3704310057230291,-9.583113631814715,1.5672395259805023,-0.6996972560882568,0.1858210116624832,-0.4065462052822113
17.278866943359375,0.5981389116287231,-0.2255383556574583,0.606888035273552,-1.3986999456129967,-9.566596212255954,1.6414171073473989,-0.7467848658561707,0.3688009679317474,-0.2945981025695801
17.288924560546874,-0.1200818389296531,-0.3899053265154361,-0.2540624393522739,-1.4223828728869556,-9.549622865623236,1.7181167545378206,-0.7338640689849854,0.325380802154541,-0.3465220034122467
17.298983642578126,-0.5824902377285063,-0.3231733849793672,-1.3569026849776509,-1.46096131760627,-9.530614213770628,1.7898042726546526,-0.6864893436431885,0.1466723084449768,-0.5595783591270447
17.309041748046877,-0.516433272844553,-0.3459638934582472,-1.4218065343037247,-1.5270182824902236,-9.50782195172608,1.8547081219807269,-0.6511876583099365,-0.0099195633083581,-0.8466235399246216
17.3191005859375,-0.4356006175026297,-0.3231190244436264,-2.490287706470489,-1.619522086403519,-9.480686107519269,1.9141826397344468,-0.6037301421165466,-0.0381543934345245,-1.0549980401992798
17.329158935546875,0.4682300906896591,-0.5048825357824563,-3.3920030299440023,-1.721145893100649,-9.451554705581067,1.968799926715344,-0.527886688709259,0.1372625976800918,-1.067366600036621
17.339216796875,1.8390556486882268,-0.6487561691880226,-3.7941786399677393,-1.808978782593459,-9.42409854337871,2.020972889284044,-0.4721736311912536,0.427099198102951,-0.8836671113967896
17.349275634765625,2.7944378265500065,-0.5283727169632911,-3.706055243095755,-1.8683304046198723,-9.400979533597829,2.073957898887992,-0.4242693781852722,0.6808702945709229,-0.6085520386695862
17.359333740234376,3.0103569977298377,-0.4454769916117191,-3.5642087316036224,-1.8973523548342288,-9.383617479908466,2.125592516796291,-0.3612251877784729,0.8232596516609192,-0.3521958887577057
17.369392578125,2.8057401418089865,-0.3612719372272491,-3.363143138423562,-1.903724812475592,-9.371755777201056,2.171728245027363,-0.2778582870960235,0.822072446346283,-0.1763573139905929
17.379450927734375,2.3326973901405927,-0.3569745322942733,-3.232277747412026,-1.9003944990091024,-9.363632676500082,2.209354795849323,-0.2256129086017608,0.6639915108680725,-0.1145024672150611
17.3895087890625,1.7160417018294334,-0.3666916241884231,-2.99917187910974,-1.9005442827433348,-9.356161902227996,2.2406590117819607,-0.228463664650917,0.379762589931488,-0.1495629698038101
17.399567626953125,1.0902721482142803,-0.7093868712395429,-2.7973089980721477,-1.9137277355737985,-9.347308733686804,2.2662455807201565,-0.2228838056325912,0.0626296624541282,-0.2388880550861358
17.409625732421876,0.4972080556318163,-1.5344611458420752,-2.7111083859562872,-1.942109342058003,-9.336862158474323,2.285090274182707,-0.2082942128181457,-0.168963074684143,-0.3305330276489258
17.419683837890624,0.0418355468191206,-2.4701322226703164,-2.4998902320742604,-1.9805404872611163,-9.325051309171318,2.3002733763977883,-0.2169721126556396,-0.2934469580650329,-0.3648672699928283
17.429742431640626,-0.098321258020401,-3.3645892455786464,-2.306669507175684,-2.020996270159632,-9.312409269741178,2.316246313816309,-0.244009330868721,-0.2160272598266601,-0.3626387417316437
17.43980078125,0.179788411873579,-3.644438452616334,-2.182689784024656,-2.056542799837142,-9.299064634999633,2.338462675669044,-0.2774138152599334,-0.0026254383847117,-0.3347781896591186
17.449858642578125,0.692540073595941,-3.6315462378174064,-2.2282341222338378,-2.082524213311821,-9.28622035099566,2.3663497766345736,-0.273494154214859,0.1813646256923675,-0.2586700916290283
17.459917724609376,1.5542654781170189,-3.3290473920762538,-2.5472990489810705,-2.094756941288709,-9.27612741152644,2.394968406745046,-0.2337012290954589,0.2744746208190918,-0.1171758100390434
17.469975830078123,2.6686004928335545,-2.849856346911192,-2.929416790360212,-2.090700797765702,-9.270491451466082,2.420200463157147,-0.1843156665563583,0.2629635035991668,0.0699646770954132
17.480034423828126,3.670867609858513,-2.665790988370776,-3.2540801216363904,-2.0678002530410886,-9.27050080381632,2.4397521358452736,-0.1286793053150177,0.2046871185302734,0.3033060729503631
17.4900927734375,4.54755692088604,-3.013375761029124,-3.344305751484632,-2.0233203291930257,-9.276959186175466,2.452465633076429,-0.0778307691216468,0.1127130836248397,0.5712465047836304
17.500150634765625,5.18613305684328,-4.0027538781255485,-3.0048794431015846,-1.9551576242014763,-9.29015242974758,2.457804071494937,-0.0127899833023548,0.010775270871818,0.8622708916664124
17.510209716796876,5.4286593721807,-3.867404327437282,-2.871211854150891,-1.860401072925329,-9.310430078622698,2.454620473022759,0.0776194706559181,0.0006329184398055,1.1676065921783447
17.520267822265627,5.42351207242012,-3.4153637395262715,-2.912917490980029,-1.7359928952291608,-9.337501040899753,2.4429056314401327,0.1812771558761596,0.0759894549846649,1.4653085470199585
17.53032568359375,4.9104386313974855,-3.072693626916408,-3.281543298101425,-1.582947090461105,-9.37012320756316,2.4218755567625165,0.3012227118015289,0.1604667156934738,1.7206515073776243
17.540384765625,4.076736229181289,-2.862708229699731,-3.727028180758655,-1.4048071764469146,-9.40712636578977,2.3880707561858,0.4480872750282287,0.1171458736062049,1.9785001277923584
17.550442626953124,3.1799007867038247,-2.461460840436816,-3.83565514421612,-1.2030384764987974,-9.447897936639189,2.3367354134850205,0.6129425764083862,-0.1381063312292099,2.2813074588775635
17.560501708984376,2.2252643126428127,-1.6017255868196487,-3.123815326866507,-0.977436700216308,-9.490611289206146,2.267888525621593,0.7213196158409119,-0.5751416683197021,2.6212246417999268
17.5705595703125,0.8729974707722663,-0.794475722721219,-2.0533597858868538,-0.7306922557272016,-9.531267124721408,2.188931454893201,0.7467724680900574,-1.1074936389923096,2.9124748706817627
17.58061767578125,-1.0657610995531082,-0.6170785898983479,-1.239923195977509,-0.4726635796250775,-9.565610708349942,2.108569485802948,0.7312643527984619,-1.6426233053207395,3.052828550338745
17.5906767578125,-2.9136615873456,-0.8373685235083103,-0.4803432839401066,-0.2179541110735386,-9.591324410799146,2.032085088798404,0.7041285037994385,-2.099522829055786,3.0234904289245605
17.600734619140624,-3.153523067387938,-0.8206254785001278,-0.4116569934658706,0.0219073644022224,-9.608066871285438,1.963398798324168,0.6692448258399963,-2.379701852798462,2.868912935256958
17.610792724609375,-4.913747609815001,-1.1967056932806968,1.3180097674816846,0.2417622356297448,-9.616856911462545,1.9047355969533324,0.5784716606140137,-2.2899482250213623,2.617419719696045
17.6208515625,-4.813979075595737,-1.269563424220681,2.623922269934416,0.4427652484349906,-9.617770519176124,1.8635602676086127,0.3982278406620025,-1.6254682540893557,2.319610357284546
17.63090966796875,-3.920441505619883,-1.8129665370553727,3.68295786062479,0.6361955974962562,-9.611565819317102,1.83941790612936,0.2219886630773544,-0.4770274758338928,2.109499454498291
17.640967529296876,-3.0056209091186523,-2.715171982133388,4.529881563463807,0.8396166677612811,-9.599553894484044,1.8204392110235987,0.1433934420347213,1.0354008674621582,2.0135843753814697
17.651026611328124,-2.238967259302735,-3.5104888318538663,5.3259764118194575,1.0649107663340869,-9.583549100622534,1.7865977316983044,0.2194002121686935,2.5043654441833496,1.9933794736862185
17.661084716796875,-1.352092800477892,-3.627000995603204,6.942545932027697,1.3079497073687611,-9.565497895625231,1.7207231376439331,0.4004685282707214,3.3939151763916016,1.9455586671829224
17.671143798828126,-0.3963075947731733,-3.270757700192928,8.952915448102354,1.54911584026888,-9.545852699434755,1.627061395867169,0.5131016373634338,3.2985334396362305,1.869495153427124
17.68120166015625,0.2024666921496391,-2.5407529883384705,8.516209207445383,1.766914103193581,-9.52452758733332,1.527017697968334,0.5875204801559448,2.336825370788574,1.7321511507034302
17.691259521484376,0.0184434191852808,-2.5628321336776017,8.605271638733148,1.9509370838969944,-9.5024478574723,1.4379555589415132,0.4716208875179291,1.6400518417358398,1.485422968864441
17.70131884765625,0.3224871562808752,-1.4452157592028378,7.048542546981572,2.0922148555904627,-9.481621342542766,1.3754555558867751,0.2220262140035629,1.254713535308838,1.0240486860275269
17.71137646484375,-1.3717451570615171,-0.3574082475364208,4.748086215232313,2.178890099480748,-9.46719709587097,1.3397699099995195,0.0363739132881164,1.026027798652649,0.4726763367652893
17.7214345703125,-3.0604610450699923,-0.1902279728233814,2.5433491423115133,2.2162052462659774,-9.46214448865652,1.3140088612772522,0.0822154358029365,0.9419217705726624,0.0873635560274124
17.731493896484373,-2.68010709849298,-0.2589472887843847,0.9480373680569232,2.2310446496099234,-9.463756015506386,1.2767743785127996,0.2893751561641693,0.9313098192214966,-0.0350069999694824
17.741551513671876,-2.734650589585304,-0.1639993065893649,-1.0948904556646943,2.2345617178201675,-9.472063825124502,1.207118731549755,0.8283883333206177,0.7015652656555176,-0.0796426460146904
17.75160986328125,-3.4580133792072534,-0.6325654973655939,-4.652997947783768,2.2405619811482724,-9.485629409140348,1.0830935618218034,1.388131618499756,0.8562515377998352,0.0478801093995571
17.761668701171875,-1.5270979235976934,-0.812053464987874,-5.015139945843815,2.26810319128558,-9.496630111104247,0.916566198059544,1.5521056652069092,1.1619923114776611,0.3242451250553131
17.7717265625,-1.163860531516373,0.0478045382261276,-2.341700196285545,2.3216065256752074,-9.498315872234103,0.7500049320276826,1.3813493251800537,0.9635413289070128,0.5878148674964905
17.78178466796875,-3.112206722137332,1.4397984103292223,-1.1547981772039084,2.3878107900753616,-9.49164823103845,0.6143070062931627,1.1155083179473877,0.4008436203002929,0.6759961247444153
17.79184375,-4.648050846770405,2.596278476205468,-1.4092163711912928,2.451670098784566,-9.481254262796044,0.515281289797835,0.9055039286613464,-0.1047927364706993,0.6381180286407471
17.801901611328127,-4.4485579097345465,2.959398671647906,-1.5966457993373273,2.5100021685048937,-9.469681898424028,0.4420420121943578,0.7802003622055054,-0.3912806808948517,0.6220865845680237
17.811960693359374,-3.455098953065276,2.9358669894129035,-1.2391449050813912,2.569394268672168,-9.45632557324469,0.3827688622316345,0.6997131109237671,-0.504114031791687,0.6638895273208618
17.822018798828125,-2.752252881771326,3.033593204149604,-0.5325596472591161,2.632542798763513,-9.440776706457138,0.3344393868159502,0.6506190896034241,-0.7120720744132996,0.7128698229789734
17.83207666015625,-2.9569957021594044,3.0827070714086293,0.0482729411891661,2.700217281846702,-9.422852342709898,0.2984372953906655,0.6060488820075989,-1.067681074142456,0.7759998440742493
17.8421357421875,-3.277156169058382,2.9594238060891627,0.925078663404286,2.773774977749586,-9.402069666922092,0.2786063491034321,0.5326095819473267,-1.4275795221328735,0.8498407602310181
17.852193359375,-3.1862928258284926,2.9349919601440426,2.1887499608464536,2.851553213956952,-9.37883550632894,0.2765296158946119,0.4416467249393463,-1.647124409675598,0.8861987590789795
17.862251708984374,-3.2731457643732425,2.915561868008971,2.872819873869419,2.927781590373814,-9.355065923684837,0.2849827157349325,0.4150159060955047,-1.674910545349121,0.8273466229438782
17.872310791015625,-3.3618697574868794,3.101550303566456,3.016343670924008,2.992862842093408,-9.334255190846324,0.2912458129839971,0.440643846988678,-1.4252241849899292,0.6552855968475342
17.88236865234375,-3.4116952801465987,3.863963831594586,3.062816668285429,3.039845834803581,-9.319151729738712,0.2883172852514311,0.4613898694515228,-1.1724587678909302,0.4173172414302826
17.8924267578125,-3.598234335324168,4.153704902571439,2.9268235589966176,3.061334905295074,-9.312461876711248,0.2769176653641276,0.452877402305603,-0.9131205081939696,0.1036850586533546
17.902485595703126,-3.624056758844852,4.263918258437514,2.578690504805744,3.0536382133126256,-9.31538448615968,0.263226865799725,0.3868382275104522,-0.7913613319396973,-0.2112627625465393
17.912543701171874,-3.110120271252096,4.066149368715286,1.9550607396982609,3.020636399681866,-9.326359469160437,0.2552364150350913,0.3153006434440613,-0.8462072014808655,-0.436914324760437
17.9226015625,-2.1929776615440844,3.664398121583461,1.5480077328965067,2.969746462661028,-9.342696271455289,0.2549759740006178,0.2585662603378296,-0.9150943756103516,-0.5891978740692139
17.93266064453125,-2.1299705857500437,3.684030458292365,1.5421265659034251,2.906739679127932,-9.36232977720797,0.2608567756675183,0.2180422842502594,-0.9859623908996582,-0.69450443983078
17.94271875,-0.4932692548781633,2.733393867522478,0.8162808003593236,2.8340505827531217,-9.38433644183278,0.2697887633322738,0.2029392421245575,-0.9891051650047302,-0.7874245047569275
17.952776611328126,0.782140557283163,2.2223779435515403,0.9029569210324436,2.754694137443602,-9.407676400887963,0.2787311627931892,0.163349449634552,-0.907455325126648,-0.8266065120697021
17.9628359375,2.129886122336984,1.5420044008284806,1.121600694870576,2.67527660959661,-9.430150683024523,0.292474697191827,0.0189094468951225,-0.7556061148643494,-0.7889220118522644
17.9728935546875,3.2728961735263464,0.5137509018927813,0.5278979025257751,2.603820854409039,-9.449359825885296,0.3163573848215863,-0.1052853614091873,-0.7555634379386902,-0.6573094725608826
17.98295263671875,4.434193284295499,-0.5606827489376067,0.5740104690769687,2.5468492593869567,-9.463540326929092,0.3540418763758614,-0.2721377313137054,-0.7859607338905334,-0.4856673777103424
17.993010986328127,5.111984117048978,-1.7404928369969128,0.147065488249436,2.505767015153169,-9.472301725533605,0.4086885355817153,-0.4177558124065399,-0.9111343026161194,-0.3099137246608734
18.003068603515626,5.929584110248088,-2.6673919938266275,-0.6407382824271917,2.4801988586544987,-9.475850357925893,0.4767354687064886,-0.4845961034297943,-1.019868016242981,-0.130506694316864
18.0131279296875,6.899335151332616,-3.6418285623788833,-1.7229066191628577,2.4729165926918384,-9.474058213812112,0.5452588237039745,-0.4034652411937713,-1.0065619945526123,0.0934704542160034
18.023185791015624,6.730752024084329,-4.418360632130503,-2.447563247987628,2.4866250923097133,-9.467112340196966,0.6007358327867462,-0.2469978779554367,-0.9478597640991212,0.3028521537780761
18.03324365234375,5.240098455786705,-4.793136778575182,-2.9968080725878474,2.51427122412622,-9.457301140278576,0.6389681309495121,-0.0577268972992897,-0.9383718371391296,0.3836645781993866
18.043302734375,3.476462935872376,-4.412349409016967,-3.488915297949314,2.5430086583107707,-9.448281967520714,0.6583706044252962,0.1715883016586303,-1.0004980564117432,0.3452719151973724
18.05336083984375,2.032299316070974,-2.993426613456011,-3.220649268938601,2.56531576718688,-9.442205277955532,0.6590032032404095,0.367757499217987,-1.0986090898513794,0.2725136876106262
18.06341845703125,0.970474386923015,-1.3180898469805715,-2.2463459713771936,2.580724640981853,-9.43860871476829,0.6503112896755338,0.4216611981391907,-1.1828712224960327,0.2182653695344925
18.073477783203124,0.959075625552237,-1.3206027065843342,-2.2374133078590037,2.592123694613576,-9.436095270642635,0.6413784800268709,0.4042180776596069,-1.1306400299072266,0.1824178695678711
18.08353564453125,0.3275347950592637,0.0446896210759878,-1.572526380342245,2.6007228883937,-9.434448672479393,0.6307070830825716,0.3901461958885193,-0.933741807937622,0.1387982219457626
18.09359350585937,-0.0530476995766162,1.064026823106408,-1.140810714514181,2.6052666693031785,-9.434155827012658,0.6161811296019702,0.3566059172153473,-0.7018988728523254,0.0584649518132209
18.10365283203125,-0.5801397290796041,2.0931886690586805,-0.4208276304583996,2.6003970174402,-9.43635479836166,0.6029366307666525,0.2334347069263458,-0.467046171426773,-0.0923477336764335
