seconds_elapsed,acc_z,acc_y,acc_x,grav_z,grav_y,grav_x,gyro_z,gyro_y,gyro_x
2.019684814453125,2.858968750910461,-1.2421136917591094,-0.4123382537283003,-2.295433973542601,-9.301502675801515,2.0936665157034997,-0.3456211388111114,0.5567041039466858,-0.5678339004516602
2.02974365234375,3.284967427331209,-1.1023223592311142,-0.526775657030195,-2.3311777793578803,-9.281630100595953,2.1418141682788727,-0.428140789270401,0.4630510807037353,-0.4372926950454712
2.039802734375,3.1456805371940133,-1.2789683814257382,-0.951721025005728,-2.359035361967981,-9.261953340223432,2.1958080626644194,-0.5236030220985413,0.3697060644626617,-0.3582613468170166
2.049861572265625,2.9938743572235107,-1.5738251879811287,-1.275321695486456,-2.3829037288114425,-9.241232039234042,2.2564951710782943,-0.6037956476211548,0.313088059425354,-0.3209424614906311
2.0599208984375,2.746688233381509,-1.6597382153272628,-1.866896718554944,-2.405215075471252,-9.219364490818975,2.321346121173352,-0.6314465403556824,0.2904408574104309,-0.3098461329936981
2.0699794921875,2.589218036299944,-1.6542448786079882,-2.5861118869781494,-2.426860943959653,-9.196875595635175,2.387093873977661,-0.6427149176597595,0.2634443640708923,-0.2990435659885406
2.080038818359375,2.5747569647490978,-1.5997680230110882,-3.0920962465226647,-2.4471160887420176,-9.174139447692037,2.452993748603761,-0.6626081466674805,0.1911220550537109,-0.2586409747600555
2.09009765625,2.7837866686761377,-1.803808248087764,-3.515732577726245,-2.4637124187558888,-9.151908911183476,2.5185475862711666,-0.6895662546157837,0.0732492059469223,-0.1725132912397384
2.100156982421875,3.10529971922785,-2.377320083460212,-3.848591782678664,-2.475175185273588,-9.131008161973952,2.582357795141637,-0.6995144486427307,-0.0909344851970672,-0.0703088268637657
2.110215576171875,3.121689420753717,-3.5046623176574707,-4.296138274040818,-2.4804922886431218,-9.113079706573483,2.6399492756277323,-0.6542785167694092,-0.2850490808486938,0.0645552426576614
2.12027490234375,3.1615275101453064,-4.647484445059299,-4.860221479071677,-2.476934888422489,-9.100318424677848,2.686884337542951,-0.5572859048843384,-0.4052316844463348,0.2215756326913833
2.13033251953125,3.381373499380052,-5.154769365808368,-5.345814500233531,-2.4596061524808404,-9.094921534070371,2.720871947340667,-0.4222154319286346,-0.4519810676574707,0.4195944368839264
2.1403916015625,3.636522857186198,-4.972960261762142,-5.673969180756807,-2.422512539491802,-9.098808604636789,2.741071562543511,-0.2743491530418396,-0.4967967271804809,0.6798466444015503
2.15045068359375,3.741819214916229,-4.466735663720965,-5.74598929182887,-2.3609636996820567,-9.113475427892803,2.746054611653089,-0.120059460401535,-0.5660120248794556,0.9802983403205872
2.160509521484375,3.5201544858217235,-3.8173943881213663,-5.606585497313738,-2.2739722294494507,-9.13882731129229,2.735189518767595,0.0289573445916175,-0.7014886140823364,1.2863314151763916
2.170568603515625,2.966649957950413,-3.197466838532686,-5.313717818748951,-2.1639937052525577,-9.173670661136509,2.7076287271469828,0.1592719405889511,-0.9261795282363892,1.574038028717041
2.180627685546875,1.853009355238825,-2.0137726025164127,-4.229421530073881,-2.033771288319677,-9.216080062320827,2.664211902485788,0.2620587348937988,-1.1734446287155151,1.8332573175430296
2.190686767578125,1.458568869511783,-1.6005132884204387,-3.632131636489928,-1.8856347367726265,-9.263028275978565,2.609807819864154,0.3498748540878296,-1.339864730834961,2.060917615890503
2.20074560546875,1.1799990347601472,-1.2640157269656658,-2.920278959658742,-1.7185450629524883,-9.312818435063958,2.547232121224701,0.4211944341659546,-1.4205148220062256,2.2686092853546143
2.2108046875,0.8198116778992116,-1.0909323656886816,-1.8295368558451528,-1.5320862334042786,-9.363051077219843,2.481208912479877,0.4524863064289093,-1.4202810525894165,2.449435234069824
2.22086376953125,0.2642692144595086,-1.1423708765029907,-0.5600802529998123,-1.3269953302308917,-9.410822882220147,2.417831395938247,0.4298644363880157,-1.341611385345459,2.5880374908447266
2.230922607421875,-0.6096950555182993,-1.5413205102175471,0.6620848757080733,-1.1072468100212514,-9.45330301055312,2.362091534668207,0.3558815419673919,-1.2539312839508057,2.6643435955047607
2.240981689453125,-1.712269197553396,-1.9418454304248092,1.8155226512789728,-0.8808008379995822,-9.487325691664218,2.320610500375181,0.2171349376440048,-1.078927755355835,2.626967668533325
2.251041748046875,-2.4862509983003136,-1.8233108209371565,2.6310548982933164,-0.6570361409511417,-9.51039034090936,2.30025233360976,0.0397588312625885,-0.7692314386367798,2.4894165992736816
2.2611005859375,-2.4688287388563155,-1.6082622951120138,3.120432698690891,-0.4384802280595525,-9.52313058001697,2.299591239352524,-0.092673160135746,-0.3387979567050934,2.346930742263794
2.27115966796875,-2.0850632302701477,-1.48271693007946,3.5277965250074863,-0.2189075758734718,-9.528365558061004,2.309267122453451,-0.1075154915452003,0.1932175010442733,2.2785403728485107
2.281218505859375,-1.5738380474627016,-1.0479904650628566,4.0287566266492005,0.011022969736281,-9.529742107111216,2.313932337785512,0.0264293923974037,0.7508134245872498,2.294086217880249
2.29127783203125,-1.0355769736915823,-0.161132811242342,5.095646730232239,0.2558157127603888,-9.52909913303256,2.302436545781046,0.1756505668163299,1.2458481788635254,2.322112798690796
2.30133642578125,-0.667256286996603,0.8203028224170208,6.313341435527801,0.5098373817108571,-9.525171730455757,2.27630564083308,0.2412096858024597,1.455713987350464,2.3086729049682617
2.311395751953125,-0.1299200729854404,1.30787298887074,6.792643539851904,0.7610912664484232,-9.515793076735736,2.2451678675085307,0.1991884708404541,1.4724059104919434,2.2277629375457764
2.32145361328125,-0.195045163846761,1.027502388307452,5.655937849503755,0.9988981520485132,-9.50058089455664,2.2161969168290496,0.1347684860229492,1.4795973300933838,2.0364298820495605
2.331512451171875,-0.6626075844079256,0.4612655123740434,3.970199516001344,1.2132741854395717,-9.481869179823994,2.189183383827656,0.0930852219462394,1.451724648475647,1.7626278400421145
2.341571533203125,-2.160002297528833,0.3312257585316896,2.432660570149124,1.396251967938989,-9.462712059411404,2.1628600250475105,0.0646034255623817,1.343505620956421,1.413156509399414
2.351630615234375,-5.715951880961656,0.8268968138545751,0.3464538689322769,1.5298396235212683,-9.446920616039634,2.1414207850471136,0.0664199665188789,0.7223975658416748,0.8882243633270264
2.361689453125,-5.154416314586997,0.2253103921204805,-0.7499471374258398,1.6005233714230358,-9.43834801800549,2.1275107715077697,0.1113559752702713,0.0832035914063453,0.4714941680431366
2.37174853515625,-3.0671266404390334,-0.7200280922412872,-1.847724838964641,1.6364412186309694,-9.435877243977783,2.111087313842773,0.2659159898757934,-0.1696923077106475,0.3408256471157074
2.3818076171875,-3.1030449260383843,-0.719269382828474,-1.8159461373880503,1.6723595042303203,-9.436634199824928,2.0793081738747654,0.4491817355155945,0.0046201064251363,0.4925253987312317
2.391866455078125,-1.1814970182329416,-1.272929685783386,-2.6301065115273,1.7359041940324007,-9.437232165718076,2.0237750872232017,0.6299570798873901,0.4601109325885772,0.7549008131027222
2.401925537109375,-0.5304309646673501,-1.3363935654342174,-3.200777570515871,1.8345223891727624,-9.43556803189814,1.9429240194417532,0.8055678009986877,0.9541330933570862,1.0094252824783323
2.411984619140625,-0.8881874411195516,-1.3243027301460504,-3.82156495180428,1.9588444960206743,-9.43224677852094,1.83467670295164,1.015110731124878,1.2235496044158936,1.1414296627044678
2.422043701171875,-2.012544083634764,-1.3027835567772388,-4.110772354295849,2.0873628855146467,-9.428027699521184,1.7104356985159217,1.0632240772247314,1.107818365097046,1.1003819704055786
2.432102294921875,-3.3010113841593265,-0.7283271340310573,-2.925731964367628,2.200276878641546,-9.422788629823923,1.5938075071714817,0.9579746723175048,0.7573249936103821,0.9424682259559632
2.44216162109375,-3.795260589985549,0.0225362414568662,-1.5650883392959831,2.2905048465773463,-9.41723450282812,1.496554170643538,0.8367862105369568,0.32597416639328,0.7823293805122375
2.452220703125,-3.494343168216944,0.3404974447458982,-0.9231848124817014,2.3585940479412675,-9.412577032411098,1.418036368115246,0.7939998507499695,-0.1742894500494003,0.634952187538147
2.462279541015625,-3.488258295345306,0.3886901055067777,-0.7182251344725489,2.4080245799340307,-9.40974210124612,1.352239369341731,0.7765322327613831,-0.5388547778129578,0.526070237159729
2.472338623046875,-2.841071859692037,0.5000479552328586,0.0088398706682026,2.4478240908809004,-9.407674647322295,1.2939051076643169,0.8019198775291443,-0.7805811166763306,0.5169169306755066
2.482397705078125,-2.1625424835309386,0.4253869742631912,0.5741344973154365,2.488453184519708,-9.404541609993576,1.2379770303457975,0.8196681141853333,-0.9277850389480592,0.5769901871681213
2.49245654296875,-2.00589938492328,0.815291131734848,1.112188431141898,2.53531664250344,-9.398803358602525,1.1853473369855434,0.8406005501747131,-1.184541940689087,0.6854817867279053
2.502515625,-2.538596394826472,1.126334518459439,1.3641988333351909,2.589772455312312,-9.389472051155566,1.140734434407577,0.8148479461669922,-1.4736663103103638,0.7938560247421265
2.51257470703125,-2.882243535774946,1.4568290401071309,1.6364175454944372,2.6515023507773874,-9.376249581488969,1.1071879925061017,0.7662506103515625,-1.6730960607528689,0.8866536021232605
2.522633544921875,-2.84418093162328,1.6930945414841174,1.6112527090996502,2.719383170087635,-9.35977658559382,1.081625388965383,0.721716046333313,-1.695286989212036,0.9425928592681884
2.532692626953125,-2.449679801750183,2.029158387696743,1.3358642808631065,2.790853830583393,-9.34135011754334,1.0586367275658994,0.7056907415390015,-1.5356364250183103,0.9370630979537964
2.542751708984375,-2.1336463516533373,2.143573286905885,1.11308464932926,2.860436193114519,-9.323184930777549,1.0327186616510151,0.7048075795173645,-1.3471072912216189,0.8601151704788208
2.552810791015625,-1.948765000554919,2.3195821802407504,1.1060431333199143,2.9218583378046747,-9.307359000614284,1.0030990378044544,0.701920211315155,-1.1707921028137207,0.7194923162460327
2.562869384765625,-1.7677359409704805,2.443357612991333,0.9861252527803182,2.970672929856181,-9.29541429579854,0.9699375766325742,0.6976050734519958,-1.041676044464111,0.5593874454498291
2.5729287109375,-1.5017597764626145,2.4560347237348554,0.8913233279924839,3.006365590006113,-9.287588716739416,0.934255218680948,0.7036528587341309,-0.9404534101486206,0.4099803566932678
2.582987548828125,-1.525983240354061,2.451878773099184,0.9290407719682902,3.0305896384194493,-9.283433350625634,0.8965379208356141,0.6858791708946228,-0.8782790899276733,0.2930386364459991
2.593046630859375,-0.9266837605133652,2.5107272679090498,1.252433717982471,3.0460017270848154,-9.281679784956571,0.8617960586044937,0.6362103819847107,-0.9013351798057556,0.2047508507966995
2.603104736328125,-0.7795067016482353,2.7265695744603877,1.1972888269308954,3.052651540362835,-9.28204335757196,0.8338919334389269,0.5673961639404297,-0.9570841789245604,0.1090128347277641
2.61316357421875,-0.3572761455893516,2.569888481929898,1.2397601143702863,3.0519501140952108,-9.283829071944952,0.8164101258274167,0.4686110019683838,-1.0658369064331057,0.0577861331403255
2.62322265625,0.1119315579608082,2.2247277215480805,1.233177521109581,3.04646905233562,-9.28612565844953,0.810722289449349,0.3631478250026703,-1.087542176246643,0.014220567420125
2.633281494140625,0.3187263424426317,1.8875626360952853,0.9921476548749952,3.0365979389235376,-9.289087430864573,0.8138284387711435,0.2753636538982391,-1.0650901794433594,-0.0397550463676452
2.643340576171875,0.4895511111378669,1.2334668594449758,0.6448851729735732,3.021844898688793,-9.293097835549712,0.8229099361754953,0.2352945059537887,-1.072830080986023,-0.0860835388302803
2.6533994140625,0.7112222699731588,0.5737590881317853,0.4800652707163244,3.002484072397649,-9.298230522263047,0.8356981060780584,0.1893089115619659,-1.1042340993881226,-0.13115194439888
2.66345849609375,1.0679457501158118,-0.2137462110549211,0.2868334399018436,2.979901069189608,-9.30395416060686,0.8526569127287715,0.1653540879487991,-1.0904240608215332,-0.1509221792221069
2.673517578125,1.3089981935083863,-0.9689531687051056,0.0048765930604189,2.9562720640599727,-9.310102746364471,0.8676601283323019,0.1989855468273162,-1.0264538526535034,-0.1571750193834304
2.683576416015625,1.365633688443899,-1.427583656400442,-0.2081437148727476,2.9327064795553683,-9.316845206362007,0.8752279332380741,0.2783139646053314,-0.9790216684341432,-0.1606457382440567
2.693635498046875,1.6599059731096029,-1.9010539858311413,-0.4533285088296979,2.9086794150188564,-9.324759048226475,0.8711165523964911,0.407042384147644,-0.9190129041671752,-0.1741309165954589
2.703694580078125,2.216411728623509,-2.344025716623664,-0.797796903033182,2.88503345875442,-9.333992155995965,0.8506188310299068,0.5820298790931702,-0.8452504873275757,-0.1634303778409958
2.71375341796875,2.9623370631873605,-2.787020828291773,-1.1227945077650248,2.864251952010393,-9.344099708512426,0.8088548881422728,0.7879167199134827,-0.6836501359939575,-0.1393817663192749
2.7238125,3.334579307240248,-2.810371893262863,-1.4784829457715152,2.848446480113268,-9.354417104387284,0.7427147750195116,0.9690605401992798,-0.5209447145462036,-0.0958846509456634
2.73387158203125,3.431558503001928,-2.2549983566492795,-1.9658847699210047,2.839603832966089,-9.363314112070205,0.6598476912405341,1.0693495273590088,-0.4246911704540252,-0.0237265713512897
2.7439306640625,3.160698365844786,-1.1076911927878856,-2.3009886850602923,2.837524980865419,-9.369934406992792,0.568484472197108,1.0932053327560425,-0.3740468025207519,0.0269427802413702
2.753989501953125,2.795248266150057,0.4541594797611236,-2.2313091457650063,2.838906206090748,-9.374505368170142,0.4792026260050013,1.0001481771469116,-0.3395918905735016,0.0378028824925422
2.764048583984375,2.794722488710284,0.4576870693653821,-2.1527330371782183,2.839432568052411,-9.37803354229629,0.4006265174182131,0.8554197549819946,-0.3027594685554504,-0.0001703263260424
2.774107666015625,2.459043550162017,1.9226509006112813,-2.265284042211622,2.8343869751006365,-9.382086617079375,0.3363056921444833,0.6762124300003052,-0.265540212392807,-0.09615970402956
2.78416650390625,2.086320244593918,3.195055685737729,-2.1877231020167467,2.816855702324212,-9.389005602687597,0.2868766762553714,0.5007697343826294,-0.21627938747406,-0.2687473595142364
2.794225341796875,1.4768103363841771,4.293783235347271,-2.1413610176838933,2.7806787657886742,-9.400615376460552,0.2581716830356977,0.2619707584381103,-0.3237768113613128,-0.4865113794803619
2.80428466796875,0.3510822593852877,5.413316841620206,-1.8589986587814984,2.7223244842365384,-9.417769924879073,0.254883491677884,0.0310561880469322,-0.4442250430583954,-0.7336454391479492
2.81434326171875,-0.6639703971937299,6.314170872089266,-1.6043180875308811,2.637540460920334,-9.441297515460848,0.275087235066574,-0.1809149086475372,-0.5292614102363586,-1.0303484201431274
2.824402587890625,-1.5799799112185835,7.007608479046821,-1.132488511044532,2.5235943482667205,-9.471091180700062,0.3166643318789079,-0.3923614025115967,-0.5785580277442932,-1.326410174369812
2.83446142578125,-1.703218460613489,7.2262085598737,-0.421806485427916,2.383620498778671,-9.50503962753117,0.3781122320648282,-0.5979819297790527,-0.5715150237083435,-1.5520821809768677
2.844520751953125,-1.0083921757765113,6.6648793297261,0.2338575999850407,2.226142702912539,-9.539566751033068,0.4597126934414729,-0.8890880942344666,-0.4049482345581054,-1.6837081909179688
2.854579345703125,0.0648496349208056,4.993099963471293,1.7515625125437977,2.0623985401280223,-9.570214402753114,0.5726087855855002,-1.3627421855926514,-0.1162029951810836,-1.667636752128601
2.864638671875,1.4464450087368488,2.178805343806744,3.6977316513866185,1.91905433742404,-9.589457447883486,0.7279504096731543,-1.852840542793274,0.1573956310749054,-1.241011619567871
2.874697509765625,4.316969465145468,-3.0317554673284293,4.899783089609444,1.8367272057406605,-9.589128362059594,0.919473609938845,-2.2074341773986816,0.4065876007080078,-0.5245994329452515
2.884756591796875,4.691738012805581,-11.06726380956769,7.255636314409971,1.81480442000702,-9.571801964205504,1.1213758000735192,-2.091726541519165,0.6309210062026978,-0.0880451798439025
2.8948154296875,0.0223414495371282,-18.274723829829693,10.262669428414103,1.83376309523806,-9.549489594632387,1.2707986651040613,-1.299705982208252,0.9989072680473328,0.2956292629241943
2.904874755859375,-1.964887429446727,-19.714733252561093,11.630452988368273,1.8933602164581416,-9.529092703291774,1.334897335527092,-0.4524353742599487,0.8846940994262695,0.6242362856864929
2.914933349609375,-4.712447623357177,-14.92989551577568,10.77197854846716,1.9579187594778835,-9.514753212293982,1.3440288826182485,-0.0883548781275749,0.4545347392559051,0.4652649760246277
2.924992431640625,-7.627624291440844,-5.829045760700106,8.261637649527191,1.990476190342009,-9.507610939323902,1.3467422332301735,-0.098877727985382,0.078261598944664,0.1427516341209411
2.935051513671875,-6.933395826366543,1.0666945810109376,5.712822935286164,1.9901172939017413,-9.50580593572855,1.3599480440229177,-0.1567801684141159,-0.1420569270849228,-0.1294396668672561
2.9451103515625,-5.521030197364092,4.494903189063072,3.46168388441354,1.9627977636910972,-9.508510518512129,1.3805889732524752,-0.2052515149116516,-0.2089585959911346,-0.3968178033828735
2.955169677734375,-4.624406936332584,7.267230306091904,1.9780724897123871,1.9062400101669128,-9.515984215393662,1.408076553506404,-0.2916569709777832,-0.1935122609138488,-0.7364661693572998
2.965228515625,-4.836995209524035,7.373796245366335,1.4337459784224629,1.814764526388049,-9.52857715498507,1.4433360829360782,-0.3690161108970642,-0.1607006788253784,-1.1247111558914185
2.975287841796875,-4.420859463208914,6.966819372540712,0.9663329032041132,1.6884769646860658,-9.545673835736512,1.4830848866090178,-0.4063291251659393,-0.0808889418840408,-1.4536477327346802
2.985346435546875,-3.8326615153580894,6.041302025458216,0.7803815847866237,1.5375199488908051,-9.565117371875049,1.5214936738498508,-0.3837056159973144,0.0465519055724144,-1.6625994443893433
2.99540576171875,-3.275718537470698,4.803917700308561,0.8280081360973417,1.3754703150644898,-9.584390227621792,1.5549707037769258,-0.3325425684452057,0.1553692072629928,-1.7130612134933472
3.005464599609375,-2.699084770685434,3.20734408942461,0.8270829840764403,1.2190191588323562,-9.601508535683154,1.5796880886651574,-0.2171049267053604,0.1902782768011093,-1.563626408576965
3.015523681640625,-2.6427105570346114,1.433812906178832,0.7747709052979945,1.0837859280001372,-9.615846857637166,1.5909994640134275,-0.0520595163106918,0.1213862970471382,-1.27548086643219
3.02558251953125,-3.040105947044492,0.1366875212937593,1.0382958772614597,0.9789976659227162,-9.627453124278784,1.5887420404754578,0.080198734998703,-0.068867802619934,-0.8914228081703186
3.035641845703125,-3.483275246235728,-0.8692436711966991,1.6093581275247038,0.908161869264394,-9.635016253009438,1.5849556538045406,-2.81929969787e-05,-0.2632000148296356,-0.5241513252258301
3.045700439453125,-3.6924744615107774,-1.9879297207295892,1.404718913641572,0.8673164294611662,-9.636068392410872,1.601350616027415,-0.2926853597164154,-0.3969805240631103,-0.2130833268165588
3.055759521484375,-4.225886341685056,-3.1314386613518,0.4772328968346118,0.8494633773844689,-9.628906830218432,1.6531575217626988,-0.7086575627326965,-0.5297939777374268,-0.0310932956635952
3.065818603515625,-4.427856774750351,-4.156678365424275,-1.3305091835707423,0.8326634876225143,-9.614020226731895,1.7457533878736198,-1.0924218893051147,-0.5923742055892944,-0.1955862045288086
3.075877685546875,-3.380551369342208,-4.969499892175198,-4.129428539448976,0.7645865612182766,-9.597421558630463,1.8642144937336445,-1.2355386018753052,-0.1463192105293274,-1.0984447002410889
3.0859365234375,-1.910703273186088,-4.401833275699615,-6.629453211557864,0.6182830703172832,-9.586140286159514,1.9733296790994703,-1.0096566677093506,0.4149353802204132,-1.9512481689453125
3.09599560546875,-0.3183984256625175,-3.353115080884099,-7.636615991669893,0.4189550049869343,-9.58155938811004,2.0466041741468013,-0.5617498755455017,0.8591980338096619,-2.393697738647461
3.1060546875,1.0828221244692802,-2.207652668106556,-7.453025849425792,0.2078022262250073,-9.582443185207246,2.074601311358064,-0.090833343565464,1.202945113182068,-2.3864047527313232
3.116113525390625,1.3234820614129303,-1.1255904220938682,-6.904751915684342,0.0172708157589309,-9.587266075319052,2.062628841752559,0.3024787902832031,1.1836023330688477,-2.056650161743164
3.126172607421875,1.7080068639338015,-0.3420014195680618,-5.847607837828994,-0.1359142627657856,-9.595731121325493,2.018381849877536,0.6208400130271912,1.0714528560638428,-1.5892319679260254
3.136231689453125,1.669253062647581,0.5769166753798722,-4.700048160511255,-0.2473968074506148,-9.607695115363596,1.949709003406763,0.8249436020851135,1.1313798427581787,-1.1913772821426392
3.14629052734375,1.7503683343231675,0.5903823061525821,-4.620024775725603,-0.3285113850064575,-9.621160161614418,1.8696851802296932,0.8888606429100037,1.4783130884170532,-1.0264912843704224
3.156349609375,1.4877145922362804,1.3931366123974325,-3.596951894298196,-0.3961083824066445,-9.633080901032686,1.7936692775197327,0.7915775179862976,1.967718243598938,-1.0403075218200684
3.16640869140625,1.2704817081093789,1.544415553623438,-2.484631872665882,-0.4628879259441047,-9.640559858611226,1.7365934914708137,0.5675517916679382,2.317323446273804,-1.1288336515426636
3.176467529296875,1.0929028620440513,1.1957581832975148,-1.4355036357447504,-0.5362509029924869,-9.643398296907543,1.699314585042745,0.472641259431839,2.29951548576355,-1.208978295326233
3.186526611328125,0.9100830465853214,0.6925310135066509,-1.3352158999569714,-0.6205343563754111,-9.645049571245908,1.6608273257382211,0.5865147709846497,1.9040449857711792,-1.2669150829315186
3.196585693359375,0.7676268787622451,0.29366379737854,-1.1553937319442629,-0.719593427151069,-9.64706149559021,1.6083467585250737,0.7078204154968262,1.2819536924362185,-1.3138830661773682
3.20664453125,0.8097077786445617,-0.0230231481909751,0.0542190814435482,-0.8324531328074634,-9.648055182802675,1.5467537873126564,0.6867730021476746,0.6242082715034485,-1.315342903137207
3.21670361328125,1.1928045941889285,0.0219482124358415,1.393493170750141,-0.9508408811703324,-9.645741060641408,1.4919685964189469,0.4825580716133117,0.0584479123353958,-1.2129640579223633
3.226762451171875,1.8837736190758645,0.1065618476212024,2.558715346008539,-1.0612160034693776,-9.63937561726272,1.458306273052841,0.1825615912675857,-0.2562334537506103,-1.0168012380599976
3.23682177734375,2.575354346120357,0.0490127449721097,3.0834657808214425,-1.1514023972857743,-9.630009238502383,1.451750421668589,-0.110532060265541,-0.316519945859909,-0.7462091445922852
3.24688037109375,3.1238954063653943,-0.0108458036631345,2.8969816707015035,-1.2131728439569474,-9.619531099107862,1.4707900531813505,-0.3295060694217682,-0.1164097264409065,-0.4604777693748474
3.256939453125,3.3283062183201317,0.1119172371745109,2.3514148039616645,-1.245201136380434,-9.609267479246856,1.5105822576045989,-0.4756286740303039,0.1712747812271118,-0.2222204655408859
3.266998291015625,2.820949401378632,0.3193722391307353,1.6998124515622852,-1.255590720708668,-9.59944692697823,1.5634844112306832,-0.5262889266014099,0.4545561075210571,-0.1147127375006675
3.277057373046875,1.7876267824850975,0.4771843815177679,1.0672522148936987,-1.2576103899680078,-9.589666706719994,1.6208378451772034,-0.5116825699806213,0.6441609263420105,-0.1233179494738578
3.2871162109375,0.8761047891378402,0.6112345400452613,0.4790237257741391,-1.2615709641620516,-9.579465630701185,1.6771045068003236,-0.4764149188995361,0.7087514996528625,-0.2049570679664611
3.297175537109375,0.0648807607114314,0.7807721915394067,-0.3014990210488438,-1.2782920895993708,-9.567791559520364,1.730238569486141,-0.4510712325572967,0.5966014862060547,-0.3898403644561767
3.307234130859375,-1.2313957522593435,0.9012012364715336,-1.1955068388849497,-1.3173812603197992,-9.55354559202492,1.7789437098138032,-0.4275715947151184,0.4049065113067627,-0.5961006879806519
3.31729345703125,-1.4551542387627063,0.7624117744624614,-1.869042498411983,-1.3750916910104454,-9.537160274413228,1.822654841246456,-0.3891216814517975,0.2367395758628845,-0.7127735018730164
3.327352294921875,-0.2042402776934206,0.4764221649736165,-2.6274811314597724,-1.4413247431136669,-9.52007119244635,1.8604389207176864,-0.3520291745662689,0.1406358331441879,-0.7297483086585999
3.33741162109375,0.130963444558531,0.0817296041816472,-2.5707714022442696,-1.5070311409942805,-9.5029125523746,1.8957558794230225,-0.3590583205223083,0.0928004011511802,-0.6812452077865601
3.34747021484375,0.4559796809256076,-0.3407154714107513,-2.7073051942810413,-1.5656925887994468,-9.485985967493058,1.9326311734862625,-0.3853920102119446,0.0588951334357261,-0.5720813870429993
3.357529296875,0.7592483419954776,-0.5831120228886604,-3.096615185251832,-1.613380222647637,-9.470140748107433,1.9707417084328829,-0.3808861970901489,0.1429250538349151,-0.4698452949523926
3.36758837890625,0.8294247248969971,-0.6150052907556295,-3.412590183159709,-1.6507861164562403,-9.455456973716617,2.0098874316461384,-0.3727883398532867,0.2504251301288605,-0.4055384993553161
3.377647216796875,0.5128302799165249,-0.764177030569315,-3.79027987896353,-1.683595183993876,-9.44140623653233,2.0483485335960983,-0.3421891331672668,0.2515346109867096,-0.40808767080307
3.387706298828125,0.1696339514754712,-1.1656956379890442,-3.758243695494533,-1.7216751776717605,-9.427301138812304,2.0814048538930714,-0.284406840801239,0.1232799962162971,-0.4864773750305176
3.397765380859375,0.0649855362601578,-1.8196289175540208,-3.251621038046479,-1.7723508874200284,-9.412470649427174,2.105846052188426,-0.2214933931827545,-0.0659293383359909,-0.5965932011604309
3.40782421875,0.2059142022550106,-2.4494191049873826,-2.5303470373973247,-1.8363656789518887,-9.396492159050702,2.122285291944444,-0.187212586402893,-0.2034162878990173,-0.6883454918861389
3.41788330078125,0.3327544294036925,-2.922462148916721,-2.0303670328341425,-1.908887455935776,-9.378945396444202,2.135861251223832,-0.1968641430139541,-0.2437645047903061,-0.7418635487556458
3.4279423828125,0.494993009930849,-3.2617028715997933,-1.934010352884978,-1.9870299954108888,-9.359480817517635,2.14993741511032,-0.2049285918474197,-0.2445441335439682,-0.7982913851737976
3.43800146484375,2.218582058399916,-3.6166479438930743,-1.5561534838207065,-2.0632580795668063,-9.338826152023673,2.167872007990628,-0.2419848889112472,-0.00609747832641,-0.7406110167503357
3.448060302734375,3.726941963779926,-3.732414842233061,-1.7558571409977972,-2.121779242118448,-9.319275648379325,2.195342783240229,-0.2541132271289825,0.3908714652061462,-0.5872642397880554
3.458119384765625,4.792809446316957,-3.674569971507788,-1.918744833083451,-2.155147550974041,-9.303200127369164,2.2307393830530344,-0.2276973277330398,0.7878286838531494,-0.4034270346164703
3.468178466796875,5.400400076901913,-3.510431548708677,-2.0710458108335734,-2.1623921152748165,-9.29196269403994,2.2702133153073487,-0.1832544058561325,1.0495376586914062,-0.2041068375110626
3.47823828125,5.386871902287006,-3.516664890140295,-2.109078165977448,-2.1488639406599104,-9.285729352608325,2.308245816581696,-0.1282931566238403,1.0894930362701416,-0.0483353473246097
3.48829736328125,4.857214113949239,-3.007058248445392,-2.1627340605802834,-2.123933497542888,-9.283277867802976,2.340952738919109,-0.1303667724132537,0.8752443790435791,0.0843323022127151
3.4983564453125,4.806259294998646,-2.4534891309052704,-1.7768243795722722,-2.0915341798499227,-9.283037044784423,2.370885520368069,-0.2121378034353256,0.4876956343650818,0.2708742022514343
3.50841552734375,5.247798362639546,-2.112073402270674,-1.778796994819492,-2.04540385844633,-9.285072934526204,2.4029350017100573,-0.3284272849559784,0.2015786468982696,0.5564567446708679
3.518474365234375,5.128256037414074,-2.142140623754263,-2.3827771798223254,-1.9752422347225247,-9.29076968486309,2.439339901782572,-0.3801408112049103,0.1250705569982528,0.8619900345802307
3.528533447265625,5.031214882332086,-2.1318167981386185,-2.419802549880743,-1.87820064124912,-9.301094679522514,2.4763655641019344,-0.3467548191547394,0.120524488389492,1.1453837156295776
3.538592529296875,4.591360991299152,-2.252189728969336,-3.0435026037454604,-1.7551302880279718,-9.317342049968245,2.505406072886288,-0.2233255505561828,0.1099006086587905,1.4194918870925903
3.5486513671875,4.604109413713217,-2.3291490500092507,-3.602547522348165,-1.6055217642322182,-9.340339479196071,2.5200690967500208,-0.0522687509655952,0.1072269529104232,1.7111971378326416
3.55871044921875,4.676536352020502,-2.244551781436801,-3.989795027831197,-1.427754482922703,-9.370169384792446,2.5163135436087845,0.1517842561006546,0.0058918064460158,2.030144691467285
3.56876953125,3.909700915896893,-2.097736833882332,-4.219991730688512,-1.2243039673674851,-9.40595323035717,2.489881756018102,0.3542700409889221,-0.3555182218551636,2.3569893836975098
3.578828125,2.1672389707840978,-1.9421552270263431,-4.178736467975378,-1.0033576156754047,-9.444965390318632,2.440545770440996,0.5285086631774902,-0.9582741856575012,2.622291088104248
3.588887451171875,-1.8474352083683008,-2.122732158929109,-4.1532741099387405,-0.7784054624080657,-9.48420726738274,2.3694442355185745,0.7018014192581177,-1.6996667385101318,2.7500102519989014
3.5989462890625,-2.063018571722508,-2.085768163669109,-4.064378267389536,-0.5628226105105132,-9.52117184716463,2.28054839296937,0.866898238658905,-2.372532606124878,2.745432615280152
3.609005615234375,-3.357715852677822,-2.273248883610964,-3.566265664133429,-0.3633225130815058,-9.55470469893217,2.178525942343473,0.9850916862487792,-2.849609613418579,2.623211145401001
3.619064208984375,-4.300467827677727,-2.4495073677927253,-2.509729489043355,-0.1828247656284831,-9.583151041215658,2.07368565781787,0.992741048336029,-2.9899792671203613,2.418872356414795
3.62912353515625,-5.03312860699892,-2.727884748712182,-1.1400557314284143,-0.0180384060228767,-9.60479822487831,1.9793733431778848,0.8551493883132935,-2.6000659465789795,2.172969102859497
3.639182373046875,-5.038249603274465,-2.532190327176452,0.2006406457662582,0.1407601318943779,-9.618682373324036,1.9056582647562024,0.6553361415863037,-1.5853554010391235,1.9630064964294436
3.649241455078125,-4.4174218899756665,-2.616505856198072,1.4847837994813915,0.3080740155249833,-9.625346507388352,1.8515363600768149,0.5033069849014282,-0.078623466193676,1.837163090705872
3.65930029296875,-3.684380002382397,-3.2893028261870145,2.500815237964689,0.500390850386396,-9.627117024192213,1.799620002617687,0.5186819434165955,1.4965412616729736,1.8803459405899048
3.669359619140625,-2.7814374752014874,-3.763284612271189,3.0195018426939844,0.7270631054446101,-9.62524070892632,1.7310431638672947,0.6104754209518433,2.669196128845215,2.0325300693511963
3.679418212890625,-2.1372212875306604,-4.191175678309798,4.488874430292845,0.9824679723817854,-9.617531449723243,1.6456687734425066,0.5904879570007324,3.317565441131592,2.1632745265960693
3.6894775390625,-0.5570405930429697,-4.37970561504364,7.477434314495325,1.2465705250374972,-9.60183352985382,1.556037894617021,0.5419102907180786,2.8476336002349854,2.238924026489258
3.699536376953125,1.099797809189558,-4.075048714485765,9.21182298939824,1.4958157733663917,-9.579831541404127,1.469608149920404,0.5851709246635437,1.87093985080719,2.1657159328460693
3.70959521484375,1.8279273748219007,-1.4927122543931006,6.120921505618095,1.7168379667736589,-9.554882393586634,1.3881925801239907,0.5790865421295166,1.2060645818710327,1.9573791027069087
3.719654296875,-0.8033814982324838,0.338399595683813,5.35644636888504,1.8997762209802864,-9.529590131419896,1.3221793082512914,0.3542108535766601,1.0455878973007202,1.4828485250473022
3.72971337890625,-7.8237080045551055,2.00922736030221,2.212211500454694,2.0050496362261474,-9.513702826458216,1.2804798089019953,0.2184295654296875,0.4155244827270508,0.4769016802310943
3.7397724609375,-8.33215495482087,1.709704900023341,-0.1259352411329746,2.001886057628691,-9.517195344749092,1.259290305878967,0.2742060124874115,-0.4076010584831238,-0.4882774353027344
3.749831298828125,-8.26026051595509,1.7282663926303383,-0.0974322002261877,1.9299910342410205,-9.53575742187798,1.2307874111026524,0.5408574342727661,-0.4557439982891083,-0.7660734057426453
3.759890380859375,1.924311527299881,0.509978397616744,-1.675538572657853,1.874238898011297,-9.555272269687055,1.1637778216689825,0.8731381893157959,0.3272900581359863,-0.3516868948936462
3.769949462890625,-0.0325292276829481,1.1444354078173635,-2.4149580324590203,1.8730716077975929,-9.56798445174396,1.056248590320349,1.1257833242416382,0.7760727405548096,0.2042748630046844
3.78000830078125,-2.0050310776561497,1.7766694812715051,-2.2440349179558456,1.925723147663474,-9.570992401388288,0.9263262523125856,1.2222989797592163,0.7737459540367126,0.7029895782470703
3.7900673828125,-4.64172164374888,2.51772048779726,-1.4167925055339932,2.0127387294240293,-9.564304301926493,0.8020810831584035,1.109164118766785,0.2636487782001495,0.9807059168815612
3.80012646484375,-5.569311120930314,3.108265875557065,-0.4970556415490806,2.113430662098527,-9.549864857685565,0.7098403871607035,0.8193562626838684,-0.3469645380973816,1.1017812490463257
3.810185302734375,-5.7062453104615205,3.121510557055473,-0.8889354099426418,2.2144519728578627,-9.530788401293751,0.6562488630309701,0.6081992387771606,-0.925822615623474,1.088486909866333
3.820244384765625,-4.560122387948632,2.744074251490831,-1.2764312641635536,2.3112186949126423,-9.509788283362983,0.626555297165364,0.5593531131744385,-1.2748442888259888,1.089389681816101
3.830303466796875,-3.032149435082078,2.7917519484668967,-1.011898284201324,2.408609394084662,-9.48698725349009,0.6050334203828126,0.546628475189209,-1.3435440063476562,1.1281180381774902
3.840362548828125,-1.8689175568580627,2.615064425218105,-0.5130224780203775,2.5110125145912168,-9.46173240072429,0.5838009184682741,0.5371977090835571,-1.1138657331466677,1.1697909832000732
3.85042138671875,-2.433558980293572,1.8149223472982643,0.1942833856940269,2.616116564619541,-9.43476723690927,0.5580945225426927,0.5554617047309875,-1.048205852508545,1.1723573207855225
3.860480224609375,-2.66603502625972,1.6228396865189074,1.602027492375672,2.7209517345786094,-9.406388114643097,0.5353958205331116,0.5007989406585693,-1.1071232557296753,1.1672674417495728
3.87054052734375,-2.823822618727386,1.5854729556769132,2.120296456214785,2.8254683401077982,-9.37620398878157,0.5233509432785213,0.4408219456672668,-1.252278447151184,1.1781238317489624
3.88059912109375,-3.12826821462214,1.521100729009509,2.011253167041391,2.927903170926869,-9.344902841588857,0.5201660296320915,0.453881561756134,-1.4118388891220093,1.1381365060806274
3.890658447265625,-3.09609612981379,1.5241682998865842,2.259135894845426,3.0217262407451866,-9.31519977724254,0.516342489288561,0.5270469784736633,-1.391078233718872,1.0073192119598389
3.90071728515625,-3.130371616642177,1.6503800198733805,2.460596040301025,3.098948304374516,-9.290577961683272,0.5020788400059566,0.6364046335220337,-1.2038103342056274,0.7737374305725098
3.9107763671875,-3.1818443219870325,1.6345944217205046,2.4899162428095933,3.150420425197482,-9.274791194486616,0.472758710562624,0.7164298295974731,-0.9671803712844848,0.4280001223087311
3.920835205078125,-3.4415620106220244,2.175442004853487,2.6980232789337637,3.1675752658769487,-9.270957899934054,0.4314974565001204,0.7408472895622253,-0.7525157332420349,0.02502416446805
3.930894287109375,-3.624969197514653,2.822449284547567,2.6844962733626363,3.1503187183886765,-9.278862973970174,0.3854687688400968,0.7221725583076477,-0.6680678129196167,-0.315379798412323
3.940953369140625,-3.429333812689781,3.0816531784415244,2.2987373990021647,3.108361152625084,-9.294756124150751,0.3405705830473453,0.6913190484046936,-0.7455165386199951,-0.5062165856361389
3.95101220703125,-2.791464363697171,3.170996764758229,1.854890492810309,3.056323214612901,-9.31317090176344,0.3067741849727928,0.5808520913124084,-0.9387098550796508,-0.5275252461433411
3.9610712890625,-1.7834399983197449,3.200357883799076,1.5816626036085188,3.007325959470868,-9.329663771402837,0.2894061399340629,0.4431749284267425,-1.0601806640625,-0.4478642642498016
3.97113037109375,-0.6313049759104847,3.057884180319309,1.2669140787556767,2.9677459364935754,-9.342363678500057,0.2882694823206402,0.2980171144008636,-1.186939716339111,-0.3265548348426819
3.981189208984375,0.0971712112024426,2.770953490588069,0.8252200397487729,2.9371801178380843,-9.351565806609392,0.3025984701907262,0.147876352071762,-1.1616369485855105,-0.2600533068180084
3.991248291015625,0.6775222449451684,2.5001363157898187,0.6018962548682466,2.9098899598523973,-9.359224796929954,0.3284006181083619,0.0048924405127763,-1.0898303985595703,-0.2449926435947418
4.001307373046875,1.115249060821533,2.2479507762253284,0.2938282306926325,2.883366986846924,-9.366061949473618,0.3653254138691351,-0.1300070583820343,-1.036312222480774,-0.2420525103807449
4.011366455078125,1.566060399198532,2.0642554200410843,-0.0002402384966611,2.856029774849117,-9.372555403146148,0.4106961490770802,-0.203946366906166,-1.0242654085159302,-0.2564573884010315
4.02142529296875,2.0318986263155936,1.877583678394556,-0.4562460402442142,2.8265353848174213,-9.379066392475366,0.4628300948096439,-0.2632240653038025,-1.0847492218017578,-0.267140656709671
