seconds_elapsed,acc_z,acc_y,acc_x,grav_z,grav_y,grav_x,gyro_z,gyro_y,gyro_x
14.090328857421875,0.3084484017953276,1.601665381065011,0.1178157206285744,3.142494016112387,-9.281216259098052,0.3925980361981317,0.7199578285217285,-0.4034634828567505,0.379549890756607
14.1003876953125,0.1009174119934439,2.410095394858718,0.4428344777463003,3.172703860937059,-9.273074453696609,0.3382737042818218,0.6355137825012207,-0.2371445298194885,0.2879107594490051
14.11044580078125,-0.4790072130307555,3.045055093884468,0.6593736439879984,3.19268486495316,-9.267733677190542,0.2936681812927126,0.4892394244670868,-0.2790432572364807,0.1551761627197265
14.12050439453125,-0.697351857791841,3.570080253985524,1.0187405513115226,3.198244544906914,-9.266633606994152,0.266646464984864,0.3211209774017334,-0.4145669937133789,-0.0153495129197835
14.130562744140626,-0.6570601794138551,3.986360377207398,1.1492141665264963,3.1869825616583225,-9.270662131857872,0.2614196337146684,0.1494242399930954,-0.6133396625518799,-0.1968022882938385
14.140621826171875,-0.5177268197864294,4.066087993916869,1.1033458570599557,3.1582319757312534,-9.280060659322142,0.2764626150730065,0.0169783197343349,-0.814250648021698,-0.3765814006328583
14.1506806640625,-0.4207455781981348,3.8852544569045295,1.1815680376425384,3.112427086889744,-9.294505364260075,0.3088225323373452,-0.0979707464575767,-0.9929468035697936,-0.543810248374939
14.16073876953125,-0.2047843214422464,3.3700299753278493,1.060919797001779,3.0513404577642675,-9.3130370462507,0.3564474031476303,-0.1996760666370391,-1.1630905866622925,-0.6789571046829224
14.1707978515625,0.0818248812496662,2.539230308815837,0.8032625480279326,2.97856339084506,-9.334124257943031,0.415535624997504,-0.2590493857860565,-1.299396276473999,-0.7628441452980042
14.180855712890626,0.4773170679867267,1.5595938335329294,0.6045928004758432,2.8994050984561444,-9.355862627020478,0.4813273996066302,-0.2938563525676727,-1.3690859079360962,-0.7844764590263367
14.190914794921875,1.2748638687163591,0.4424462456136941,0.1921951812431216,2.820567708584666,-9.37626010288298,0.5482117186928167,-0.2812919318675995,-1.3582236766815186,-0.7276291251182556
14.20097265625,2.364898116521537,-0.73800155582726,-0.067183557761088,2.750313730402291,-9.39336204433143,0.6090212479099631,-0.2388166487216949,-1.2061446905136108,-0.5924404263496399
14.21103173828125,3.2463346220761538,-2.151479529985785,-0.4764311519976705,2.696373173639178,-9.405630574274063,0.6588393909808248,-0.1797642558813095,-0.958547294139862,-0.3979390561580658
14.2210908203125,3.5737867072880265,-3.700874625587463,-1.3650544272512195,2.6628093422114847,-9.412766417503356,0.6925831090200693,-0.0572476610541343,-0.6932204961776733,-0.1970091611146927
14.231148681640626,3.040774932347238,-4.722422489404679,-2.187440485683084,2.646351836146414,-9.416385192522409,0.7063272644732147,0.1041632071137428,-0.5154645442962646,-0.0745648071169853
14.241207763671875,2.3210323790490626,-4.609799149787426,-2.786488621111214,2.636760708719492,-9.419474975231289,0.7009892644461244,0.2734153568744659,-0.4413738548755646,-0.0662578791379928
14.251265625,2.3324817015632986,-4.604944110971689,-2.7638319681450723,2.6253116784662005,-9.424330014047026,0.6783326845452189,0.4234998226165771,-0.3821465075016022,-0.115853451192379
14.26132470703125,2.2886247319191693,-3.30083836567998,-2.6022955445379017,2.6094632442101835,-9.43107715021968,0.6448859766911715,0.4587611556053161,-0.2668910026550293,-0.1757703125476837
14.271382568359376,2.056422534458339,1.1390016923308373,-0.8981592384271323,2.587430860622227,-9.439400157406926,0.6110047498773783,0.3773294687271118,-0.2687875032424927,-0.2568708956241607
14.28144140625,2.08943165461272,1.14936584995687,-0.8764563790544867,2.554422032728791,-9.449764899554848,0.5893017809068783,0.223418191075325,-0.2694208025932312,-0.4146527945995331
14.29149951171875,1.507892872390151,2.923314966353774,-0.2055335323743522,2.5017963579565285,-9.464273901900649,0.5821713079724461,0.0474647767841815,-0.172613188624382,-0.6759094595909119
14.301558349609374,0.5976648643761873,4.280568364465236,0.4633691335897892,2.421722850418836,-9.484664363500476,0.5888825691141187,-0.1378576755523681,-0.0285699889063835,-0.989185869693756
14.311617431640624,-0.2263826975271105,4.975169169983268,1.2216164087839425,2.31457545799464,-9.509937920966744,0.6117433663502335,-0.3612653017044067,0.0730351582169532,-1.247082233428955
14.321675537109376,-0.4040864120811224,4.784516249746084,2.083874751137942,2.1862701267294584,-9.53715618276,0.6582342646945267,-0.6792440414428711,0.1781533062458038,-1.4364808797836304
14.331734375,-0.2466658993601798,3.903917071798444,2.925383004799485,2.044860837610811,-9.56291197078526,0.7346032916910946,-1.0035669803619385,0.266963243484497,-1.5243682861328125
14.34179248046875,0.2382544832371175,2.077082752910256,3.143957951185107,1.9036578847192227,-9.58365256099701,0.836701291771233,-1.2345298528671265,0.3997497856616974,-1.4277594089508057
14.3518515625,1.5277406054154037,-0.7137742925435304,3.4785958562478423,1.7873307221479713,-9.595357611837985,0.9512757654562592,-1.2819823026657104,0.5149356722831726,-1.0328997373580933
14.361909423828124,2.66363877877295,-4.59871369214952,4.100129964250326,1.7186482310660185,-9.597255554413795,1.0532392524365335,-1.0012744665145874,0.6200991272926331,-0.5122291445732117
14.371968505859376,1.7353366232775151,-8.844759024766088,5.008919463893771,1.6940579796887931,-9.59463338921666,1.1151492537088692,-0.4966638684272766,0.6407803893089294,-0.1766879558563232
14.38202734375,-1.120570986496657,-10.89116840699315,6.3902031414121385,1.68844583889544,-9.593322891139984,1.1347730417851358,-0.1630294322967529,0.4835036396980285,-0.1084215342998504
14.39208544921875,-3.6961803302913903,-9.136716018226744,7.679890485250949,1.6765214462153613,-9.59402081027627,1.146483426388353,-0.2543057203292846,0.2453334629535675,-0.24177847802639
14.40214453125,-4.753850477847457,-4.845566638514399,7.333494630116224,1.6454282426849007,-9.595360534447432,1.1798376336533576,-0.477907657623291,0.0841477662324905,-0.4272769689559936
14.412202392578124,-4.103189936342835,-0.8654472015231848,5.222431866192817,1.5985557246118782,-9.596915362673997,1.2305400122128427,-0.5667479634284973,-0.0207849536091089,-0.5412313342094421
14.422261474609376,-3.5805239065885544,3.2026082930743693,1.894961075783521,1.5399156118556856,-9.59916694099307,1.286484017752856,-0.564379096031189,-0.0577994287014007,-0.6647330522537231
14.4323193359375,-3.791713418897986,3.752642806747556,1.2769278155088424,1.4675421573013063,-9.603024200943112,1.3411316998720169,-0.5359234809875488,-0.1255951225757599,-0.7934791445732117
14.44237841796875,-3.937898251855373,3.8773289246022697,0.9276254252776504,1.3832850804686545,-9.608000820311904,1.3940018509246408,-0.5038933753967285,-0.2036238759756088,-0.8922997117042542
14.4524365234375,-4.550436860236525,3.58903629886806,0.1259986617580056,1.2886365196116267,-9.61404594569504,1.442203425644338,-0.394773930311203,-0.4098553955554962,-0.9660179018974304
14.462495361328124,-4.540671253025532,2.9228590392798184,-0.2915942976281047,1.1863946540813892,-9.621685646793246,1.4785197706505655,-0.2083140313625335,-0.6813462972640991,-0.965686857700348
14.472554443359376,-3.998839335030317,2.3588737416654824,-0.3433209777340292,1.0856943919699638,-9.630663903018831,1.497326324059814,0.009450389072299,-0.8896916508674622,-0.8517141938209534
14.4826123046875,-3.6363410708785056,2.068794232514501,-0.2351629469625651,0.9979309144515544,-9.640008069947362,1.4982539602987468,0.16827093064785,-1.082507610321045,-0.6418738961219788
14.49267138671875,-3.3716631294876334,1.9062609068244691,0.0625628391578793,0.9300262758743018,-9.647762337335944,1.4920222263023255,0.1729648262262344,-1.221122145652771,-0.3956775069236755
14.5027294921875,-3.1121517770797014,1.4986469051390885,0.0226648362725973,0.8834493066817521,-9.652100658801196,1.4922661180607977,0.0360037758946418,-1.1485244035720823,-0.2026124447584152
14.512788330078124,-2.928467526811361,0.4907523036211729,-0.6144347973912954,0.8531438925281166,-9.652464231416582,1.507472162760049,-0.1657080501317978,-0.913016438484192,-0.1137135028839111
14.522846435546874,-2.650536136093736,-1.00928517909348,-1.6659890924155711,0.8273517180152237,-9.649550389796495,1.5401438676536083,-0.3771052360534668,-0.5417097210884094,-0.2254072874784469
14.532905517578126,-2.582961898514628,-2.8576111988216635,-2.6870067948788403,0.7762371784582733,-9.645806527093052,1.5894149713009595,-0.5742703080177307,-0.1052842289209365,-0.7774137854576111
14.54296337890625,-1.991464324596524,-4.389976833689213,-3.831568751685321,0.6625325464103371,-9.644982935750484,1.6449144479438662,-0.5540755391120911,0.4279365241527557,-1.6255621910095217
14.5530224609375,-0.6187713652908802,-4.649575864380598,-4.776694762340187,0.4827507469406351,-9.649642744255065,1.679794768797606,-0.2124709188938141,0.8944348096847534,-2.260095834732056
14.563081298828124,0.5929875567475333,-3.4558161614239213,-5.1730467807769775,0.2669796789946034,-9.659172789144517,1.6731730125702915,0.2644913792610168,1.2100130319595337,-2.4985127449035645
14.573139404296874,2.066934868383408,-1.5966010834127664,-3.846674258619547,0.0519337013195734,-9.670662735930083,1.626651061500609,0.6245205998420715,1.7040128707885742,-2.367633581161499
14.58319873046875,3.090145112454891,-0.3687695995062589,-2.458713587555289,-0.1265726622536778,-9.681192313250898,1.5584936172060668,0.7623897790908813,2.0628461837768555,-1.8984019756317136
14.59325634765625,3.071684742134809,0.6311076997727155,-1.2425354243025184,-0.2516142059499398,-9.689569680973888,1.4897365995831786,0.7194925546646118,2.2839128971099854,-1.351391077041626
14.6033154296875,2.4216554842710494,0.9924503641486168,-0.6693462450131774,-0.3234372966125607,-9.696422031086684,1.430103968658298,0.6489712595939636,2.344276666641236,-0.8288504481315613
14.61337353515625,1.0550105729579924,1.2018237669467926,-0.2512076344430446,-0.3520137315491214,-9.703035311746596,1.3775298779428005,0.5834388136863708,2.2460179328918457,-0.4448637068271637
14.623432373046874,1.0598796402990818,1.207929098084569,-0.2061960879363119,-0.3568822509009391,-9.709141811928152,1.3325183314360678,0.4946255981922149,2.1012508869171143,-0.2923151850700378
14.633490478515624,-0.6323170755624771,1.533344709032774,0.2660454303517937,-0.3611265374071896,-9.71358359376788,1.2985653545603155,0.3364851772785187,1.9643731117248533,-0.36640265583992
14.64354931640625,-1.919745242297649,1.6989765852600336,0.8123350584082305,-0.3821304547302425,-9.714763158941269,1.2836388574548063,0.1204114630818367,1.8028348684310915,-0.5707091689109802
14.653607421875,-2.462307812654972,1.647259257504344,1.164464196497947,-0.4282413773136213,-9.712724346590042,1.2845046805039049,0.0184356067329645,1.5072922706604004,-0.8098568916320801
14.663666259765623,-2.394012275063992,1.3220371233016253,0.6052746087275445,-0.5014751750243828,-9.708626263621449,1.288987671136856,0.0227414052933454,1.0603786706924438,-1.0299272537231443
14.673725341796874,-1.893404347860813,1.3330021694302558,0.117584761416912,-0.6019523324370384,-9.702833067172763,1.2896072643399237,0.0590242147445678,0.6569604873657227,-1.2490811347961426
14.68378369140625,-1.2285679814875126,1.6684598664432764,0.0528892941445112,-0.7259984718877822,-9.694572019305824,1.287863781673461,0.0329470746219158,0.3022671639919281,-1.4049242734909058
14.69384228515625,-0.5766296751320362,1.6444418619960546,0.2337622863844037,-0.8624348679646849,-9.683124158096312,1.2898479412280022,-0.0584401376545429,-0.0074995048344135,-1.4095948934555054
14.703900390625,0.1602854006327688,1.019860933643579,0.5307756864517927,-0.9948148282576352,-9.668913261914252,1.3010875665143131,-0.1997093856334686,-0.1758996993303299,-1.2669357061386108
14.71395947265625,0.9115746003173292,0.4897837508499622,0.8044736773833632,-1.1104431949097662,-9.65269453304112,1.327712538589537,-0.3861406147480011,-0.111308142542839,-1.064358115196228
14.724017333984374,1.4150550142168998,0.1876899787783622,0.992665614334494,-1.2028686728898434,-9.635059507629276,1.374451493410766,-0.5823423266410828,0.0660410746932029,-0.8303514719009399
14.73407666015625,1.67590828275308,0.0258037188202142,0.9291312997959552,-1.2711392952352762,-9.616827100846171,1.439183054909855,-0.6980544328689575,0.2467987239360809,-0.6364361047744751
14.74413427734375,1.6147043108582495,-0.2488198625236749,0.539670209916681,-1.3239585928834974,-9.59853156569898,1.5118611914992333,-0.7128214240074158,0.3871670365333557,-0.5749176144599915
14.754193603515626,1.2531529721677304,-0.4881166944205761,0.0961823462955653,-1.376305012322962,-9.579202595850823,1.58589395756796,-0.7025367617607117,0.4456168711185455,-0.6618911623954773
14.76425146484375,0.9204534878216684,-0.5949252102792263,-0.0998456911087036,-1.4413419865094124,-9.557089548242091,1.6598177103042602,-0.7011135816574097,0.4396623075008392,-0.844973623752594
14.774310302734374,0.6536169070921838,-0.4458119226545095,-0.5150967635437846,-1.523610227612406,-9.531276477071644,1.7331470042787491,-0.698981523513794,0.3885171711444855,-1.0053179264068604
14.78436962890625,0.6583202624775469,-0.203688342899084,-0.88336469713822,-1.6167489684283731,-9.502554824978112,1.804982406433672,-0.6861669421195984,0.2816186845302582,-1.0507376194000244
14.79442724609375,0.9775076465606688,0.0485474655479192,-1.2430338753439485,-1.7099840092256664,-9.473172078627348,1.872259999153763,-0.6408138871192932,0.1610710769891739,-0.9692984223365784
14.804486572265626,1.600769162877649,0.2037970639705658,-1.6242644586250186,-1.7915568154104051,-9.44586555402875,1.9329669813118877,-0.607498288154602,0.0123250195756554,-0.7715731263160706
14.81454443359375,2.595418644505739,-0.2511421679913997,-1.620006655050069,-1.8551617109671237,-9.42173122972548,1.9899106654137373,-0.616124153137207,-0.1120353266596794,-0.5465977787971497
14.824603271484374,2.3728702644445,-1.0307359634011983,-1.8861650442570448,-1.901810357156396,-9.400201534962653,2.0468756845645606,-0.6484394669532776,-0.1903234720230102,-0.382721483707428
14.83466162109375,2.191839012902975,-2.049509101808071,-2.470858783379197,-1.9382028361387549,-9.379811073362829,2.105444047258794,-0.6641233563423157,-0.1818178594112396,-0.3110537827014923
14.84472021484375,2.12667563585788,-3.132498399537801,-3.526559676688909,-1.9700052108518775,-9.359846143698691,2.1639592184610663,-0.6214848160743713,-0.0562455467879772,-0.3108042478561401
14.854778564453126,1.9600436426773664,-3.930018312260508,-4.643645305287838,-1.9987993436597289,-9.340890683338046,2.218767644099891,-0.5264852643013,0.1163879483938217,-0.3157621324062347
14.86483740234375,1.6441082461275158,-4.132188067290187,-5.432068303841352,-2.0237392852574585,-9.324122503888606,2.2661849365741014,-0.4041611850261688,0.2420055270195007,-0.2987083196640014
14.874895263671876,1.36147306163311,-3.668936349534988,-5.524882196617126,-2.0436711894348263,-9.31033012537956,2.30468096370697,-0.3003841042518616,0.303012877702713,-0.2602137923240661
14.88495458984375,1.6975754862904548,-2.8796915132045746,-5.064892111006379,-2.057603122545033,-9.299761969614028,2.334754030409455,-0.1910222172737121,0.3798969984054565,-0.2005536705255508
14.89501220703125,2.272691395858675,-2.343829317268729,-4.242566258329153,-2.0634974412806333,-9.293187267398832,2.355635928788036,-0.0618460699915885,0.5022458434104919,-0.1509121656417846
14.905071533203126,2.6051477190986274,-2.087200826820731,-3.334350466920436,-2.0642073431156573,-9.290194515323638,2.366793428748846,0.0687423050403595,0.6117539405822754,-0.1515553146600723
14.915129638671877,3.1701433627992865,-1.9791472793370484,-2.382000934752822,-2.062973709667474,-9.28990985316336,2.3689820248343048,0.1665971130132675,0.6988554000854492,-0.153140902519226
14.9251884765625,3.975362013331056,-2.1150351746857163,-1.3949483379945158,-2.057755390497297,-9.291687968751788,2.366545006945729,0.1970170587301254,0.7496871948242188,-0.0941372364759445
14.93524658203125,5.135397725862265,-2.466504095301032,-0.1461991537436842,-2.041041717714071,-9.295610110631584,2.3656239465780557,0.1386650800704956,0.7480817437171936,0.0903073921799659
14.94530517578125,5.91167786667943,-3.0693548378825186,0.8369407996155321,-2.000599817210436,-9.302381796723605,2.3735336967892944,0.0216532461345195,0.75581294298172,0.4087149202823639
14.955364501953126,5.698550664305687,-3.5642899801462886,1.150837383814156,-1.926335872734338,-9.31367008345723,2.3906353459768,-0.0775584131479263,0.6969954967498779,0.8067482709884644
14.96542236328125,4.939031104153394,-3.302849705502391,1.037278370781988,-1.81714148465246,-9.329855494582652,2.412915712976456,-0.1353817582130432,0.5859432816505432,1.1842353343963623
14.9754814453125,4.098392765194177,-2.6745424501031634,0.5031602420344948,-1.677854594515264,-9.350036112824082,2.4355728043340146,-0.1549139320850372,0.4320738613605499,1.509400486946106
14.98553955078125,3.395813820403814,-2.252493095830083,-0.5004474759444594,-1.5130733437679706,-9.373001977869867,2.455163201597333,-0.1489375233650207,0.2112863510847091,1.8192334175109863
14.995598388671874,2.2579181896187364,-2.1447569437325,-1.835272476887703,-1.3255255499392746,-9.39828664125204,2.4668928023576737,-0.0883270651102066,-0.1480183452367782,2.126859664916992
15.005656494140624,0.682874858019501,-2.119140856438875,-2.9257059531435368,-1.12071477888152,-9.425249466979505,2.4655703215822578,0.0053735976107418,-0.6492865085601807,2.394655227661133
15.01571533203125,0.4694458962202071,-2.092403071638941,-2.9110809232026336,-0.9072854517560452,-9.451988420823216,2.4509449993804098,0.1036349982023239,-1.2317628860473633,2.5774199962615967
15.0257734375,-1.1735948668062686,-2.0648604001969098,-3.710397656214237,-0.6944808324001729,-9.477136890605092,2.4232146964117884,0.2084114700555801,-1.8229103088378904,2.663215160369873
15.03583251953125,-2.488444124430418,-1.912692401176691,-4.272847414824367,-0.4900923418750986,-9.498822068190574,2.388012303996831,0.2605347037315368,-2.269773244857788,2.655951499938965
15.04589013671875,-2.904698528689146,-1.6161135931342838,-4.102960219240188,-0.2939549075459129,-9.51557738815844,2.353247426216304,0.2653518319129944,-2.3724873065948486,2.6143639087677
15.055949462890624,-2.401175006300211,-1.5019646513849496,-3.421146414580941,-0.0986705463821068,-9.527223402288556,2.32220770643875,0.2902847528457641,-2.1205942630767822,2.577763319015503
15.066007568359376,-1.7991653907179832,-1.7016168706357475,-2.664740602535009,0.1042201433332637,-9.534371520477531,2.2924423905111846,0.3197651505470276,-1.5066657066345217,2.538067579269409
15.07606640625,-1.3110592176914215,-2.059777982366085,-1.6038386334508656,0.3218048365725204,-9.53668798072636,2.2623938737280667,0.3411735594272613,-0.4825175404548645,2.48560118675232
15.08612451171875,-0.995402199691534,-2.435569443333149,-0.3295094561330974,0.5592082924708723,-9.533792843806744,2.228111226506531,0.3586122095584869,0.775848925113678,2.390223264694214
15.09618359375,-1.2184534877736122,-2.7687387371480465,0.8250431488119065,0.8141328285451978,-9.526384028854965,2.180727251780033,0.4199724197387695,2.153660774230957,2.255516529083252
15.106241455078123,-1.067798231403902,-2.920224014601111,1.8924372563943264,1.0833604691296814,-9.51630628695488,2.1063281366169453,0.5774427652359009,3.46389102935791,2.08843994140625
15.11630029296875,-0.8111065395265817,-2.960128154966235,2.89690480607301,1.352944302740693,-9.506180614259838,1.9931024471923708,0.7589676380157471,4.40091609954834,1.8116915225982664
15.1263583984375,-1.1208844363600017,-2.762504811194539,4.321693571057915,1.5949362189404666,-9.498202474987506,1.8468173687309024,0.8951718211174011,4.468839168548584,1.4301843643188477
15.13641748046875,-1.8734943632543088,-1.6380547913074492,5.201411289995908,1.781766804410517,-9.494534600129724,1.6880539169684052,0.9817188382148744,3.533475637435913,0.9531473517417908
15.146475341796876,-3.7793534112796174,-0.6434574782580137,4.992215581852197,1.8940692415103315,-9.497781034705042,1.5411118359029292,1.0142115354537964,1.9673629999160769,0.4687891900539398
15.156534423828123,-4.810688217356801,-0.1976274354249239,4.649045703026652,1.9428833951704203,-9.506221530792116,1.4238469540901482,0.8770269751548767,0.7591614723205566,0.1808014512062072
15.166592529296874,-2.8196979400128126,0.442196654766798,4.870247198523581,1.966015556693822,-9.513228194683789,1.3430055309198796,0.55339115858078,0.5779975652694702,0.1633699983358383
15.1766513671875,0.0818821643948554,1.1768752036511898,5.103430808237195,2.000923934598267,-9.513186109107732,1.29073363802135,0.2227885127067566,0.9890560507774352,0.3591799437999725
15.18670947265625,-0.007342471717298,1.549312678015232,3.53163098860383,2.045257435712964,-9.508837266248465,1.2527322625376285,0.3196769654750824,0.2907304465770721,0.334225058555603
15.1967685546875,-5.773787399336696,0.1763356410712003,-4.686771914830803,2.0686105465106666,-9.509382625171542,1.20949327866137,0.7046176791191101,-0.6590719819068909,0.2347284406423568
15.206826416015623,-1.3416649299658834,-0.3957213193178177,-4.722632917284965,2.0897034572914244,-9.51372912994325,1.1368670183897018,1.1134182214736938,-0.6889803409576416,0.4316343367099762
15.216885498046874,-0.2060078718878328,0.1074193412333726,-3.776454182706773,2.144562882465124,-9.513788166654107,1.0291077776774764,1.309472918510437,-0.1534624844789505,0.8136919736862183
15.226943359375,-2.457887658125162,0.6156593707501888,-3.4976913096010684,2.234927628523111,-9.506077738407251,0.8999825813967735,1.3670345544815063,0.0866108313202858,1.0412745475769043
15.23700244140625,-5.191496629703044,1.30000240162611,-3.146164229057729,2.3323707885347305,-9.493708086177708,0.7745577740039676,1.276713490486145,-0.2656943798065185,0.9732814431190492
15.247060302734376,-5.31521010313332,1.7956658581644296,-2.999506517891586,2.410295447475463,-9.48210065049231,0.6712949679281562,1.1580424308776855,-0.813042402267456,0.7378547787666321
15.257119384765623,-3.5375688542202117,2.0899363892644645,-2.137153775252402,2.464666943001747,-9.47350467158258,0.5903499017203226,1.0143766403198242,-0.9887853860855104,0.536431074142456
15.26717724609375,-2.859242307154834,1.9858727881997824,-1.5534931785702704,2.503852998225391,-9.467155010294912,0.5235374422939494,0.9206997156143188,-1.025428295135498,0.4185529351234436
15.277236083984375,-3.20665376907289,1.652734474045038,-0.6946310545258224,2.5355291162103413,-9.461722463852167,0.4661342509215697,0.8660094738006592,-1.203199028968811,0.3718725442886352
15.287295166015625,-3.8286841361597177,1.2542998041152953,0.6262425779543817,2.56304928355962,-9.456386948043107,0.4218192718442529,0.8097972869873047,-1.6086498498916626,0.3487091660499573
15.297353271484376,-3.853316473113,1.2487135284155606,0.6522332707140595,2.5876816205129027,-9.450800672343371,0.3958283964214846,0.7164944410324097,-1.9796574115753172,0.3284157514572143
15.307412109375,-3.945361719603836,1.0559972459077835,1.9753718524515629,2.6113424820855258,-9.444680728158357,0.3863583015583455,0.6264077425003052,-2.177653551101685,0.364195317029953
15.31747021484375,-3.3611312140792604,1.3327438107550142,3.074121321631968,2.638381587919593,-9.43726548346579,0.3838541732503101,0.614480197429657,-2.103810787200928,0.4035528302192688
15.327529052734375,-3.8340368953645223,1.9622861609071487,3.365624433845281,2.6697067005097863,-9.428603453582523,0.3801041000017896,0.6292005777359009,-2.0484778881073,0.4262980818748474
15.337587158203124,-4.041601202914118,2.5738398499041795,3.3849589566513894,2.7020453740566968,-9.419610584309696,0.3745361636763438,0.6386003494262695,-1.978472113609314,0.4124104380607605
15.347646240234376,-3.7439240782409904,3.095004242923856,3.2843887506604195,2.730278658111393,-9.411806632560491,0.3658709189226851,0.6336314082145691,-1.808549404144287,0.327936589717865
15.3577041015625,-3.173752200946212,3.54748380677402,2.8946719324544072,2.748931043872237,-9.406843457195162,0.3536611334299668,0.614204466342926,-1.5969197750091553,0.1940355002880096
15.367763427734374,-2.661264743117988,3.659742989253997,2.5802812811285256,2.754339332656562,-9.405827558150888,0.3382506156671792,0.5930853486061096,-1.4662128686904907,0.0355057828128337
15.377821044921877,-1.6032096878975628,3.420765890830755,2.588636437019705,2.7443463464304805,-9.409262793296577,0.3236104612223804,0.5360361337661743,-1.319628119468689,-0.1505291908979416
15.387880126953124,-0.6646846829429268,2.821072150975465,2.2796461834326385,2.71846079454571,-9.417246193265914,0.3095332744225859,0.4983433783054352,-1.2379710674285889,-0.300472617149353
15.3979384765625,-0.6277002294167876,2.8320295983195303,2.290793746521324,2.681476048758626,-9.428203056088089,0.2983857478665188,0.4467679262161255,-1.2250337600708008,-0.3961085677146911
15.40799609375,0.2899447768554091,2.557663791128993,2.1093696962699293,2.6384634209841487,-9.440545820310712,0.2915654916587285,0.3666110336780548,-1.1758790016174316,-0.4280366599559784
15.418055419921876,1.2968793011695146,2.265986199131608,1.9374336053319277,2.59474585981071,-9.452631394901871,0.2923162186944857,0.2379519641399383,-1.080033302307129,-0.4174389243125915
15.42811328125,2.1509031914025543,2.084848710736632,1.8276140710890287,2.553553140939772,-9.463478952130677,0.3038239568650722,0.0858678892254829,-1.005279779434204,-0.3797570466995239
15.438172119140624,2.9033041517212985,2.0024211874186992,1.7490103438429534,2.516270873510837,-9.472630226835609,0.328707711296156,-0.0609732642769813,-1.0528569221496582,-0.3336678147315979
15.448230224609375,3.3821143808752296,1.7984230479180812,1.527786782644689,2.4824825856775043,-9.48006943692565,0.3687202074065804,-0.2157892137765884,-1.0598207712173462,-0.2948218882083893
15.4582890625,4.075432160845399,1.466784616932273,1.3670068764932453,2.45325678345412,-9.485564527210594,0.4195165843924507,-0.2755642235279083,-1.0915687084197998,-0.2251428216695785
15.46834716796875,4.508282310596108,0.7711036149621009,0.509415904895775,2.4302637381404635,-9.488990410006046,0.4725059413779526,-0.2844565212726593,-1.0358524322509766,-0.1588029414415359
15.478406005859377,4.719646594950556,-0.1381704533278942,0.1147672197781503,2.4135781224079427,-9.490560435801743,0.5237365450626239,-0.2818053960800171,-0.9403010606765748,-0.0841415226459503
15.488464111328126,4.748387828527391,-1.1677654300004243,-0.199987625217624,2.404588906396925,-9.490174066832662,0.5700413462502881,-0.205074667930603,-0.9324690103530884,0.0041404040530323
15.4985234375,4.387875477495789,-2.0767162576854226,-1.1059639306038618,2.402679273383319,-9.488475446221232,0.6052764353584498,-0.0586287565529346,-0.9146478772163392,0.067204363644123
15.5085810546875,3.871745571511984,-2.7475784602195024,-1.7826389110699294,2.4046540805876253,-9.486792023178934,0.6235458131510764,0.1192442923784256,-0.8152275681495667,0.0788034945726394
15.518640380859376,3.2221871460303664,-3.2474767778486013,-2.0016767987921837,2.4052346569545566,-9.486834108754993,0.6206714267585426,0.318001389503479,-0.6812777519226074,0.0215917453169822
15.5286982421875,2.252524075490236,-3.507584927105904,-1.978524763524532,2.3985117784403265,-9.490086973071095,0.5964720378624275,0.494631290435791,-0.5445500016212463,-0.0872742831707
15.538757080078126,1.3738394989922642,-3.227583744376897,-1.806733780145645,2.381914717774093,-9.49685047585666,0.5538182334629819,0.638366162776947,-0.4324374496936798,-0.1998158991336822
15.548815185546877,0.931130510789156,-2.4907395418912173,-1.8811362563095984,2.3564074976824223,-9.506305701944232,0.497886174089089,0.7006596326828003,-0.2903511524200439,-0.2874237596988678
15.5588740234375,0.871561154358834,-1.1720301017075776,-1.6750287234395742,2.324847553423047,-9.51703284766376,0.4376752683522179,0.6218591928482056,-0.040248766541481,-0.357530266046524
15.568932373046875,0.8114373789161443,0.7269044077515602,-1.1036155408468096,2.285911381307244,-9.528737898504732,0.3849061299886554,0.3991888463497162,0.3076943159103393,-0.4740022718906402
15.5789912109375,-0.1742554737962782,3.6432922051906576,0.8065234495200216,2.233867451945692,-9.542305236086248,0.353018305481784,0.0157905202358961,0.6724189519882202,-0.6544284224510193
15.589049072265626,0.0679826722495257,3.5657898633152243,1.928175509251654,2.1641613169044254,-9.558326396560668,0.353797765421681,-0.434967577457428,1.0414597988128662,-0.8602026104927063
15.5991083984375,0.1541061274759471,3.5833600067973133,1.8891075274497269,2.078037861678004,-9.575897124564648,0.3928658568214624,-0.903349220752716,1.3113296031951904,-1.0079658031463623
15.609166259765624,1.6079606818169354,1.0560293946117163,3.98139661732018,1.985885793811828,-9.591807225880029,0.473165245536901,-1.342276692390442,1.3944684267044067,-1.000374674797058
15.619225341796875,2.4201950563296672,-1.5182166980057954,5.736076385101676,1.9061274897031484,-9.601055531218648,0.597335194030404,-1.7762374877929688,1.2319695949554443,-0.7733985185623169
15.629283203125,1.9620640425890683,-4.936498370805382,7.801403233766555,1.8556399960033596,-9.598699323481322,0.7693894314553588,-2.189458131790161,0.9138128757476808,-0.4160102307796478
15.639342041015626,-0.7069226730830968,-8.83067263174653,7.714498272773623,1.8377337524347008,-9.584029577615857,0.9692711486130952,-2.103668451309204,0.3935754299163818,-0.0968088433146476
15.649400146484377,-4.152936840808391,-10.287256757181884,5.965919744476675,1.833703620135784,-9.56740811316073,1.1280996284358202,-1.17267906665802,-0.0955356657505035,-0.0555966943502426
15.659458984375,-5.818427920573949,-7.278003044518828,5.764672949510812,1.8159210029467936,-9.562362520208952,1.1975157675545662,-0.2297496646642685,-0.4252114295959472,-0.2699362635612488
15.669517333984375,-5.329131076458096,-1.198335340309143,5.847171199977398,1.7704495838433505,-9.56898924487233,1.2125813808698207,-0.0036683196667581,-0.4585059881210327,-0.5517876744270325
15.679576171875,-5.260196071919799,-1.1880366491347552,5.829917282837629,1.7015144331745802,-9.579287936046718,1.2298356633357703,-0.2260382920503616,-0.3510112762451172,-0.7658654451370239
15.689634033203124,-3.60255745922029,4.730356789535284,3.707465694415569,1.6177642829507588,-9.588640286281704,1.269331515160948,-0.4943126142024994,-0.2140712738037109,-0.8819031119346619
15.699693359375,-3.4526159040778874,5.511414812278748,2.8611659686937925,1.5288751624032857,-9.594725743675232,1.331978817731887,-0.7260403633117676,-0.2061082273721695,-0.8856414556503296
15.709751220703126,-3.4979543444514274,5.351498391088843,2.1459733337849376,1.44193381492272,-9.596417934545874,1.4142046809978783,-0.8920961618423462,-0.2499816715717315,-0.8447150588035583
15.719810302734375,-3.725663029885292,4.271725717318057,1.5390813529886305,1.3579475178554654,-9.5944837516129,1.5073904758259653,-0.9398177266120912,-0.2621563673019409,-0.8192095160484314
15.7298681640625,-3.897089856126904,3.096638566127419,0.8075812880098819,1.27588795106709,-9.591209844508766,1.5972447881437837,-0.8360745906829834,-0.2623294591903686,-0.7912822365760803
15.73992724609375,-4.263742901870608,2.3282366113394497,0.1932331459887325,1.1976684738982468,-9.588503508159516,1.6722988600842654,-0.6281036734580994,-0.3691696226596832,-0.7193036079406738
15.749985107421876,-4.416090349110961,1.8076526485562323,-0.1501106280989944,1.1255592232380065,-9.587760580837726,1.7257945956893264,-0.367211103439331,-0.5653785467147827,-0.5993056297302246
15.760044189453126,-4.119411003303528,1.558811158722639,0.1060248181350529,1.065457148170471,-9.58866542072296,1.7586093623153864,-0.1750852316617965,-0.7982701659202576,-0.3898455202579498
15.770102294921877,-4.077031997257471,1.55907010191977,0.0824272310569882,1.023078069059178,-9.588923194876312,1.7822069493934511,-0.1283006817102432,-1.0176056623458862,-0.1597002148628235
15.78016015625,-4.012209688735008,1.1328367399603128,0.1341645786873996,0.9953658862691372,-9.58721171478331,1.80693441728428,-0.1762990057468414,-1.0955787897109983,-0.0324763655662536
15.79021923828125,-4.3052293429911135,0.3538169450461864,-0.0865704683415591,0.9732486008767038,-9.58301367857158,1.8409215886905788,-0.3121037185192108,-1.0365681648254397,-0.031884878873825
15.800277099609374,-4.567876070815324,-0.667246934646368,-0.7024266768380999,0.9414089628931136,-9.577093056350948,1.8877061362192036,-0.4671438932418823,-0.9022620916366576,-0.3277329802513122
15.810336181640626,-4.72292225562036,-2.257819843810797,-2.0717944372437893,0.8549399821646511,-9.57372737931013,1.94505153298974,-0.5662190914154053,-0.3764659464359283,-1.2438547611236572
15.820394287109377,-3.373790204644203,-4.004565895983577,-3.6850437269881366,0.6843535522699356,-9.57759048447907,1.9929415575422345,-0.3959996104240417,0.3554959297180176,-2.2819690704345703
15.830453125,-1.9196558104485275,-4.869558923998475,-5.086048296281695,0.4409370100945234,-9.58782896989882,2.012342715843767,-0.0746359750628471,1.0006775856018066,-2.989874839782715
15.84051123046875,-0.4280868808716535,-4.212332448107004,-5.31360675958991,0.1666701697664335,-9.599369185566902,1.998685069630295,0.275879442691803,1.5922166109085083,-3.173856258392334
15.850570068359374,1.6071429356932638,-3.1212206341981887,-5.268443675783276,-0.0928106596390716,-9.609050037103891,1.956514591768384,0.5758416652679443,2.076132774353028,-2.907811164855957
15.860628173828124,3.060536740654707,-1.9149071546167131,-4.67597082709223,-0.3036134376532398,-9.617064416733385,1.8948061774827536,0.788841187953949,2.5146749019622803,-2.343024015426636
15.870687255859377,4.256657912045717,-0.7743629090189933,-3.794468855085969,-0.4467354672402143,-9.625300914680958,1.823292700758576,0.8885419368743896,3.0110743045806885,-1.6769555807113647
15.8807451171875,4.780174421149492,0.1852946080744266,-2.733595235313475,-0.5201413335822522,-9.634311319610475,1.7549653067246078,0.8335336446762085,3.4310336112976074,-1.049945592880249
15.890804443359375,4.283965605688095,0.4248316784679889,-1.2427036204762756,-0.5382369622431695,-9.64340589569211,1.698649545262754,0.7143148183822632,3.575507402420044,-0.612348198890686
15.900862060546874,2.6555741302609444,0.3099123368680477,-0.3651324120476841,-0.5287746122950687,-9.651488664382695,1.655158047930151,0.5603641867637634,3.369405508041382,-0.4358959794044494
15.910921142578124,0.6576736351370811,0.3218634714245796,0.0697048198670148,-0.5203068263422698,-9.656855159851908,1.6262876350156965,0.3665159046649933,2.7985382080078125,-0.4594585597515106
15.9209794921875,-0.7673113100070506,0.4412801244437694,0.2858179061837494,-0.5310945431426167,-9.658508772277832,1.6129336479239165,0.1737532317638397,1.998355269432068,-0.5763874053955078
15.9310380859375,-1.4045289440274238,0.6723983260601759,0.2897781881168484,-0.5693411255590617,-9.656640055796505,1.611068438573927,0.0509175844490528,1.0898560285568235,-0.722604513168335
15.94109619140625,-1.458587866473198,1.1172498792499304,0.0136066466785967,-0.6349921399906278,-9.651979662770032,1.6144506283581257,-0.0364041477441787,0.2880069613456726,-0.8460665941238403
15.951154052734376,-0.9511224015254528,1.379921741515398,-0.0192506439149379,-0.7204800007272512,-9.644707041418553,1.6220190177857874,-0.1199411153793335,-0.2846056818962097,-0.8987183570861816
15.961213134765623,-0.1330254916548728,1.4074334332972764,-0.0256647487409412,-0.8141801748182624,-9.635406713631747,1.6329221045941114,-0.1743118017911911,-0.6114962100982666,-0.8637131452560425
15.971271240234374,1.2978221349775791,0.642761312687397,-0.4299012368172407,-0.9035267568096518,-9.625057753574849,1.6469038681954145,-0.2356212437152862,-0.6943373084068298,-0.7399528622627258
15.981330078125,1.812789426922798,0.2291846032053232,-0.4475450300574302,-0.9772137051153928,-9.614453941974045,1.6666424417577683,-0.2982305288314819,-0.5735098123550415,-0.552339494228363
15.99138818359375,1.838590223133564,0.0696311701089143,-0.6257543560460209,-1.0283026718396693,-9.60438964407742,1.693717934079468,-0.349736601114273,-0.3046274483203888,-0.3513230085372925
16.001447021484374,1.3476140476286411,0.0099304423838853,-0.7507374110206961,-1.057765643819794,-9.594967151215672,1.7286191515907643,-0.4095540940761566,0.0047844965010881,-0.2101637125015258
16.011505126953125,0.562901594030857,-0.3238467541962861,-1.112846968115866,-1.0728665476441384,-9.585454641982912,1.7715516998663543,-0.4407309293746948,0.2604801654815674,-0.1670700311660766
16.021564453125,-0.4274059128701686,-0.4735924945056438,-1.5703836692251265,-1.0867774379663169,-9.575320785981416,1.81728571542874,-0.4285822212696075,0.4059509932994842,-0.2693212628364563
16.0316220703125,-1.0232407853402197,-0.4818845220327377,-1.8622192282631995,-1.1152308675777167,-9.563438625007867,1.8620700290508567,-0.4100977480411529,0.3889349997043609,-0.4850564897060394
16.041681396484375,-0.9993430462718008,-0.217784088268876,-1.946416245471686,-1.1675588745776564,-9.548763033923509,1.904817137756944,-0.3997854888439178,0.2925271093845367,-0.7379221320152283
16.0517392578125,-0.4712240118086337,0.0076274261385202,-1.9306078509651123,-1.2440722784809768,-9.530714167013764,1.9463196532294156,-0.4012150764465332,0.220014289021492,-0.9471589922904968
16.061797119140625,0.3702209673583507,0.0850210469424724,-1.9086650453567504,-1.335683371338248,-9.50994551975131,1.986775874519348,-0.3870106041431427,0.197354719042778,-1.0319253206253052
16.071856201171876,1.113600709092617,0.1513683730751276,-1.7079358445242043,-1.4291867076829077,-9.488006075143812,2.0262150277212263,-0.3818757534027099,0.1914741992950439,-0.9909733533859252
16.081914306640623,1.81350941176042,0.1903068832784891,-1.5210292712084947,-1.5145337717093523,-9.46619347178638,2.065859932628274,-0.3902045786380768,0.2048959136009216,-0.8746314644813538
16.09197314453125,2.4689573336720465,0.1951923172324896,-1.3910242964185773,-1.5857967808037996,-9.44549087549746,2.106741247462481,-0.3992760777473449,0.2245476394891739,-0.7184844613075256
