seconds_elapsed,acc_z,acc_y,acc_x,grav_z,grav_y,grav_x,gyro_z,gyro_y,gyro_x
4.031484375,2.643716811467707,1.6608897234499451,-0.7676940987795591,2.796956531372666,-9.384882969799635,0.5209417632449418,-0.272890567779541,-1.2327841520309448,-0.2321148961782455
4.04154345703125,3.3830756271228197,1.1922948911011215,-1.0179697861347348,2.770321622425317,-9.389143549853562,0.5828236709339544,-0.2575869858264923,-1.367597579956055,-0.1831345707178115
4.051602294921875,3.9558553488284343,0.4797767360985279,-1.083058125182241,2.7450658928766845,-9.3924911067158,0.6450687128469348,-0.2280356436967849,-1.458995699882507,-0.1689015924930572
4.061661376953125,3.935111543746293,-0.4640700484007596,-1.252358899180591,2.719571678397059,-9.395701300933956,0.7036378792587668,-0.1387228071689605,-1.5082902908325195,-0.1556326597929
4.071720458984375,4.0001211915344,-1.5560983926326035,-1.9291464001104237,2.6957123716428875,-9.398870578619835,0.751498458521068,-0.008446866646409,-1.4661593437194824,-0.1135119572281837
4.081779052734375,4.11341059384495,-2.7983587993860244,-2.50214765561223,2.6768440050438045,-9.401744088229536,0.7823626025360078,0.1413985639810562,-1.2684180736541748,-0.0592338070273399
4.09183837890625,3.498880519385636,-4.539120516452193,-1.967913937661052,2.664991654686629,-9.404262208530309,0.7925104870628565,0.2684424817562103,-0.9526395797729492,-0.0028744498267769
4.101897216796875,2.973898029382527,-4.180214723834395,-0.8517240157928317,2.662202023968101,-9.405682012200357,0.7849854983855038,0.3360191285610199,-0.6552891135215759,0.0820705369114875
4.111956298828125,2.285663544026017,-2.9113427890092134,0.1281046210613101,2.6700346172899008,-9.405029101249577,0.7659801344685256,0.3683043420314789,-0.4410237073898315,0.1708454191684723
4.12201513671875,1.5996800524666903,-1.3511094885289667,0.6687792587801814,2.686389539763331,-9.40244609901905,0.7400587806180119,0.3991815745830536,-0.3405833840370178,0.2294972836971283
4.132074462890625,1.015949020896852,0.2763262936085462,1.0052273550700397,2.7050889795362947,-9.399431135112046,0.7096196570821106,0.4148593246936798,-0.2734120786190033,0.1983039379119873
4.14213330078125,0.6911138401851058,1.817291414517164,1.5395625606343148,2.716433380371332,-9.39838074927628,0.6795631031230092,0.354651391506195,-0.2468683421611786,0.0750661566853523
4.1521923828125,0.7715148261114955,2.9071383230566976,2.3231568238571283,2.7133947433277963,-9.400661553689837,0.6598685878980904,0.1855188012123108,-0.2280765175819397,-0.1150276809930801
4.162251220703125,0.8629355109632014,3.1750135991841555,3.011935499092936,2.6893112724289296,-9.407569433382154,0.6600218787636607,-0.076089896261692,-0.2197887599468231,-0.3671861588954925
4.172311279296875,1.114852170458436,2.7117437612503767,3.745075878624618,2.640153858289122,-9.41939898738563,0.6891350874580443,-0.4210058748722076,-0.2149403840303421,-0.6434897184371948
4.18237060546875,1.9113275425642728,1.638721146261692,4.351263364413381,2.565679924324155,-9.43528979947865,0.7503312413726001,-0.7793152928352356,-0.0887116119265556,-0.8896395564079285
4.19242919921875,2.7644793261379004,-0.1929103437751531,4.655274952805042,2.475979195132852,-9.45168213135302,0.8400163346033542,-1.104015827178955,0.1091724708676338,-0.9844369292259216
4.202488525390625,2.3921599251955747,-2.971515810421109,4.660865320158004,2.38352449105829,-9.464864853531122,0.9515922840595245,-1.3296012878417969,0.2851144671440124,-0.9932786822319032
4.21254736328125,1.5446604682952163,-6.226777835318446,4.836826282697916,2.2950401519194243,-9.47364846396744,1.07385899274759,-1.4184974431991575,0.5024206638336182,-0.9338051676750184
4.2226064453125,0.0307023045167326,-9.093036450976133,4.750410858787596,2.2199970397643742,-9.47744025746584,1.1916983134474604,-1.3392947912216189,0.8567327260971069,-0.8014399409294128
4.232665283203125,-3.435091937825084,-9.779826290482282,4.263771543443203,2.162274334114045,-9.479431139022113,1.2788054459489882,-0.903294801712036,1.0328258275985718,-0.6677786111831665
4.242724609375,-3.389811365118623,-9.775155376061797,4.223286388319731,2.116994199799001,-9.484101468920707,1.319290454941988,-0.4010111689567566,0.970483422279358,-0.5648684501647949
4.252783203125,-6.30323505205512,-6.359187825423478,4.085320517653226,2.077618321091681,-9.492222231534123,1.3234801617167888,-0.1435466259717941,0.8617731928825378,-0.5306133031845093
4.26284228515625,-6.462877332478762,3.1184611063569783,3.696876495862007,2.0351006372272966,-9.50170317658484,1.3215198214292525,-0.2092654556035995,0.8250048160552979,-0.6050992608070374
4.2729013671875,-5.80374999140203,5.121487273931503,2.567533150975406,1.9824543580584224,-9.511256017827987,1.3327711371533573,-0.35857754945755,0.751306414604187,-0.7196961641311646
4.282960205078125,-5.325546788230538,6.07381956270337,1.418701992417127,1.9156049276225269,-9.5213209002465,1.358422149629891,-0.4445246756076813,0.5721824765205383,-0.8721192479133606
4.293019287109375,-5.240429879698157,6.085304248791933,1.3823701575808227,1.8304881652206184,-9.532805001813172,1.394753984466195,-0.4868295788764953,0.3442937433719635,-1.0360891819000244
4.303078369140625,-4.7004941507130855,5.925958320966362,0.4460794875495135,1.7261475007802247,-9.545991231122612,1.4369599720329045,-0.4699195921421051,0.1368191242218017,-1.2128665447235107
4.313137451171875,-4.575887527835369,5.941471531918644,0.4055095767520368,1.6015408779025078,-9.561503857553005,1.4775298828303811,-0.379261702299118,-0.0992917045950889,-1.3807330131530762
4.3231962890625,-4.768906008160114,5.165819752132892,0.1372495390906929,1.4590718505978584,-9.578632102486493,1.5137018509298563,-0.2956107556819916,-0.384270966053009,-1.493743896484375
4.33325537109375,-4.788991933855415,4.350327544867993,0.2975825782574713,1.306176560216397,-9.595873160144686,1.543857627479732,-0.1770889312028885,-0.6295607686042786,-1.498435139656067
4.343314453125,-4.270383655059337,3.2468443251639605,0.3483290151543915,1.1553776575922965,-9.61212754485309,1.562842460065335,-0.0319807343184948,-0.7868603467941284,-1.3812313079833984
4.353373291015625,-3.646262160912156,2.138932767623663,0.5043282629005611,1.019074897832423,-9.626498015511036,1.569200012398511,0.0781741738319397,-0.9220560193061828,-1.1437511444091797
4.363432373046875,-3.2483447928547857,1.0356295806616544,0.8029989286556839,0.908760711940378,-9.637099489024282,1.5718994806155562,0.0500514581799507,-1.1162046194076538,-0.7921159267425537
4.373491455078125,-3.2043478302180763,-0.0607791706115007,1.0993261000245809,0.8306464487116784,-9.642021747857331,1.5848733823485672,-0.1089617386460304,-1.293691635131836,-0.4305543005466461
4.38355029296875,-3.4850796653091907,-1.3780945260882378,1.063907580640912,0.7796316432021558,-9.640470426762104,1.619842988920957,-0.4081963896751404,-1.3480169773101809,-0.2033493816852569
4.393609375,-3.9513650516718624,-2.9946587855994697,0.4766228021122515,0.7396930891107767,-9.6323601855427,1.685490934612602,-0.7391244769096375,-1.1630476713180542,-0.2298010885715484
4.40366845703125,-3.4632097788065668,-4.869932433485984,-0.9308049320966004,0.6739646985940635,-9.621723056194186,1.7716186276227237,-0.8922637104988098,-0.2257427871227264,-0.934758722782135
4.41372705078125,-1.023289081461355,-7.062735322985053,-2.783907080185413,0.5469928078897297,-9.615424248310925,1.847924160929024,-0.671453058719635,0.8178170919418335,-1.7886532545089722
4.423786376953125,0.0950911900579929,-6.813011205098032,-4.364925394541025,0.3662415788659826,-9.617048050120472,1.8837842866003511,-0.1713159084320068,1.5664955377578735,-2.375178813934326
4.43384521484375,0.7463748318970203,-4.702554005852341,-5.552871442782879,0.1574364774750545,-9.625245969623329,1.870888564670086,0.3307487368583679,2.053457260131836,-2.6032211780548096
4.443904541015625,1.4465046299695967,-2.712276260691881,-5.390130611822009,-0.0488890089945867,-9.636116907727718,1.8202262989252804,0.6654713153839111,2.27187442779541,-2.445714473724365
4.453964111328125,1.9581810636758803,-1.0112409893363714,-4.425678553928434,-0.2256772892041131,-9.646547116327286,1.7503076901771126,0.8209040760993958,2.2326812744140625,-2.016720533370972
4.464023193359375,1.9818062694132328,0.3259831817030906,-3.3660698395252227,-0.3585370323706418,-9.655887776124477,1.6750154255665837,0.856143593788147,2.070937156677246,-1.4805474281311035
4.474082275390625,1.5959364820241928,1.6034335597813127,-1.7301712033383547,-0.445522730449587,-9.665010409256816,1.599836850463599,0.8517755270004272,1.8870083093643188,-0.990341305732727
4.484141357421875,0.7635503500383347,2.1731606159180403,-1.0063136159367858,-0.495698637449555,-9.67419558623135,1.5279504487738012,0.7927790284156799,1.771327018737793,-0.657711386680603
4.4942001953125,0.7946154234528541,2.181003146111965,-0.9450168511919677,-0.5267645511142909,-9.682036947381496,1.4666535378985106,0.640475332736969,1.7571238279342651,-0.5510873794555664
4.50425927734375,-0.5005003386428579,2.835733713534474,0.2551473119795322,-0.5565391828594729,-9.686591541945932,1.4249835569046436,0.4091901481151581,1.7174842357635498,-0.5933637619018555
4.514318359375,-0.7849508654635399,2.544668115955591,0.2595991768218577,-0.5981497618163004,-9.687468324780465,1.401976483065635,0.276598572731018,1.6134964227676392,-0.7627703547477722
4.524377197265625,-0.9471417343914508,1.9248264910846948,0.2941024810567498,-0.6629590281940996,-9.685482119399309,1.3864775928996502,0.2502623200416565,1.4248656034469604,-1.011203646659851
4.534436279296875,-0.6041009618382901,1.3091010693609717,0.5507371089845895,-0.7555057214010507,-9.681025139990448,1.3701608104795218,0.2697015404701233,1.1202783584594729,-1.2412830591201782
4.544495361328125,0.016841317750886,0.7682049709111451,0.8897957530990243,-0.8697753669206052,-9.674036011755463,1.3516257674880323,0.2612529098987579,0.757074236869812,-1.3524407148361206
4.55455419921875,0.5376467412650585,0.3959796779930591,1.274140522877872,-0.9935928852472454,-9.66438321726918,1.335240011484921,0.1802266836166381,0.4818886816501617,-1.3506712913513184
4.56461328125,0.8960555441461503,0.1342073949158191,1.8593612084835769,-1.115275072045624,-9.651758713495733,1.3304637369938197,-8.23801383376e-05,0.4051353335380554,-1.261393666267395
4.57467236328125,1.2511211740791797,0.0283382057338953,2.049607009224593,-1.2226901754952966,-9.636419105544686,1.347166596122086,-0.2449553161859512,0.4259117841720581,-1.0505123138427734
4.5847314453125,1.3328475633904338,0.0119628249943256,2.0098226958468555,-1.3044172954589128,-9.620046062892674,1.3869510556302964,-0.4447355270385742,0.5043085813522339,-0.7651799321174622
4.594790283203125,1.2521077008984982,-0.1242734454005956,1.311622989054024,-1.357902071278542,-9.604266309958696,1.4438039927087722,-0.5677928328514099,0.5750544667243958,-0.5115664005279541
4.604849365234375,0.9726841719269752,-0.2398287468165159,0.783290457970649,-1.3913704795077442,-9.589416531351208,1.509157485498488,-0.6111248135566711,0.6118378043174744,-0.3845231831073761
4.614908447265625,0.6239537363648414,-0.3347492564827203,0.2777669939361512,-1.4206240465208888,-9.57395358928144,1.5784873345732688,-0.6413663625717163,0.6499940752983093,-0.4469473659992218
4.62496728515625,0.5617747819580138,-0.3351549146741628,-0.6947869757398962,-1.4609471429504453,-9.555590834116936,1.651270538972318,-0.6703466176986694,0.6775546073913574,-0.6210789680480957
4.635026123046875,0.5820411787867545,-0.3721007897555828,-1.7871639872789382,-1.518173589516431,-9.533310028725865,1.726710541490465,-0.6870887875556946,0.6668088436126709,-0.8069180250167847
4.64508544921875,0.6780408619917929,-0.3914332667350769,-2.758707172477245,-1.591129227872938,-9.507542550262809,1.8014754212260244,-0.6641626954078674,0.5856674313545227,-0.9399769902229308
4.65514404296875,1.2332932564437389,-0.2216553767442703,-3.366273253142833,-1.6726294072128831,-9.480098663020131,1.8709445326410232,-0.6029129028320312,0.4868022501468658,-0.9575068354606628
4.665203369140625,1.3119288401328026,-0.2482604750752449,-3.4279230691090223,-1.7512651370324193,-9.453494733732938,1.9325947869986293,-0.5319835543632507,0.3958643674850464,-0.8603888154029846
4.67526220703125,2.022688899421692,0.0585503886461257,-3.595877543064952,-1.818134587343037,-9.429754961705209,1.9860759095564484,-0.4609177708625793,0.2980957329273224,-0.686778724193573
4.6853212890625,2.4182678876593706,0.0755038615345954,-3.535357900172472,-1.870144906695932,-9.410046052628754,2.030751648237556,-0.3867785632610321,0.2011782228946685,-0.5228075981140137
4.695380126953125,2.310857314254344,-0.3600502864778042,-3.2449972359925505,-1.9105759935446085,-9.393776470351218,2.068097044030577,-0.3413936197757721,0.1292446106672287,-0.4108304679393768
4.705439453125,1.909844318269193,-1.1289707121819257,-2.886756629285216,-1.9439613996654748,-9.379480818495152,2.1016082684881985,-0.324283629655838,0.1041871979832649,-0.3496927917003631
4.715498291015625,1.4220786292433738,-2.082564399191737,-2.755246510629356,-1.972894940944016,-9.366059026864171,2.134250601156801,-0.3116575181484222,0.1752611845731735,-0.3273361325263977
4.725557373046875,1.12883218049407,-3.170536161509156,-2.9432524234890938,-1.997628400184214,-9.353233447560669,2.167231810390949,-0.2719468474388122,0.3570360541343689,-0.3218928873538971
4.7356162109375,1.0676663486525415,-4.046947824639082,-3.393797804406285,-2.0187632504105566,-9.341429027998446,2.19834313409999,-0.1837732791900634,0.5690023303031921,-0.3471563160419464
4.745675537109375,1.177010812729597,-4.388963857254386,-3.873037072627246,-2.038324859970808,-9.331308031478525,2.2231328535720705,-0.0466881319880485,0.7855250239372253,-0.3891882002353668
4.755734130859375,1.813932751739025,-4.225243952128291,-4.123529544538259,-2.055897195409983,-9.323693464821575,2.2388436329230665,0.0943815261125564,0.9582266807556152,-0.3953909277915954
4.765794189453125,2.988146627226472,-3.697152974715829,-3.9681729786098,-2.067276375297457,-9.319671369698645,2.245095532924682,0.2234622836112976,1.1053860187530518,-0.3355782032012939
4.775853515625,4.161906913727521,-3.260377760475874,-3.549775424842536,-2.066830969617516,-9.31995486281514,2.2443371157728134,0.2878516614437103,1.1749733686447144,-0.1977912932634353
4.785912353515625,4.889471538953483,-2.860790997901559,-2.769395739752054,-2.048901491303742,-9.324349298381804,2.242522029174864,0.2498563677072525,1.1366432905197144,0.0372787415981292
4.795971435546875,5.5638242139518255,-2.4900223335325715,-1.7551564453825357,-2.00499308373332,-9.33284415500462,2.246865465206653,0.1188802570104599,1.0353981256484983,0.381258875131607
4.8060302734375,6.172210963350534,-2.24255622370541,-0.7913169664293527,-1.929087363399565,-9.34507936719954,2.262404102861136,-0.0462604984641075,0.8626965880393982,0.7777367234230042
4.81608935546875,6.065529873263835,-2.427844402039051,-0.1772350741289556,-1.8216573546417056,-9.360755075237154,2.2865265905961394,-0.1490314453840255,0.6762806177139282,1.1194158792495728
4.826148193359375,5.547470460522175,-2.930364884865284,-0.0297499722279608,-1.6902623867981137,-9.379123091098666,2.312022704771906,-0.1708904057741165,0.4809420108795166,1.376716136932373
4.836207275390625,5.0251101357162,-3.2063001333296297,-0.5006492821268737,-1.5390033193163573,-9.399620520204303,2.334308478599042,-0.1611275523900985,0.3116817474365234,1.6338505744934082
4.846266357421875,4.868734163612127,-3.043721799454093,-1.3508955535173417,-1.3645210510268806,-9.422438501212,2.35077431410104,-0.1182908713817596,0.1194151043891906,1.947660207748413
4.8563251953125,3.0565584846735,-2.2195634706526994,-3.2296330781221387,-1.163792288585752,-9.447680494496224,2.357395485806465,-0.0362691357731819,-0.1884522587060928,2.285400867462158
4.86638427734375,0.8796610203146934,-1.787593026345968,-3.726839672449231,-0.941161710133776,-9.473983395010231,2.3512211810857058,0.0598725788295269,-0.690223217010498,2.5874552726745605
4.876443359375,-1.38732178863883,-1.6770160978645086,-4.231926790893078,-0.7079044506620615,-9.499116667222976,2.331529223144054,0.1631510257720947,-1.401464819908142,2.786073684692383
4.88650244140625,-3.001911533206701,-1.7692542365789412,-4.607976318274438,-0.478659093712829,-9.521501517510414,2.298319758111983,0.2847094237804413,-2.1925199031829834,2.8498876094818115
4.896561279296875,-3.6944109825313087,-1.5997265219569206,-4.431625479634106,-0.2650005244087428,-9.540043720895053,2.255595007368177,0.3790337145328522,-2.864968776702881,2.795393943786621
4.906620361328125,-4.032844480484724,-1.4721160410881042,-3.925170872229337,-0.0711163169330218,-9.554080429553984,2.210174295538664,0.4342117309570312,-3.3144752979278564,2.672931671142578
4.916679443359375,-4.357557496121525,-1.6668518467247486,-3.314491627979278,0.1033601472367532,-9.56419850346446,2.164676134558767,0.4931306540966034,-3.451013803482056,2.4983010292053223
4.92673828125,-4.478701995846629,-1.9944787039816376,-2.3152678241729734,0.2619142488311976,-9.570713584446906,2.1220858238495883,0.4805426895618438,-3.066746234893799,2.252797365188598
4.93679736328125,-4.284779844680428,-2.241913834148645,-1.0661761100947855,0.40991424145177,-9.572873977351188,2.0886500027157364,0.3747622668743133,-2.104374408721924,1.965368628501892
4.9468564453125,-3.655141632938385,-2.715942966505885,0.0276053614147007,0.5576430159155279,-9.57065220964849,2.064478122881055,0.2695956230163574,-0.7107413411140442,1.7396297454833984
4.956915283203125,-2.537989953365922,-3.3193010740876194,0.9914328576691448,0.7245316872708499,-9.565244213125109,2.037531517636031,0.275285929441452,1.031042218208313,1.6854158639907837
4.96697412109375,-1.40977678155303,-3.9481320611000057,2.599393393355608,0.9294397812232374,-9.55740986623764,1.9905903182409703,0.3581424653530121,2.901482105255127,1.757991075515747
4.977033447265625,-0.0069001347772777,-4.555226432600617,4.816697686904669,1.1785628644771873,-9.546023964348436,1.9117576045446096,0.4619832336902618,4.429718017578125,1.920817852020264
4.987092041015625,0.9823943956889212,-4.553192296424508,7.104819145476817,1.4590930395163595,-9.529353400054571,1.7980194355532526,0.5693227648735046,5.013828277587891,2.0331618785858154
4.9971513671875,0.7484037073761224,-3.363845733734965,7.638016506117582,1.7333359509795905,-9.507831304076314,1.6634567974589765,0.6521375775337219,4.37741231918335,1.9358277320861816
5.007210205078125,-1.7995903381317853,-1.7575427559971808,5.805407695481181,1.964042064663768,-9.48562882461846,1.528331264784932,0.7277711033821106,2.9434163570404053,1.6078509092330933
5.01726953125,-5.330389552086592,-0.1359796652853488,3.75926339393109,2.1172214326836167,-9.469856670469046,1.4175988534808155,0.7104557156562805,1.0733577013015747,0.9583362340927124
5.027328125,-4.646171608895063,-0.0863426509350538,3.6677886408045888,2.180892233083397,-9.465473925340175,1.3486622415073215,0.5436102747917175,-0.0737238526344299,0.2669253051280975
5.037387451171875,-2.705498729380965,0.1560731897652149,2.7141175046443937,2.179822119633853,-9.471611989703774,1.3066449083805085,0.4586921036243438,-0.2757137417793274,-0.1904897689819336
5.0474462890625,-0.7940965141452848,0.7403045720726251,0.828284761081636,2.1531052314914763,-9.48362917523384,1.263050242934376,0.5179032683372498,0.1812268942594528,-0.2900030314922333
5.05750537109375,-0.7736261191770434,0.7546937474310398,0.9039498775925486,2.1326348365232346,-9.498020104157924,1.1873852725539356,0.9635661244392396,0.3940655589103699,-0.2156853973865509
5.067564208984375,-1.9995003315359352,0.655969169306755,-3.0061683138683435,2.121604762334377,-9.515562775111198,1.059831928699836,1.4984474182128906,0.4237973690032959,-0.0894648730754852
5.077624267578125,-2.431440088443458,0.7954378457516431,-3.961245809695124,2.1297702408723533,-9.530233105498551,0.8995107991665601,1.5840497016906738,0.40192312002182,0.1836643069982528
5.087683349609375,-2.1093393011316657,1.8321885393977164,-0.9513159513361752,2.1632086923547087,-9.535231936699152,0.7551410528071224,1.2802722454071045,0.1029395908117294,0.4603939056396484
5.0977421875,-3.202133076778054,3.162963680428266,0.4577515129037201,2.2167696021504697,-9.530492633217571,0.6527091445975005,0.9110654592514038,-0.3028433918952942,0.6670829653739929
5.10780126953125,-3.709697983512282,3.780701026496291,0.1614882370838895,2.285297487192601,-9.518554358142614,0.5872982590647414,0.6891583800315857,-0.5611414909362793,0.8043910264968872
5.1178603515625,-3.679746497362852,3.675203008714318,-0.4982616928705945,2.360241961278766,-9.50313817782402,0.5385141717493533,0.6666940450668335,-0.7351220846176147,0.8357707262039185
5.127919189453125,-3.745685827216506,3.3300685518175364,-0.73583824031353,2.435309184961766,-9.486608483305574,0.4938743080992251,0.6465946435928345,-0.7841570377349854,0.8179744482040405
5.137978271484375,-3.1648171993404626,3.4784856738716363,0.0937000279605388,2.507758188970387,-9.469676053205133,0.4547217167537659,0.6290568113327026,-0.9957450032234192,0.791191816329956
5.148037353515625,-3.2207991988033053,3.238393892204761,0.6297926716513932,2.577657070104778,-9.452245025932788,0.4256012746009975,0.591219961643219,-1.3002769947052002,0.7932752370834351
5.158096435546875,-2.9294141600117087,2.872907552152872,1.2249667421251536,2.648244810286164,-9.433467844748495,0.4084774501143023,0.5334213376045227,-1.5086199045181274,0.8319124579429626
5.168155029296875,-2.2813395433470607,2.5643372775435447,1.8241817585527893,2.7223209771052,-9.412651266691087,0.4016775243084877,0.483562171459198,-1.5574398040771484,0.8637995719909668
5.17821435546875,-1.975634302780032,2.310996722725033,2.194771266962588,2.798042280782759,-9.390501394203303,0.3997950715627521,0.4669932425022125,-1.4965603351593018,0.8632575869560242
5.188273193359375,-1.8601620034724475,1.985835963320732,2.3541249397031963,2.8717122048884627,-9.368506420016288,0.3933711029298603,0.5281564593315125,-1.3282005786895752,0.8162599802017212
5.198332275390625,-1.8156220200002195,1.8346201504588129,2.301832588538528,2.9401486122548577,-9.347924235236643,0.3771293585073202,0.5727105140686035,-1.13428795337677,0.7305623888969421
5.208391357421875,-1.8785878870010373,2.1107839469820258,2.4962790558397767,2.997428250312805,-9.330648690786957,0.3532699421552941,0.5556535124778748,-0.855291485786438,0.5652980804443359
5.218450439453125,-1.797612023796141,2.4279122065782546,2.629268891659379,3.0399031179487706,-9.317825449571012,0.3278696165041997,0.4883594512939453,-0.747890055179596,0.398257851600647
5.22850927734375,-1.8873422713428731,2.3792115962952374,2.410413374766707,3.067534052196145,-9.309377354699372,0.3099982615858316,0.402903139591217,-0.8180622458457947,0.245348185300827
5.238568359375,-1.3297469670265911,1.364393917515874,1.097882988544181,3.081105481430888,-9.305212051713466,0.3003308540523052,0.385627806186676,-0.9276111721992492,0.1043485030531883
5.24862744140625,-0.8331637652948498,0.9635095163464544,0.5893306782077997,3.081618691650033,-9.30520796006024,0.2951773072140291,0.3631211519241333,-0.980459988117218,-0.0294495020061731
5.258686279296875,-0.821585555703938,0.9674667295396328,0.5934913050185888,3.0700396052762864,-9.309164004209638,0.2910166073380038,0.3769901096820831,-0.975230634212494,-0.156211718916893
5.268745361328125,-0.2988464607134461,0.6557973198711872,-0.3628563203418627,3.0469413460224866,-9.31697263213396,0.2838476472903974,0.4049716889858246,-0.9100343585014344,-0.2735055983066559
5.278804443359375,0.1596419881626963,1.3732231206595895,-0.2810547834351659,3.015219343069196,-9.32766003036499,0.271328320924472,0.3902445137500763,-0.782260000705719,-0.343946099281311
5.288863525390625,0.386826357461512,2.2901240305662154,-0.2612629453156143,2.9798700895294545,-9.339253437525034,0.262909050288517,0.2687245011329651,-0.7416635751724243,-0.3579133152961731
5.29892236328125,0.7351625330090522,2.817477925875783,-0.6652600716780871,2.9454738989308478,-9.350057155612111,0.2664757297941483,0.1369954943656921,-0.778035044670105,-0.3293539583683014
5.3089814453125,0.9059034228131174,2.8727976620376108,-0.890162686715275,2.9125486576676365,-9.35988706023097,0.2827835069239139,0.0309140551835298,-0.8616350889205933,-0.3269043862819671
5.319040283203125,1.1702826735183596,2.3654344153553244,-0.953981371153146,2.8771152329757808,-9.369970062828065,0.31024029018078,-0.0476678311824798,-0.9641746282577516,-0.3755888938903808
5.329099365234375,1.5128373430550095,1.6560434524625538,-0.865239696252346,2.834882941924036,-9.381533659371732,0.3473439131071791,-0.1081197261810302,-1.1139880418777466,-0.4472276568412781
5.339158203125,2.0945985358566044,0.9227408681064844,-0.9214495131216944,2.785083430488408,-9.394623442569374,0.3933782998556271,-0.1495591700077057,-1.2621461153030396,-0.5108875632286072
5.349217529296875,2.842984999836981,0.2196563118815422,-1.2850699131712318,2.7296690017804504,-9.40860111451745,0.4444060744445771,-0.1508105993270874,-1.3595643043518066,-0.5342496037483215
5.359276123046875,3.557241815200448,-0.5199684612333775,-1.7103998965501783,2.674566123239696,-9.42195334804356,0.4938461049180477,-0.0922191962599754,-1.389265060424805,-0.4842548370361328
5.36933544921875,4.292603085651994,-1.4915052166908978,-1.908158264878392,2.626639419938624,-9.43323695860207,0.5340361495524645,-0.0102444365620613,-1.2423720359802246,-0.3763352930545807
5.379394287109375,4.5465649872392415,-2.795789825680852,-2.154629372318834,2.591597624912858,-9.44142377218902,0.5599414655836299,0.0904873833060264,-1.023371696472168,-0.2271782159805297
5.38945361328125,4.096031004498899,-4.272032591310143,-2.396431172773987,2.5719702566400167,-9.446145540013909,0.570702915431559,0.2005614191293716,-0.8820398449897766,-0.0766195878386497
5.39951220703125,2.9746544007077813,-5.261630488637089,-2.478318159474432,2.5638825195133683,-9.44849531801045,0.5681941474810243,0.320682942867279,-0.8689759969711304,0.000572279561311
5.409571533203125,1.9685519433036445,-5.0384687989830965,-2.0892329171702264,2.559182086737454,-9.450490875741838,0.556046029047668,0.4122983515262604,-0.9136505126953124,0.0005064997822046
5.41963037109375,2.0400527066767213,-3.2443881641834973,-1.324312667018175,2.5548691919744013,-9.452662374562024,0.5387151011489332,0.4282135665416717,-0.8745714426040649,0.0233022551983594
5.429689453125,2.582158473177254,-0.6939940717965364,-0.9484928567394614,2.5571456124737857,-9.45308264580071,0.520229998246394,0.3997534215450287,-0.762130618095398,0.1199305281043052
5.439748291015625,2.5718477993041278,-0.6958370693147182,-0.9309208135612308,2.5674554095640776,-9.451238479238748,0.502658101198636,0.3163243532180786,-0.5246874690055847,0.1479563564062118
5.449807373046875,2.311756601181626,1.7193360671997069,-0.4055221805052831,2.573911453835666,-9.450213812366128,0.4887206881957128,0.1675354093313217,-0.2193083614110946,0.0081595834344625
5.4598662109375,1.1899001049190758,3.802793031316996,0.6144023564264178,2.562861067511141,-9.453408224493264,0.4849851914618164,-0.0509529635310173,0.0334281399846077,-0.2393450289964676
5.46992529296875,0.0977121862113475,5.243693265408277,1.914346305863559,2.5266324007883667,-9.462426228207349,0.4990089310413226,-0.3168613314628601,0.1672903448343277,-0.5379578471183777
5.479984375,-0.7108996138900519,5.722749286016821,3.250981571099162,2.461360594932734,-9.47715676434934,0.5436782765142619,-0.7316737771034241,0.1820346415042877,-0.8551551103591919
5.490043212890625,-1.1076090674623846,5.270592962771654,5.01434850320518,2.3680068961918352,-9.495462236368656,0.6317774887930602,-1.2100605964660645,0.1894576698541641,-1.1043751239776611
5.500102294921875,-0.4412311707355081,3.715874041798711,6.131495506602525,2.259477840150893,-9.511936985829472,0.7669475912611932,-1.7158823013305664,0.1898028999567031,-1.1683980226516724
5.510162353515625,0.6443412753552198,0.8051368174672127,7.430814602139591,2.155228799516708,-9.519431725499034,0.951734176748246,-2.2026495933532715,0.1185236573219299,-1.0141295194625854
5.52022119140625,1.2887182065457106,-3.4375247179299597,8.762852310451864,2.07378824140951,-9.513460249873996,1.167847555325925,-2.2573227882385254,0.1602015644311905,-0.6971192359924316
5.5302802734375,0.9907608036264776,-9.43995486868024,9.216275877153873,2.028477419695258,-9.499527586111428,1.3470914850592612,-1.5056098699569702,0.2127100527286529,-0.3142563104629516
5.540339111328125,-1.696542051589489,-13.713168778729438,8.949353956228494,2.0095837725244463,-9.489638060259818,1.4417799395352602,-0.5913219451904297,0.0759518668055534,-0.1527692526578903
5.5503984375,-5.44220040627718,-11.169114410758018,8.047347833114863,1.991707193441689,-9.487160856491329,1.4823229623258114,-0.3517886996269226,-0.0584735795855522,-0.2452794909477234
5.56045703125,-6.196736332798004,-4.610885191458463,7.097419682875275,1.9585506276406344,-9.487371284371614,1.5245495542891323,-0.5245354175567627,-0.0190265737473964,-0.436000108718872
5.570516357421875,-4.885914138732851,0.5084510419189929,5.108797888228297,1.9094725623473523,-9.488204812586307,1.580601550248265,-0.6594218611717224,0.1584185063838958,-0.6135474443435669
5.5805751953125,-4.257040481622517,3.417882444348931,2.747707639557123,1.844284050861001,-9.491075399586558,1.6396671949401498,-0.6569750308990479,0.2628740072250366,-0.8358802795410156
5.590634521484375,-5.056624633398652,5.123552389767766,0.7945780140519142,1.754870760308951,-9.498209489250184,1.695541496244818,-0.5899238586425781,0.1650073677301406,-1.123826265335083
5.600693115234375,-5.925594163829087,5.375778261342645,-0.306421426012367,1.633688558921963,-9.510715335080029,1.7457855365775523,-0.48128142952919,-0.0319270938634872,-1.427179217338562
5.61075244140625,-5.41323617759943,3.943613706892728,-0.2338198617905378,1.4856978455863892,-9.527192422628405,1.7876568853624164,-0.3466362655162811,-0.1720250844955444,-1.5925320386886597
5.620811279296875,-4.627590242543817,2.807092140939832,0.1368454883344471,1.3277816583029924,-9.544973578512668,1.8168229202225803,-0.201060876250267,-0.2565279304981231,-1.602743148803711
5.630870361328125,-4.063964425891638,1.92977856053412,0.3022207594521343,1.1738638199407607,-9.562043955779076,1.8329582085959613,-0.0538368001580238,-0.3420974314212799,-1.462438702583313
5.64092919921875,-3.316206030681729,1.2343477339327336,0.3175596367508173,1.0399190214838832,-9.577093056350948,1.835276568540931,0.0902237519621849,-0.3926593065261841,-1.1630369424819946
5.65098828125,-3.194237939614057,0.9022177200376988,0.3805700735457241,0.9380022231895476,-9.589128946581482,1.8273327699296176,0.1431282460689544,-0.4762761890888214,-0.7874559164047241
5.661047119140625,-3.2906746990621087,0.4476362154722213,0.2698769713386893,0.8701368937093764,-9.596329087218642,1.8231041924491524,0.0352797023952007,-0.6483597755432129,-0.4144894778728485
5.671106201171875,-3.454860468134284,-0.4399041599154472,-0.5338021946661174,0.8314140720833092,-9.59808440645337,1.831908261151612,-0.0919400379061698,-0.7902876734733582,-0.1261655539274215
5.681165283203125,-3.587604220238328,-1.5688333710432052,-1.3196112113289535,0.810629423534125,-9.59472983532846,1.858605860071629,-0.3435465395450592,-0.7346782088279724,-0.0351578556001186
5.691224365234375,-3.463333112925291,-3.110910837107897,-2.830307596832513,0.7870647888775915,-9.586737667530777,1.9092881456911563,-0.5924714207649231,-0.4544375240802765,-0.2812248766422272
5.701283203125,-1.3516975175499917,-4.597044297632575,-4.307480629049241,0.7148401682093739,-9.57977133564949,1.971637488228828,-0.6751837730407715,0.6623748540878296,-1.283281326293945
5.71134228515625,-0.6883535086262971,-4.509222221794724,-5.017908826035261,0.5677454173328355,-9.579307225269078,2.0211163894079625,-0.4805498421192169,1.6867650747299194,-2.2302134037017822
5.7214013671875,0.2314063343754038,-3.220564805525541,-5.29687774310708,0.3645999491387978,-9.585121464505791,2.0403147186137733,-0.1101193502545356,2.38393235206604,-2.8022799491882324
5.731460205078125,1.4696090267032385,-1.782714606654644,-5.018806067135929,0.1380973424259107,-9.594081600552796,2.0260536996796725,0.2601490020751953,2.8677961826324463,-2.955538272857666
5.741519287109375,2.5473709451735016,-0.6769418147087096,-4.32985291211605,-0.0759557563208276,-9.603161563587188,1.985929486823082,0.5405449271202087,3.0964810848236084,-2.679408550262451
5.751578369140625,3.114993137985468,0.1049976670444011,-3.633793139961362,-0.2468894059177488,-9.6117756626755,1.929570763002336,0.7233714461326599,3.103283166885376,-2.103243589401245
5.76163720703125,2.6826889316797256,0.6936959656327962,-3.1250235336124894,-0.3615103856256231,-9.621076574984192,1.8640277389898896,0.8215543031692505,2.947270631790161,-1.4674335718154907
5.7716962890625,1.4693348859369757,1.006440895578265,-2.5115929448276755,-0.4265100600089878,-9.632150926706194,1.7916861408784983,0.8963233232498169,2.805385112762451,-0.9976460337638856
5.78175537109375,0.031098902618885,1.1870844629764556,-1.4978407033227383,-0.4628034259984269,-9.6435537797302,1.719902761171758,0.8129374384880066,2.616509437561035,-0.7621936202049255
5.791814453125,-0.5884370903689414,1.2984499114871024,-0.443441540261358,-0.489253443365544,-9.651970310419795,1.664484533071518,0.5541051030158997,2.282864809036255,-0.6560080647468567
5.801873046875,-0.80796948360987,1.537609965261817,-0.0734790777087211,-0.5191670817226172,-9.65515186306536,1.63674297805652,0.2428080737590789,1.8513338565826416,-0.687707781791687
5.811932373046875,-0.5830127272326499,1.5174772778153418,-0.3707026133954524,-0.5677003726147115,-9.653424600881335,1.6308010207869112,0.0878954529762268,1.419366478919983,-0.8808236718177795
5.8219912109375,-0.5045184517104179,1.51272511485219,-0.3696127723321318,-0.646194794267416,-9.648671853396296,1.6297111797235906,0.0982959643006324,0.97422194480896,-1.141740083694458
5.83205029296875,0.0582101969063282,1.0817238078385591,-0.4590459366284311,-0.7546236778695136,-9.64204220612347,1.622328668256849,0.1612807810306549,0.5114473700523376,-1.324636936187744
5.842109130859375,0.8122456996243447,0.4774509234994649,-0.2920369268290698,-0.8804799354821443,-9.63392670420706,1.6070523348003625,0.1933260113000869,0.0816500931978225,-1.3476572036743164
5.85216845703125,1.6404489929676056,0.0910597425848245,-0.0228084825269877,-1.0064341735765336,-9.62447206264138,1.5896636853650212,0.1407591998577118,-0.1794440895318985,-1.2144469022750854
5.86222705078125,2.4132068048775195,-0.1051473046481609,0.3958887848392128,-1.1155494320075958,-9.614113750234246,1.5794770762629806,0.0133170988410711,-0.2204810082912445,-0.9574199318885804
5.872286376953125,2.867785971355438,-0.1975444333165883,0.7177128010362386,-1.1943882831837982,-9.60371744390428,1.585060137092322,-0.1709667295217514,-0.0585991628468036,-0.6179412007331848
5.88234521484375,2.9248037436068057,-0.1535983240842819,0.7278520638652145,-1.2362936073035,-9.59379460030496,1.6127790418840944,-0.383014053106308,0.2246856242418289,-0.2839658260345459
5.892404296875,2.377829348156601,-0.0106406364798545,0.3600730828315019,-1.2462699346557258,-9.583972294470668,1.6627278986625371,-0.539649486541748,0.5333699584007263,-0.0710602179169654
5.902463134765625,1.3843011256434024,0.0989338369607925,-0.3002367460280656,-1.2393017030782998,-9.573686462777852,1.7259838346511125,-0.590214192867279,0.7828781604766846,-0.0403929054737091
5.9125224609375,0.2860207352794706,0.1671890425413847,-0.9333120926119388,-1.234124008179456,-9.56203518795073,1.7929799800813198,-0.5791865587234497,0.8934919834136963,-0.1823537647724151
5.922581298828125,-0.6615979689739644,0.2787017905682325,-1.2956238942809402,-1.2483758208937945,-9.548001986423134,1.8567647622495889,-0.5240045189857483,0.7759926915168762,-0.4504468441009521
5.93264013671875,-1.471725434335321,0.4669184235692024,-1.7287082911789415,-1.2940266882173717,-9.531066633713245,1.9117149344466624,-0.4576137661933899,0.4963016808032989,-0.743269145488739
5.94269921875,-1.4238624439202248,0.7065969482600688,-1.9557003527760504,-1.3674775627449154,-9.51097310923338,1.9600395510241388,-0.4539742469787597,0.2603391408920288,-0.9243584275245668
5.95275830078125,-0.1947824212573468,1.0098539188921452,-1.8397896620512009,-1.455271873793006,-9.488170325794815,2.0067852278470992,-0.4737202525138855,0.0803792178630828,-0.9637415409088136
5.962817138671875,1.0792251228906211,1.0486153189629317,-1.9151890402980147,-1.5434011158838867,-9.46468248270154,2.0513589674584565,-0.4569132626056671,-0.0728277191519737,-0.8714288473129272
5.972876220703125,2.047736831438541,0.4918593880802392,-2.094258928638697,-1.621120169249922,-9.443031207385658,2.0908171176217496,-0.4158611595630646,-0.1779368221759796,-0.7011106610298157
5.982935546875,2.3760125079929826,-0.2798556367784738,-1.9960437613412736,-1.6827414897739883,-9.424292604646086,2.126378260346502,-0.4080986380577087,-0.1994420439004898,-0.5085511207580566
5.992994140625,2.2635258003674448,-0.9913707522183656,-1.7322171760827303,-1.726476732734591,-9.407994965317846,2.163173474910855,-0.4300222992897033,-0.1077970787882804,-0.3469736874103546
6.003053466796875,1.5115921652995048,-2.646457342347502,-2.104499606015533,-1.7541551593855025,-9.393385425207018,2.204008904776722,-0.4432033598423004,0.035097487270832,-0.2284654080867767
6.0131123046875,0.9908581265211104,-3.5628427039474246,-2.6074381681233643,-1.771218668519705,-9.380211470857262,2.2460636473044757,-0.4007331430912018,0.1595017313957214,-0.1923438906669616
6.023171630859375,0.6916881329417228,-4.400604610687494,-2.9837364095687864,-1.7871845916755495,-9.36829949926734,2.282833873558044,-0.2952668368816376,0.2612360119819641,-0.2593367397785187
6.033230224609375,1.1034956407941878,-4.754411034339666,-3.2203502859920263,-1.810533172428608,-9.35701238157749,2.3105535090021787,-0.1649602353572845,0.4182738363742828,-0.4050617218017578
