time,seconds_elapsed,z,y,x
1759335444004560100,0.06456005859375,0.03046894073486328,0.02030158042907715,-0.011904224753379822
1759335444034560000,0.09456005859375,0.017989158630371094,0.035578012466430664,-0.0050036609172821045
1759335444044560100,0.10456005859375,0.001068115234375,0.04386711120605469,0.008454963564872742
1759335444054560000,0.11456005859375,-0.020626068115234375,0.054529428482055664,0.014737680554389954
1759335444064560000,0.12456005859375,-0.02499103546142578,0.05831766128540039,0.0248221755027771
1759335444074560000,0.13456005859375,-0.032998085021972656,0.06489753723144531,0.03108297288417816
1759335444084556300,0.144556396484375,-0.031935691833496094,0.05103302001953125,0.02173633873462677
1759335444094556400,0.154556396484375,-0.019560813903808594,0.036225318908691406,0.0014254897832870483
1759335444104556300,0.164556396484375,0.0067081451416015625,0.027318477630615234,-0.026334330439567566
1759335444114556400,0.174556396484375,0.02919483184814453,0.02326798439025879,-0.05138443410396576
1759335444124556300,0.184556396484375,0.05181694030761719,0.03338956832885742,-0.059281036257743835
1759335444134556400,0.194556396484375,0.05142974853515625,0.04869508743286133,-0.043356478214263916
1759335444144556300,0.204556396484375,0.035182952880859375,0.059700965881347656,-0.013479664921760559
1759335444154556400,0.214556396484375,0.02383136749267578,0.06561732292175293,0.01975347101688385
1759335444164556300,0.224556396484375,0.0076389312744140625,0.07149100303649902,0.0413338840007782
1759335444174556400,0.234556396484375,-0.018189430236816406,0.0678558349609375,0.040096595883369446
1759335444184556300,0.244556396484375,-0.04412555694580078,0.05248451232910156,0.02720305323600769
1759335444194556400,0.254556396484375,-0.05120563507080078,0.02815079689025879,0.0011326521635055542
1759335444204556300,0.264556396484375,-0.04945182800292969,0.012676715850830078,-0.02917216718196869
1759335444214556400,0.274556396484375,-0.05032157897949219,0.0073528289794921875,-0.05057956278324127
1759335444224556300,0.284556396484375,-0.048736572265625,0.011555910110473633,-0.05439458787441254
1759335444234556400,0.294556396484375,-0.04226207733154297,0.025190353393554688,-0.04057590663433075
1759335444244556300,0.304556396484375,-0.03306007385253906,0.04046821594238281,-0.02228066325187683
1759335444254556400,0.314556396484375,-0.02618885040283203,0.05085635185241699,-0.0023583918809890747
1759335444264556300,0.324556396484375,-0.021951675415039062,0.0522310733795166,0.00786474347114563
1759335444274556400,0.334556396484375,-0.017637252807617188,0.04617571830749512,0.014466196298599243
1759335444284555500,0.344555419921875,-0.020615577697753906,0.03792572021484375,0.019618019461631775
1759335444294555600,0.3545556640625,-0.020687103271484375,0.03802132606506348,0.02559007704257965
1759335444304555500,0.364555419921875,-0.016191482543945312,0.03856039047241211,0.03039322793483734
1759335444314555600,0.3745556640625,0.007260322570800781,0.04190564155578613,0.02875131368637085
1759335444324555500,0.384555419921875,0.025991439819335938,0.04276108741760254,0.0213824063539505
1759335444334555600,0.3945556640625,0.03975963592529297,0.03937578201293945,0.013782292604446411
1759335444344555500,0.404555419921875,0.056430816650390625,0.032454729080200195,0.010377168655395508
1759335444354555600,0.4145556640625,0.05446338653564453,0.026771068572998047,0.00635141134262085
1759335444364555500,0.424555419921875,0.043320655822753906,0.02739238739013672,0.006260529160499573
1759335444374555600,0.4345556640625,0.02073192596435547,0.026789188385009766,-0.0031509995460510254
1759335444384556300,0.444556396484375,-0.004176139831542969,0.023605823516845703,-0.012211546301841736
1759335444394556400,0.454556396484375,-0.031455039978027344,0.01790642738342285,-0.010566845536231995
1759335444404556300,0.464556396484375,-0.05717945098876953,0.00936746597290039,-0.009047523140907288
1759335444414556400,0.474556396484375,-0.07613945007324219,0.01612114906311035,-0.00211334228515625
1759335444424556300,0.484556396484375,-0.08816337585449219,0.030564546585083008,0.003324463963508606
1759335444434556400,0.494556396484375,-0.08880233764648438,0.048731088638305664,-0.0027205049991607666
1759335444444556300,0.504556396484375,-0.09008598327636719,0.061243295669555664,-0.002289414405822754
1759335444454556400,0.514556396484375,-0.08456993103027344,0.05790972709655762,-0.0071261972188949585
1759335444464556300,0.524556396484375,-0.06501579284667969,0.04815077781677246,-0.009605303406715393
1759335444474556400,0.534556396484375,-0.03137779235839844,0.04384207725524902,-0.012067452073097229
1759335444484555500,0.544555419921875,0.002964019775390625,0.047482967376708984,-0.014484599232673645
1759335444494555600,0.5545556640625,0.01851367950439453,0.05277657508850098,-0.011281564831733704
1759335444504555500,0.564555419921875,0.03783416748046875,0.062090158462524414,-0.001410156488418579
1759335444514555400,0.574555419921875,0.03614044189453125,0.06769919395446777,0.009707748889923096
1759335444524555500,0.584555419921875,0.022886276245117188,0.06750822067260742,0.014720603823661804
1759335444534555400,0.594555419921875,0.004868507385253906,0.06480979919433594,0.010999530553817749
1759335444544555500,0.604555419921875,-0.025450706481933594,0.05810117721557617,0.0000049620866775512695
1759335444554555400,0.614555419921875,-0.055764198303222656,0.04181957244873047,-0.011332571506500244
1759335444564555500,0.624555419921875,-0.0772552490234375,0.02974390983581543,-0.018905624747276306
1759335444574555400,0.634555419921875,-0.08984184265136719,0.021666765213012695,-0.015434890985488892
1759335444584556300,0.644556396484375,-0.07629776000976562,0.02119588851928711,-0.011056378483772278
1759335444594556200,0.65455615234375,-0.053893089294433594,0.029506444931030273,-0.005629092454910278
1759335444604556300,0.664556396484375,-0.02641010284423828,0.03711271286010742,-0.004350155591964722
1759335444614556200,0.67455615234375,-0.010718345642089844,0.037180185317993164,0.00071735680103302
1759335444624556300,0.684556396484375,0.0029582977294921875,0.03877830505371094,0.007894843816757202
1759335444634556200,0.69455615234375,0.009749412536621094,0.03969860076904297,0.014903709292411804
1759335444644556300,0.704556396484375,0.019155502319335938,0.03528642654418945,0.020011097192764282
1759335444654556200,0.71455615234375,0.02143573760986328,0.025920867919921875,0.025661230087280273
1759335444664556300,0.724556396484375,0.028408050537109375,0.009546995162963867,0.025106385350227356
1759335444674556200,0.73455615234375,0.044831275939941406,0.0030317306518554688,0.022192254662513733
1759335444684555300,0.74455517578125,0.047148704528808594,-0.00400853157043457,0.010889932513237
1759335444694555400,0.754555419921875,0.04768180847167969,-0.00998544692993164,0.010060206055641174
1759335444704555300,0.76455517578125,0.04137897491455078,-0.016701221466064453,0.00564238429069519
1759335444714555400,0.774555419921875,0.019100189208984375,-0.013275623321533203,0.003907382488250732
1759335444724555300,0.78455517578125,-0.008298873901367188,-0.013830423355102539,-0.0008251965045928955
1759335444734555400,0.794555419921875,-0.03150749206542969,-0.013010740280151367,-0.005251780152320862
1759335444744555300,0.80455517578125,-0.05558490753173828,-0.010251998901367188,-0.006165534257888794
1759335444754555400,0.814555419921875,-0.07112884521484375,-0.005107402801513672,-0.013636603951454163
1759335444764555300,0.82455517578125,-0.07752227783203125,0.008156061172485352,-0.015494942665100098
1759335444774555400,0.834555419921875,-0.06954574584960938,0.02381753921508789,-0.019813239574432373
1759335444784556300,0.844556396484375,-0.06368350982666016,0.041246891021728516,-0.014969751238822937
1759335444794556200,0.85455615234375,-0.047896385192871094,0.05791068077087402,-0.010808095335960388
1759335444804556300,0.864556396484375,-0.0222930908203125,0.0692741870880127,-0.004968732595443726
1759335444814556200,0.87455615234375,-0.013169288635253906,0.0728602409362793,0.002327859401702881
1759335444824556300,0.884556396484375,-0.003912925720214844,0.06420612335205078,0.01146787405014038
1759335444834556200,0.89455615234375,0.017165184020996094,0.05107903480529785,0.013971373438835144
1759335444844556300,0.904556396484375,0.023804664611816406,0.035537004470825195,0.014718696475028992
1759335444854556200,0.91455615234375,0.02555084228515625,0.02741837501525879,0.008361876010894775
1759335444864556300,0.924556396484375,0.01828765869140625,0.022767066955566406,-0.0027178823947906494
1759335444874556200,0.93455615234375,-0.0076141357421875,0.024169921875,-0.01263532042503357
1759335444884555300,0.94455517578125,-0.04487133026123047,0.038582563400268555,-0.019016385078430176
1759335444894555400,0.954555419921875,-0.07681465148925781,0.05418539047241211,-0.02810119092464447
1759335444904555300,0.96455517578125,-0.10215187072753906,0.07362031936645508,-0.02911737561225891
1759335444914555400,0.974555419921875,-0.11867141723632812,0.09490275382995605,-0.02401287853717804
1759335444924555300,0.98455517578125,-0.1262655258178711,0.1056368350982666,-0.012762457132339478
1759335444934555400,0.994555419921875,-0.11582469940185547,0.11170554161071777,-0.0024750232696533203
1759335444944555300,1.00455517578125,-0.09156322479248047,0.10210180282592773,0.0010807812213897705
1759335444954555400,1.014555419921875,-0.060866355895996094,0.07966947555541992,-0.006468325853347778
1759335444964555300,1.02455517578125,-0.03477668762207031,0.056848764419555664,-0.021471232175827026
1759335444974555400,1.034555419921875,-0.0030641555786132812,0.032158613204956055,-0.032854512333869934
1759335444984556300,1.044556396484375,0.01713085174560547,0.01611638069152832,-0.0318637490272522
1759335444994556200,1.05455615234375,0.03576469421386719,-0.0017833709716796875,-0.02525310218334198
1759335445004556300,1.064556396484375,0.054851531982421875,-0.015914201736450195,-0.014459028840065002
1759335445014556200,1.07455615234375,0.0645751953125,-0.01611638069152832,-0.002329021692276001
1759335445024556300,1.084556396484375,0.0651712417602539,-0.005391597747802734,0.016822397708892822
1759335445034556200,1.09455615234375,0.0514984130859375,-0.002114534378051758,0.04383915662765503
1759335445044556300,1.104556396484375,0.03281116485595703,-0.01274251937866211,0.062326252460479736
1759335445054556000,1.114555908203125,0.016425132751464844,-0.032852888107299805,0.06839972734451294
1759335445064555800,1.1245556640625,0.0032825469970703125,-0.05188179016113281,0.06472088396549225
1759335445074556000,1.134555908203125,0.00661468505859375,-0.06072282791137695,0.052507609128952026
1759335445084555000,1.144554931640625,0.009633064270019531,-0.06876587867736816,0.03942278027534485
1759335445094555000,1.154554931640625,0.02469921112060547,-0.07209658622741699,0.02245497703552246
1759335445104555000,1.164554931640625,0.04044151306152344,-0.0697944164276123,0.0071859657764434814
1759335445114555000,1.174554931640625,0.05163002014160156,-0.055956363677978516,-0.0027734190225601196
1759335445124555000,1.184554931640625,0.06338787078857422,-0.03379201889038086,-0.011842548847198486
1759335445134555000,1.194554931640625,0.07098388671875,-0.010685443878173828,-0.011654779314994812
1759335445144555000,1.204554931640625,0.06207561492919922,0.004678964614868164,0.0021888911724090576
1759335445154555000,1.214554931640625,0.046586036682128906,0.00904083251953125,0.011496216058731079
1759335445164555000,1.224554931640625,0.023824691772460938,0.01356363296508789,0.019299760460853577
1759335445174555000,1.234554931640625,0.00359344482421875,0.01769876480102539,0.018540307879447937
1759335445184555800,1.2445556640625,-0.011905670166015625,0.021920204162597656,0.01376272737979889
1759335445194556000,1.254555908203125,-0.03284454345703125,0.02287435531616211,0.011503085494041443
1759335445204555800,1.2645556640625,-0.04915618896484375,0.026590824127197266,0.007078260183334351
1759335445214556000,1.274555908203125,-0.058699607849121094,0.03130006790161133,0.002270430326461792
1759335445224555800,1.2845556640625,-0.054141998291015625,0.03424477577209473,0.002188444137573242
1759335445234556000,1.294555908203125,-0.04255867004394531,0.0471196174621582,-0.00015781819820404053
1759335445244555800,1.3045556640625,-0.03139209747314453,0.056253910064697266,-0.010689154267311096
1759335445254556000,1.314555908203125,-0.032021522521972656,0.053040504455566406,-0.016989856958389282
1759335445264555800,1.3245556640625,-0.022971153259277344,0.040030479431152344,-0.01880873739719391
1759335445274555600,1.3345556640625,-0.011246681213378906,0.0311281681060791,-0.010696440935134888
1759335445284554800,1.3445546875,-0.0015115737915039062,0.018822908401489258,-0.006423592567443848
1759335445294555000,1.354554931640625,0.0057239532470703125,0.006749629974365234,-0.0043697357177734375
1759335445304554800,1.3645546875,0.011007308959960938,0.0007836818695068359,-0.004172772169113159
1759335445314555000,1.374554931640625,0.011648178100585938,-0.0031266212463378906,-0.00640067458152771
1759335445324554800,1.3845546875,0.005062103271484375,-0.002105712890625,-0.011615186929702759
1759335445334555000,1.394554931640625,-0.003704071044921875,0.0008196830749511719,-0.012164056301116943
1759335445344554800,1.4045546875,-0.015097618103027344,0.0066928863525390625,-0.015271365642547607
1759335445354555100,1.41455517578125,-0.02439403533935547,0.0036842823028564453,-0.011119365692138672
1759335445364555300,1.42455517578125,-0.03155708312988281,-0.0011310577392578125,-0.009052187204360962
1759335445374555100,1.43455517578125,-0.024804115295410156,-0.0025005340576171875,-0.006910651922225952
1759335445384555800,1.4445556640625,-0.017923355102539062,0.005383014678955078,-0.004372090101242065
1759335445394556000,1.454555908203125,-0.015901565551757812,0.011066913604736328,0.00006034970283508301
1759335445404555800,1.4645556640625,-0.018538475036621094,0.016513347625732422,0.00825914740562439
1759335445414556000,1.474555908203125,-0.008586883544921875,0.020460844039916992,0.012479245662689209
1759335445424555800,1.4845556640625,-0.005974769592285156,0.01996588706970215,0.009940087795257568
1759335445434556000,1.494555908203125,-0.012932777404785156,0.019442319869995117,0.012179255485534668
1759335445444555800,1.5045556640625,-0.019873619079589844,0.016467571258544922,0.010045886039733887
1759335445454556000,1.514555908203125,-0.03651237487792969,0.011368036270141602,0.005686968564987183
1759335445464555800,1.5245556640625,-0.0461273193359375,0.011421442031860352,-0.0009427070617675781
1759335445474556000,1.534555908203125,-0.05354881286621094,0.011956930160522461,-0.010157227516174316
1759335445484555000,1.544554931640625,-0.06369209289550781,0.00853109359741211,-0.01307341456413269
1759335445497196000,1.557196044921875,-0.06195640563964844,0.010152101516723633,-0.018975168466567993
1759335445507196200,1.567196044921875,-0.05817127227783203,0.0197908878326416,-0.010901331901550293
1759335445517196000,1.577196044921875,-0.04957389831542969,0.02938389778137207,0.0018558800220489502
1759335445527196200,1.587196044921875,-0.036380767822265625,0.03699207305908203,0.010507076978683472
1759335445537196000,1.597196044921875,-0.01351165771484375,0.04911065101623535,0.01269945502281189
1759335445547196200,1.607196044921875,-0.00001811981201171875,0.05836892127990723,0.012377679347991943
1759335445557196000,1.617196044921875,0.008584976196289062,0.05353236198425293,0.011622786521911621
1759335445567196200,1.627196044921875,0.008050918579101562,0.04279637336730957,0.016766130924224854
1759335445577196300,1.6371962890625,-0.0017480850219726562,0.03128957748413086,0.015232652425765991
1759335445587197200,1.647197265625,-0.006985664367675781,0.02509331703186035,0.006779015064239502
1759335445597197000,1.657197021484375,-0.014410972595214844,0.018375873565673828,-0.003703981637954712
1759335445607197200,1.667197265625,-0.021945953369140625,0.0024056434631347656,-0.003088921308517456
1759335445617197000,1.677197021484375,-0.02257823944091797,-0.000896453857421875,-0.0005706548690795898
1759335445627197200,1.687197265625,-0.009114265441894531,0.010735511779785156,0.0005643367767333984
1759335445637197000,1.697197021484375,0.0113677978515625,0.029902935028076172,0.004568189382553101
1759335445647197200,1.707197265625,0.022470474243164062,0.03432750701904297,0.014583230018615723
1759335445657197000,1.717197021484375,0.029013633728027344,0.01904582977294922,0.01989462971687317
1759335445667197200,1.727197265625,0.031000137329101562,0.0031380653381347656,0.016826480627059937
1759335445677197000,1.737197021484375,0.033234596252441406,-0.0038437843322753906,0.005095422267913818
1759335445687196700,1.74719677734375,0.03056812286376953,-0.010576248168945312,-0.008694469928741455
1759335445697196500,1.757196533203125,0.022980690002441406,-0.024166107177734375,-0.015419542789459229
1759335445707196700,1.76719677734375,0.019959449768066406,-0.030004262924194336,-0.01558232307434082
1759335445717196500,1.777196533203125,0.014655113220214844,-0.02891707420349121,-0.02063143253326416
1759335445727196700,1.78719677734375,0.021549224853515625,-0.013941526412963867,-0.024258822202682495
1759335445737196500,1.797196533203125,0.02152538299560547,0.0005147457122802734,-0.02245338261127472
1759335445747196700,1.80719677734375,0.02407550811767578,-0.002104520797729492,-0.012703120708465576
1759335445757196500,1.817196533203125,0.022216796875,-0.010421037673950195,0.006749182939529419
1759335445767196700,1.82719677734375,0.03213691711425781,-0.011173248291015625,0.02007541060447693
1759335445777196500,1.837196533203125,0.04218292236328125,-0.007565975189208984,0.030742347240447998
1759335445787197400,1.847197509765625,0.04457283020019531,-0.00763249397277832,0.03441329300403595
1759335445797197600,1.857197509765625,0.042110443115234375,-0.014737129211425781,0.04283638298511505
1759335445807197400,1.867197509765625,0.03283977508544922,-0.022745370864868164,0.04201382398605347
1759335445817197600,1.877197509765625,0.02368450164794922,-0.026233434677124023,0.02681012451648712
1759335445827197400,1.887197509765625,0.012340545654296875,-0.023027420043945312,0.013996660709381104
1759335445837197600,1.897197509765625,-0.0062618255615234375,-0.026766538619995117,0.0003010183572769165
1759335445847197400,1.907197509765625,-0.01299285888671875,-0.02783989906311035,-0.006841093301773071
1759335445857197600,1.917197509765625,-0.020120620727539062,-0.025552749633789062,-0.009567886590957642
1759335445867197400,1.927197509765625,-0.022765159606933594,-0.017701148986816406,-0.008397102355957031
1759335445877197600,1.937197509765625,-0.020714759826660156,-0.007230520248413086,-0.004914075136184692
1759335445887196700,1.94719677734375,-0.013733863830566406,-0.0019075870513916016,0.0013764053583145142
1759335445897196500,1.957196533203125,-0.006541252136230469,0.0004780292510986328,0.010718077421188354
1759335445907196700,1.96719677734375,-0.0037136077880859375,0.0018091201782226562,0.011275127530097961
1759335445917196500,1.977196533203125,-0.0008153915405273438,0.01731252670288086,0.005118072032928467
1759335445927196700,1.98719677734375,-0.002590179443359375,0.020550966262817383,-0.0007020235061645508
1759335445937196500,1.997196533203125,-0.011524200439453125,0.021378278732299805,-0.007096394896507263
1759335445947196700,2.00719677734375,-0.02316761016845703,0.02060222625732422,-0.0070303380489349365
1759335445957196500,2.017196533203125,-0.02289581298828125,0.02710413932800293,-0.006452396512031555
1759335445967196700,2.02719677734375,-0.025051116943359375,0.03607940673828125,-0.008248180150985718
1759335445977196500,2.037196533203125,-0.0250701904296875,0.04092764854431152,-0.010883644223213196
1759335445987197400,2.047197509765625,-0.029671669006347656,0.040472984313964844,-0.01062367856502533
1759335445997197300,2.057197265625,-0.029567718505859375,0.03782796859741211,-0.008151009678840637
1759335446007197400,2.067197509765625,-0.034028053283691406,0.037050485610961914,-0.010497421026229858
1759335446017197300,2.077197265625,-0.043456077575683594,0.024740219116210938,-0.008305475115776062
1759335446027197400,2.087197509765625,-0.04585456848144531,0.017566680908203125,-0.0011395364999771118
1759335446037197300,2.097197265625,-0.04107093811035156,0.010358572006225586,0.004255324602127075
1759335446047197400,2.107197509765625,-0.029715538024902344,0.006998777389526367,0.011904224753379822
1759335446057197300,2.117197265625,-0.011411666870117188,-0.000629425048828125,0.017627567052841187
1759335446067197400,2.127197509765625,0.011861801147460938,-0.0015370845794677734,0.014333784580230713
1759335446077197300,2.137197265625,0.02801227569580078,-0.004950284957885742,0.005833953619003296
1759335446087196400,2.147196533203125,0.02754974365234375,-0.0038645267486572266,0.005928069353103638
1759335446097196500,2.157196533203125,0.030037879943847656,-0.025627851486206055,-0.0013575553894042969
1759335446107196400,2.167196533203125,0.02584075927734375,-0.036595821380615234,-0.0014766454696655273
1759335446117196500,2.177196533203125,0.019499778747558594,-0.03624582290649414,-0.0004684925079345703
1759335446127196400,2.187196533203125,0.007846832275390625,-0.02743697166442871,0.0021330714225769043
1759335446137196500,2.197196533203125,0.005763053894042969,-0.02097320556640625,0.009093552827835083
1759335446147196400,2.207196533203125,0.005859375,-0.01399374008178711,0.02307911217212677
1759335446157196500,2.217196533203125,0.0058155059814453125,-0.009078025817871094,0.032230839133262634
1759335446167196400,2.227196533203125,0.008358001708984375,-0.0046656131744384766,0.03739406168460846
1759335446177196500,2.237196533203125,0.010901451110839844,-0.0002865791320800781,0.0312039852142334
1759335446187197400,2.247197509765625,-0.0009441375732421875,-0.0006628036499023438,0.02055835723876953
1759335446197197300,2.257197265625,-0.017499923706054688,-0.00838923454284668,0.01205328106880188
1759335446207197400,2.267197509765625,-0.02695178985595703,-0.020696640014648438,0.007949784398078918
1759335446217197300,2.277197265625,-0.024839401245117188,-0.029638051986694336,-0.001103430986404419
1759335446227197400,2.287197509765625,-0.011128425598144531,-0.025667428970336914,-0.011236265301704407
1759335446237197300,2.297197265625,-0.006709098815917969,-0.017484188079833984,-0.015753597021102905
1759335446247197400,2.307197509765625,-0.004473686218261719,-0.0025534629821777344,-0.004520833492279053
1759335446257197300,2.317197265625,-0.004328727722167969,0.016360044479370117,0.01049874722957611
1759335446267197400,2.327197509765625,-0.01824188232421875,0.0368342399597168,0.017777934670448303
1759335446277197300,2.337197265625,-0.02522754669189453,0.045830726623535156,0.022057369351387024
1759335446287196400,2.347196533203125,-0.01835346221923828,0.03680586814880371,0.013010874390602112
1759335446297196500,2.357196533203125,-0.009407997131347656,0.01658177375793457,-0.008071810007095337
1759335446307196400,2.367196533203125,-0.0007696151733398438,0.0019948482513427734,-0.026431933045387268
1759335446317196500,2.377196533203125,0.020061492919921875,-0.013008356094360352,-0.03945055603981018
1759335446327196400,2.387196533203125,0.03900623321533203,-0.012366056442260742,-0.03956058621406555
1759335446337196500,2.397196533203125,0.04933738708496094,-0.009164571762084961,-0.04285949468612671
1759335446347196400,2.407196533203125,0.05322551727294922,0.0042650699615478516,-0.04135039448738098
1759335446357196500,2.417196533203125,0.05045318603515625,0.0187985897064209,-0.017243698239326477
1759335446367196400,2.427196533203125,0.048046112060546875,0.01081538200378418,0.008731737732887268
1759335446377196500,2.437196533203125,0.04554176330566406,-0.020981550216674805,0.019673094153404236
1759335446387197400,2.447197509765625,0.061290740966796875,-0.06272220611572266,0.01066066324710846
1759335446397197300,2.457197265625,0.09553050994873047,-0.10536742210388184,-0.016267821192741394
1759335446407197400,2.467197509765625,0.14067840576171875,-0.12868905067443848,-0.04911985993385315
1759335446417197300,2.477197265625,0.20004558563232422,-0.14205121994018555,-0.0682389885187149
1759335446427197400,2.487197509765625,0.26230907440185547,-0.13021183013916016,-0.07616479694843292
1759335446437197300,2.497197265625,0.3087348937988281,-0.10120630264282227,-0.07991525530815125
1759335446447197400,2.507197509765625,0.3226356506347656,-0.06444430351257324,-0.0705624520778656
1759335446457197300,2.517197265625,0.3050994873046875,-0.038674116134643555,-0.03839285671710968
1759335446467197400,2.527197509765625,0.27783775329589844,-0.02935624122619629,0.011900722980499268
1759335446477197300,2.537197265625,0.2507658004760742,-0.03769969940185547,0.07176920771598816
1759335446487196400,2.547196533203125,0.2136821746826172,-0.05518984794616699,0.13080111145973206
1759335446497196500,2.557196533203125,0.178863525390625,-0.05390572547912598,0.16208016872406006
1759335446507196400,2.567196533203125,0.1677379608154297,-0.018989086151123047,0.15452347695827484
1759335446517196500,2.577196533203125,0.22293758392333984,0.0342402458190918,0.10641279816627502
1759335446527196400,2.587196533203125,0.3660106658935547,0.09395861625671387,0.043090805411338806
1759335446537196500,2.597196533203125,0.5357570648193359,0.15648341178894043,-0.01671791821718216
1759335446547196400,2.607196533203125,0.6802282333374023,0.2273273468017578,-0.06697306036949158
1759335446557196500,2.617196533203125,0.7817115783691406,0.28775835037231445,-0.09969474375247955
1759335446567196400,2.627196533203125,0.7820768356323242,0.30486130714416504,-0.10578648000955582
1759335446577196500,2.637196533203125,0.6835060119628906,0.2688424587249756,-0.10241305828094482
1759335446587197400,2.647197509765625,0.49510955810546875,0.22176456451416016,-0.10803353041410446
1759335446597197300,2.657197265625,0.2601490020751953,0.1834716796875,-0.14064547419548035
1759335446607197400,2.667197509765625,0.031189918518066406,0.15986108779907227,-0.20385654270648956
1759335446617197300,2.677197265625,-0.1080322265625,0.14443683624267578,-0.29904812574386597
1759335446627197400,2.687197509765625,-0.19042491912841797,0.1433238983154297,-0.3940058946609497
1759335446637197300,2.697197265625,-0.24444961547851562,0.146514892578125,-0.4314189553260803
1759335446647197400,2.707197509765625,-0.32056236267089844,0.13266754150390625,-0.4248255491256714
1759335446657197300,2.717197265625,-0.44077491760253906,0.1047658920288086,-0.364993155002594
1759335446667197400,2.727197509765625,-0.6271114349365234,0.07545328140258789,-0.26204249262809753
1759335446677197300,2.737197265625,-0.817042350769043,0.07273721694946289,-0.10857464373111725
1759335446687196400,2.747196533203125,-1.05684232711792,0.0670628547668457,0.08377382904291153
1759335446697196500,2.757196533203125,-1.3052144050598145,0.03346681594848633,0.30647140741348267
1759335446707196400,2.767196533203125,-1.4688372611999512,0.010340213775634766,0.5051525831222534
1759335446717196500,2.777196533203125,-1.574815273284912,0.021310806274414062,0.6621629595756531
1759335446727196400,2.787196533203125,-1.573638916015625,0.04714512825012207,0.7716783881187439
1759335446737196500,2.797196533203125,-1.464132308959961,0.06682038307189941,0.8330079913139343
1759335446747196400,2.807196533203125,-1.2650141716003418,0.0970001220703125,0.8384076356887817
1759335446757196500,2.817196533203125,-1.0161714553833008,0.13906002044677734,0.7994595766067505
1759335446767196400,2.827196533203125,-0.7755279541015625,0.1890113353729248,0.7626346349716187
1759335446777196500,2.837196533203125,-0.5674304962158203,0.25893473625183105,0.7156445980072021
1759335446787197400,2.847197509765625,-0.39688968658447266,0.34291553497314453,0.6598854660987854
1759335446797197300,2.857197265625,-0.27129173278808594,0.45939207077026367,0.6114823818206787
1759335446807197400,2.867197509765625,-0.19578266143798828,0.5719590187072754,0.5800913572311401
1759335446817197300,2.877197265625,-0.11319255828857422,0.678389310836792,0.5245885848999023
1759335446827197400,2.887197509765625,-0.023507118225097656,0.7758874893188477,0.43505966663360596
1759335446837197300,2.897197265625,0.03349781036376953,0.8634994029998779,0.30985426902770996
1759335446847197400,2.907197509765625,0.03475189208984375,0.9359886646270752,0.1737099587917328
1759335446857197300,2.917197265625,-0.036133766174316406,1.01688814163208,0.026281416416168213
1759335446867197400,2.927197509765625,-0.19651317596435547,1.0750715732574463,-0.1046915054321289
1759335446877197300,2.937197265625,-0.37529945373535156,1.1121201515197754,-0.24912020564079285
1759335446887196400,2.947196533203125,-0.5158462524414062,1.1394126415252686,-0.4207458794116974
1759335446897196500,2.957196533203125,-0.6414070129394531,1.1904916763305664,-0.6093759536743164
1759335446907196400,2.967196533203125,-0.6822595596313477,1.2703218460083008,-0.7567049860954285
1759335446917196500,2.977196533203125,-0.5060796737670898,1.412407398223877,-0.8207056522369385
1759335446927196400,2.987196533203125,-0.11859703063964844,1.6469826698303223,-0.770672082901001
1759335446937196500,2.997196533203125,0.3375825881958008,1.9020404815673828,-0.6125367879867554
1759335446947196400,3.007196533203125,0.6495513916015625,2.1485931873321533,-0.4140826463699341
1759335446957196500,3.017196533203125,0.8543825149536133,2.286716938018799,-0.2348913550376892
1759335446967196400,3.027196533203125,0.9700984954833984,2.2939608097076416,-0.11658011376857758
1759335446977196500,3.037196533203125,1.0158090591430664,2.209272623062134,-0.10650697350502014
1759335446987197400,3.047197509765625,1.2491950988769531,2.0672035217285156,-0.172625333070755
1759335446997197300,3.057197265625,1.705021858215332,1.9813833236694336,-0.29328984022140503
1759335447007197400,3.067197509765625,2.425137519836426,1.998528003692627,-0.44750797748565674
1759335447017197300,3.077197265625,3.416126251220703,2.097914695739746,-0.5606893301010132
1759335447027197400,3.087197509765625,4.474531173706055,2.229576826095581,-0.5867770910263062
1759335447037197300,3.097197265625,5.3722333908081055,2.3699758052825928,-0.4903804361820221
1759335447047197400,3.107197509765625,8.320151329040527,2.5107345581054688,0.6671581864356995
1759335447057197300,3.117197265625,7.05877685546875,2.255002498626709,0.9305885434150696
1759335447067197400,3.127197509765625,5.05295467376709,1.901817798614502,0.8659725785255432
1759335447077197300,3.137197265625,3.3313331604003906,1.3921451568603516,0.776796281337738
1759335447087196400,3.147196533203125,1.9491643905639648,1.0304787158966064,0.9708125591278076
1759335447097196500,3.157196533203125,1.2958736419677734,0.5189781188964844,0.9862588047981262
1759335447107196400,3.167196533203125,0.9789590835571289,0.14254021644592285,0.6026077270507812
1759335447117196500,3.177196533203125,1.8311948776245117,0.3203253746032715,0.8165054321289062
1759335447127196400,3.187196533203125,1.8188753128051758,0.06982541084289551,0.6853792071342468
1759335447137196500,3.197196533203125,2.402057647705078,-0.2825455665588379,0.5519227385520935
1759335447147196400,3.207196533203125,2.941758155822754,-0.5895564556121826,0.28033506870269775
1759335447157196500,3.217196533203125,3.287721633911133,-0.7749878168106079,0.10683763027191162
1759335447167196400,3.227196533203125,3.159587860107422,-1.0062681436538696,0.04139983654022217
1759335447177196500,3.237196533203125,2.8292436599731445,-1.2207330465316772,0.004106581211090088
1759335447187197400,3.247197509765625,2.089291572570801,-1.5736348628997803,0.1030701994895935
1759335447197197300,3.257197265625,2.572810173034668,-1.1915271282196045,-0.3476344645023346
1759335447207197400,3.267197509765625,1.75323486328125,-0.8417330980300903,-0.39157983660697937
1759335447217197300,3.277197265625,1.1479377746582031,-0.9151474237442017,-0.16719532012939453
1759335447227197400,3.287197509765625,0.9745845794677734,-0.9680454730987549,0.013088643550872803
1759335447237197300,3.297197265625,0.6654453277587891,-0.8610559701919556,-0.030095040798187256
1759335447247197400,3.307197509765625,0.2663536071777344,-0.7940196990966797,-0.18984729051589966
1759335447257197300,3.317197265625,-0.16019725799560547,-0.7342908382415771,-0.2392183542251587
1759335447267197400,3.327197509765625,-0.7988519668579102,-0.7978615760803223,-0.2651098966598511
1759335447277197300,3.337197265625,-1.1902551651000977,-0.8495153188705444,-0.307174414396286
1759335447287196700,3.34719677734375,-1.4307060241699219,-0.8442180156707764,-0.4457719922065735
1759335447297196500,3.357196533203125,-1.6684179306030273,-0.7846832275390625,-0.41372305154800415
1759335447307196700,3.36719677734375,-1.916468620300293,-0.6507776975631714,-0.25861209630966187
1759335447317196500,3.377196533203125,-2.0527305603027344,-0.7092617750167847,0.1034422516822815
1759335447327196700,3.38719677734375,-2.159149646759033,-0.791546106338501,0.5640115737915039
1759335447337196500,3.397196533203125,-2.0966176986694336,-0.6973310708999634,0.6191341876983643
1759335447347196700,3.40719677734375,-2.006596088409424,-0.6085560321807861,0.37058889865875244
1759335447357196500,3.417196533203125,-2.008471965789795,-0.49678587913513184,0.048034727573394775
1759335447367196700,3.42719677734375,-2.010622024536133,-0.5269765853881836,-0.1854264736175537
1759335447377196500,3.437196533203125,-1.9952669143676758,-0.48397135734558105,-0.3034811019897461
1759335447387197400,3.447197509765625,-1.992225170135498,-0.5613980293273926,-0.4534050226211548
1759335447397197600,3.457197509765625,-2.030848979949951,-0.6519482135772705,-0.5370572209358215
1759335447407197400,3.467197509765625,-2.325756549835205,-0.9634513854980469,-0.5051206350326538
1759335447417197600,3.477197509765625,-2.704753875732422,-1.137661099433899,-0.1977267861366272
1759335447427197400,3.487197509765625,-2.721933364868164,-1.3023723363876343,-0.043215155601501465
1759335447437197600,3.497197509765625,-2.378821849822998,-1.2399098873138428,0.015632808208465576
1759335447447197400,3.507197509765625,-2.001758098602295,-1.004192590713501,-0.007937073707580566
1759335447457197300,3.517197265625,-1.8840909004211426,-0.8330702781677246,0.0065495967864990234
1759335447467197400,3.527197509765625,-1.7365012168884277,-0.8850822448730469,-0.22232705354690552
1759335447477197300,3.537197265625,-1.4487619400024414,-1.1635228395462036,-0.4577709436416626
1759335447487196700,3.54719677734375,-1.4216060638427734,-1.3903372287750244,-0.7134605646133423
1759335447497196500,3.557196533203125,-1.7400193214416504,-1.6536457538604736,-0.818390429019928
1759335447507196400,3.567196533203125,-1.9247174263000488,-1.893064260482788,-0.79543536901474
1759335447517196500,3.577196533203125,-2.167074203491211,-2.066679000854492,-0.7698749303817749
1759335447527196400,3.587196533203125,-2.5111117362976074,-2.044759511947632,-0.6881884932518005
1759335447537196500,3.597196533203125,-2.6781845092773438,-1.9023334980010986,-0.636102020740509
1759335447547196400,3.607196533203125,-2.6802539825439453,-1.664322853088379,-0.5890408754348755
1759335447557196500,3.617196533203125,-2.4641618728637695,-1.383486270904541,-0.4399307668209076
1759335447567196400,3.627196533203125,-2.052499771118164,-1.2036921977996826,-0.2108159214258194
1759335447577196500,3.637196533203125,-1.4749770164489746,-1.2160124778747559,-0.03198549151420593
1759335447587197400,3.647197509765625,-1.0020322799682617,-0.9898109436035156,0.13198408484458923
1759335447597197300,3.657197265625,-0.5793304443359375,-1.1861257553100586,-0.048766881227493286
1759335447607197400,3.667197509765625,-0.2604703903198242,-1.3028626441955566,-0.0077987611293792725
1759335447617197300,3.677197265625,-0.4021949768066406,-1.1689374446868896,-0.031110793352127075
1759335447627197400,3.687197509765625,-0.6651668548583984,-1.1049232482910156,0.05461493134498596
1759335447637197300,3.697197265625,-0.8209924697875977,-1.2236006259918213,0.20958542823791504
1759335447647197400,3.707197509765625,-1.0367727279663086,-1.35848069190979,0.33117854595184326
1759335447657197300,3.717197265625,-1.3328604698181152,-1.4102027416229248,0.27680689096450806
1759335447667197400,3.727197509765625,-1.5266194343566895,-1.4484930038452148,0.14131854474544525
1759335447677197300,3.737197265625,-1.4267349243164062,-1.3976421356201172,0.02061709761619568
1759335447687196400,3.747196533203125,-1.1726036071777344,-1.3371334075927734,-0.0458681583404541
1759335447697196500,3.757196533203125,-0.7092752456665039,-1.3594908714294434,-0.1266913264989853
1759335447707196400,3.767196533203125,-0.3021860122680664,-1.4161229133605957,0.006810128688812256
1759335447717196500,3.777196533203125,-0.03906059265136719,-1.4173848628997803,0.2509393095970154
1759335447727196400,3.787196533203125,-0.017592430114746094,-1.3746745586395264,0.570315957069397
1759335447737196500,3.797196533203125,-0.2370738983154297,-1.2881886959075928,0.7532535791397095
1759335447747196400,3.807196533203125,-0.43657398223876953,-1.168907642364502,0.716045618057251
1759335447757196500,3.817196533203125,-0.7191448211669922,-1.0480999946594238,0.3914058804512024
1759335447767196400,3.827196533203125,-0.7924003601074219,-0.9190747737884521,0.19532471895217896
1759335447777196500,3.837196533203125,-0.7049160003662109,-0.8519115447998047,0.07632014155387878
1759335447787197400,3.847197509765625,-0.7340946197509766,-0.7816009521484375,0.012148350477218628
1759335447797197300,3.857197265625,-0.6326284408569336,-0.7613346576690674,-0.025156736373901367
1759335447807197400,3.867197509765625,-0.39481449127197266,-0.7015578746795654,-0.0953468382358551
1759335447817197300,3.877197265625,-0.27912425994873047,-0.580277681350708,-0.0787101686000824
1759335447827197400,3.887197509765625,-0.4339780807495117,-0.47968602180480957,-0.005861818790435791
1759335447837197300,3.897197265625,-0.5562725067138672,-0.36032986640930176,0.2659727931022644
1759335447847196400,3.907196533203125,-0.6286373138427734,-0.3677241802215576,0.2751249372959137
1759335447857196500,3.917196533203125,-0.7442598342895508,-0.3298349380493164,0.19105815887451172
1759335447867196400,3.927196533203125,-0.45452404022216797,-0.24614500999450684,-0.036053091287612915
1759335447877196500,3.937196533203125,-0.2138986587524414,-0.16778087615966797,-0.2684994637966156
1759335447887195600,3.947195556640625,0.046723365783691406,-0.10793614387512207,-0.38692647218704224
1759335447897195500,3.957195556640625,0.33606910705566406,-0.08594512939453125,-0.5313887000083923
1759335447907195600,3.967195556640625,0.4793987274169922,-0.07793498039245605,-0.5597195625305176
1759335447917195500,3.977195556640625,0.40979671478271484,-0.07932162284851074,-0.45979800820350647
1759335447927195600,3.987195556640625,0.18059921264648438,-0.09413719177246094,-0.27400699257850647
1759335447937195500,3.997195556640625,-0.023355484008789062,-0.09737563133239746,-0.12379896640777588
1759335447947195600,4.007195556640625,-0.14527416229248047,-0.09025907516479492,-0.07927629351615906
1759335447957195500,4.017195556640625,-0.21711254119873047,-0.18832755088806152,-0.11380450427532196
1759335447967195600,4.027195556640625,-0.23026657104492188,-0.2767453193664551,-0.1029670387506485
1759335447977195500,4.037195556640625,-0.3403921127319336,-0.3600599765777588,-0.04906521737575531
1759335447987196400,4.047196533203125,-0.36008358001708984,-0.4134206771850586,0.013609200716018677
1759335447997196500,4.057196533203125,-0.3302173614501953,-0.4147193431854248,0.01574184000492096
1759335448007196400,4.067196533203125,-0.25020599365234375,-0.3844132423400879,0.02038329839706421
1759335448017196500,4.077196533203125,-0.03171348571777344,-0.3146660327911377,0.15356376767158508
1759335448027196400,4.087196533203125,0.08779716491699219,-0.2308506965637207,0.27545228600502014
1759335448037196500,4.097196533203125,0.2301034927368164,-0.1370246410369873,0.4019477367401123
1759335448047196400,4.107196533203125,0.2762594223022461,-0.1418595314025879,0.4661741852760315
1759335448057196500,4.117196533203125,0.32007884979248047,-0.17429518699645996,0.4626232981681824
1759335448067196400,4.127196533203125,0.36441516876220703,-0.1889636516571045,0.4028370976448059
1759335448077196500,4.137196533203125,0.4612102508544922,-0.18137478828430176,0.28896671533584595
1759335448087195600,4.147195556640625,0.531245231628418,-0.21272492408752441,0.10222463309764862
1759335448097195500,4.157195556640625,0.5547609329223633,-0.22096920013427734,-0.08163513243198395
1759335448107195600,4.167195556640625,0.4391822814941406,-0.2059035301208496,-0.15372158586978912
1759335448117195500,4.177195556640625,0.28285884857177734,-0.1656792163848877,-0.15059936046600342
1759335448127195600,4.187195556640625,0.11254119873046875,-0.10630583763122559,-0.14985701441764832
1759335448137195500,4.197195556640625,-0.035991668701171875,-0.07779407501220703,-0.23210597038269043
1759335448147196200,4.207196044921875,-0.12772178649902344,-0.06580781936645508,-0.33838599920272827
1759335448157196000,4.217196044921875,-0.15839290618896484,-0.02577352523803711,-0.3434712886810303
1759335448167196200,4.227196044921875,-0.1383676528930664,-0.03560686111450195,-0.29797613620758057
1759335448177196000,4.237196044921875,-0.06565284729003906,-0.04634428024291992,-0.1940973550081253
1759335448187197000,4.247197021484375,0.07664299011230469,-0.14451241493225098,-0.09684796631336212
1759335448197197000,4.257197021484375,0.09546279907226562,-0.3418240547180176,-0.07731574028730392
1759335448207197000,4.267197021484375,-0.028795242309570312,-0.5044593811035156,-0.01417955756187439
1759335448217197000,4.277197021484375,-0.34721946716308594,-0.44518065452575684,0.108519047498703
1759335448227197000,4.287197021484375,-0.63714599609375,-0.33654141426086426,0.10444018244743347
1759335448237197000,4.297197021484375,-0.726099967956543,-0.23164844512939453,0.13281981647014618
1759335448247196200,4.307196044921875,-0.7231254577636719,-0.23971319198608398,0.14035357534885406
1759335448257196300,4.3171962890625,-0.6810226440429688,0.03149747848510742,0.003059893846511841
1759335448267196200,4.327196044921875,-0.4645843505859375,0.02747654914855957,-0.055468492209911346
1759335448277196300,4.3371962890625,-0.20081424713134766,-0.04648256301879883,-0.07897358387708664
1759335448287195400,4.3471953125,0.1751251220703125,-0.0005745887756347656,-0.07277992367744446
1759335448297195300,4.3571953125,0.6137485504150391,0.0076940059661865234,-0.13841384649276733
1759335448307195400,4.3671953125,1.6864385604858398,0.21369528770446777,-0.3802548050880432
1759335448317195300,4.3771953125,1.2708683013916016,0.398543119430542,-0.23069509863853455
1759335448327195400,4.3871953125,1.0451545715332031,0.19652771949768066,-0.06740589439868927
1759335448337195300,4.3971953125,0.5756015777587891,-0.019994735717773438,0.14057795703411102
1759335448347195400,4.4071953125,0.15699481964111328,-0.15150904655456543,0.1572144627571106
1759335448357195300,4.4171953125,-0.0038204193115234375,-0.15055465698242188,-0.06918956339359283
1759335448367195400,4.4271953125,-0.12680435180664062,-0.020364046096801758,-0.3060951232910156
1759335448377195300,4.4371953125,-0.26325416564941406,0.11531448364257812,-0.5337902903556824
1759335448387196200,4.447196044921875,-0.26561737060546875,0.21843385696411133,-0.6048632860183716
1759335448397196300,4.4571962890625,-0.37111949920654297,0.2625236511230469,-0.5100367069244385
1759335448407196200,4.467196044921875,-0.5075139999389648,0.24552345275878906,-0.37718042731285095
1759335448417196300,4.4771962890625,-0.6200437545776367,0.18249249458312988,-0.15822027623653412
1759335448427196200,4.487196044921875,-0.5585060119628906,0.05829167366027832,0.0016556582413613796
1759335448437196300,4.4971962890625,-0.42548465728759766,-0.03469729423522949,0.16132541000843048
1759335448447196200,4.507196044921875,-0.06228446960449219,-0.07909393310546875,0.2428092211484909
1759335448457196300,4.5171962890625,0.22216415405273438,-0.07227611541748047,0.25839462876319885
1759335448467196200,4.527196044921875,0.3379402160644531,-0.11995482444763184,0.27619192004203796
1759335448477196300,4.5371962890625,0.5661220550537109,-0.19354796409606934,0.2925701141357422
1759335448487195400,4.5471953125,0.6158351898193359,-0.19579577445983887,0.24116556346416473
1759335448497195300,4.5571953125,0.4154024124145508,-0.13433408737182617,0.12652422487735748
1759335448507195400,4.5671953125,0.26761722564697266,-0.0888831615447998,0.028749052435159683
1759335448517195300,4.5771953125,0.2025928497314453,0.012724876403808594,-0.032122399657964706
1759335448527195400,4.5871953125,0.27007102966308594,0.08575820922851562,-0.13811513781547546
1759335448537195300,4.5971953125,0.13594913482666016,0.09307289123535156,-0.1945771872997284
1759335448547196200,4.607196044921875,0.020565032958984375,0.0344696044921875,-0.15585465729236603
1759335448557196000,4.617196044921875,0.12277889251708984,-0.03534102439880371,-0.15121904015541077
1759335448567196200,4.627196044921875,0.4308958053588867,0.0026023387908935547,-0.22635164856910706
1759335448577196000,4.637196044921875,0.4087076187133789,0.12170934677124023,-0.3183678984642029
1759335448587197000,4.647197021484375,0.2740020751953125,0.07318973541259766,-0.38321107625961304
1759335448597197000,4.657197021484375,0.159698486328125,-0.014650106430053711,-0.349832683801651
1759335448607197000,4.667197021484375,0.04749107360839844,-0.014818429946899414,-0.36738041043281555
1759335448617197000,4.677197021484375,0.032718658447265625,0.03318619728088379,-0.43658071756362915
1759335448627197000,4.687197021484375,-0.06968498229980469,0.04751777648925781,-0.5795406699180603
1759335448637197000,4.697197021484375,-0.23248672485351562,0.022620439529418945,-0.6404768228530884
1759335448647197000,4.707197021484375,-0.26932525634765625,-0.05243539810180664,-0.5792437791824341
1759335448657197000,4.717197021484375,-0.24706077575683594,-0.06319379806518555,-0.415321946144104
1759335448667197000,4.727197021484375,-0.11337852478027344,0.0008592605590820312,-0.2542007565498352
1759335448677197000,4.737197021484375,0.2201986312866211,0.09690690040588379,0.003205079585313797
1759335448687196200,4.747196044921875,0.2699394226074219,0.16057825088500977,0.13828663527965546
1759335448697196000,4.757196044921875,0.1321277618408203,0.0755462646484375,0.19315147399902344
1759335448707196200,4.767196044921875,-0.03842639923095703,-0.05216813087463379,0.0585595965385437
1759335448717196000,4.777196044921875,-0.10712528228759766,-0.10663294792175293,-0.06948474049568176
1759335448727196200,4.787196044921875,-0.11644649505615234,0.03752923011779785,-0.18821437656879425
1759335448737196000,4.797196044921875,-0.1857290267944336,0.16878437995910645,-0.24882104992866516
1759335448747196400,4.807196533203125,-0.14086055755615234,0.20504379272460938,-0.2279009222984314
1759335448757196500,4.817196533203125,-0.3847341537475586,0.05463075637817383,-0.3508758544921875
1759335448767196400,4.827196533203125,-0.32623958587646484,-0.19787120819091797,-0.4309723973274231
1759335448777196500,4.837196533203125,0.054650306701660156,-0.3151571750640869,-0.4708264470100403
1759335448787197400,4.847197509765625,0.27037811279296875,-0.30175065994262695,-0.3946796655654907
1759335448797197300,4.857197265625,0.16869831085205078,-0.22139310836791992,-0.23285779356956482
1759335448807197400,4.867197509765625,-0.06453704833984375,-0.3281726837158203,-0.013473838567733765
1759335448817197300,4.877197265625,-0.30109310150146484,-0.43735623359680176,0.20424744486808777
1759335448827197400,4.887197509765625,-0.24336528778076172,-0.37224411964416504,0.37133288383483887
1759335448837197300,4.897197265625,0.10149002075195312,-0.3124678134918213,0.41999533772468567
1759335448847197400,4.907197509765625,0.7790193557739258,-0.3422079086303711,0.31506213545799255
1759335448857197300,4.917197265625,1.387960433959961,-0.3890385627746582,0.15707343816757202
1759335448867197400,4.927197509765625,1.123941421508789,-0.32785558700561523,-0.056692421436309814
1759335448877197300,4.937197265625,0.427398681640625,-0.18831586837768555,-0.27019453048706055
1759335448887196400,4.947196533203125,-0.1975259780883789,-0.0000591278076171875,-0.44076603651046753
1759335448897196500,4.957196533203125,-0.4566783905029297,0.07224750518798828,-0.40045374631881714
1759335448907196400,4.967196533203125,-0.2431964874267578,0.025934696197509766,-0.1464807689189911
1759335448917196500,4.977196533203125,-0.31447505950927734,0.031232833862304688,0.07968991994857788
1759335448927196400,4.987196533203125,-0.6661977767944336,-0.04837656021118164,0.15966171026229858
1759335448937196500,4.997196533203125,-0.7554416656494141,0.03305554389953613,0.26698681712150574
1759335448947196400,5.007196533203125,-0.6446914672851562,0.18087387084960938,0.18703195452690125
1759335448957196500,5.017196533203125,-0.2953062057495117,0.3299102783203125,-0.3465063273906708
1759335448967196400,5.027196533203125,0.16088104248046875,0.3612203598022461,-0.8564598560333252
1759335448977196500,5.037196533203125,0.740203857421875,0.22144460678100586,-1.0071676969528198
1759335448987197400,5.047197509765625,0.6556730270385742,-0.053853511810302734,-0.8532103300094604
1759335448997197300,5.057197265625,0.4205284118652344,-0.3404242992401123,-0.5048470497131348
1759335449007197400,5.067197509765625,-2.0309371948242188,-0.45952630043029785,-0.17871567606925964
1759335449017197300,5.077197265625,0.5455150604248047,-0.3083624839782715,-0.4996070861816406
1759335449027197400,5.087197509765625,0.04426097869873047,0.3996906280517578,-0.25802576541900635
1759335449037197300,5.097197265625,-0.1431140899658203,0.7129883766174316,-0.1058015525341034
1759335449047197400,5.107197509765625,0.4418802261352539,0.19508934020996094,-0.07769009470939636
1759335449057197300,5.117197265625,-0.21056079864501953,-0.17929935455322266,-0.008844107389450073
1759335449067197400,5.127197509765625,-1.1723060607910156,-0.49783873558044434,0.1412011981010437
