seconds_elapsed,acc_z,acc_y,acc_x,grav_z,grav_y,grav_x,gyro_z,gyro_y,gyro_x
8.055305419921876,2.54375626180768,-1.877252254483104,-4.299244715623558,-2.0098494377233087,-9.21014599609673,2.702611483506858,-0.8506445288658142,-0.6736027002334595,-0.5916531682014465
8.065363525390625,3.625817338776588,-3.1818951753914355,-5.429798020821809,-2.0746742304638026,-9.178619223454596,2.760263169747591,-0.6981508135795593,-0.7221113443374634,-0.3899618983268738
8.07542041015625,4.075207119917869,-4.491098536083102,-6.171342363822459,-2.1213884892351924,-9.156150786536932,2.799108740970492,-0.4461263120174408,-0.6088995337486267,-0.2227345556020736
8.085478759765625,3.918246918185055,-5.167601959374546,-6.602551176106929,-2.149979208425432,-9.143886932769416,2.817317474617064,-0.1729046106338501,-0.3270750939846039,-0.1125558614730835
8.095536376953126,3.5689340065598487,-5.027617150101065,-6.920970644557476,-2.161442705595493,-9.140818777370452,2.818506099879741,0.0820685923099517,0.0753824338316917,-0.065470315515995
8.105594482421875,3.037982671280205,-4.5626294023334975,-7.200958967804908,-2.158861456930637,-9.144922121036052,2.8071494240850208,0.2751248478889465,0.4174913167953491,-0.0305448248982429
8.115652587890626,2.7823049056857823,-4.061523462480307,-7.082768057188392,-2.141855084811151,-9.154767223224043,2.788018607157469,0.3838381171226501,0.6814512014389038,0.0771151110529899
8.125709716796875,3.4211467068418857,-3.767756204727292,-6.066315470683574,-2.10313927744776,-9.169762547782064,2.768153338475525,0.4041785299777984,0.8719053268432617,0.3001407384872436
8.135767578125,4.218945728766918,-3.897608327043056,-4.626138582430779,-2.0358828736461696,-9.190295632722972,2.750281289437413,0.375029981136322,0.8412147760391235,0.6462043523788452
8.145825439453125,4.76304705299884,-4.555723276206851,-3.298208017176389,-1.9368413385272023,-9.217518570691349,2.7306320015937087,0.3630207180976867,0.6078497171401978,1.062536120414734
8.155883544921876,5.0641106052398674,-4.963053784775734,-2.274045002424717,-1.8063504799164831,-9.250721752113105,2.7076944858595726,0.3248848617076874,0.3511410653591156,1.460713505744934
8.165941650390625,5.270540355801582,-4.726940843611955,-1.7725155764624476,-1.6464672303438186,-9.287966902402042,2.682012932114303,0.3247133493423462,0.1570323407649994,1.824650764465332
8.17599951171875,5.219615639728308,-4.125308829170465,-2.3077295376226306,-1.4554818632818758,-9.32905703768134,2.64965116995275,0.3980243802070617,-0.0265046190470457,2.2224905490875244
8.186056396484375,4.670349772340059,-3.4231565853595733,-3.1086341243475677,-1.2301808235116305,-9.37430020098686,2.603756849262118,0.5410028100013733,-0.2659763097763061,2.648775577545166
8.196114501953126,3.5810230882823464,-2.6970453738123177,-3.736211311906576,-0.9719418291270732,-9.42240401442051,2.538511639152467,0.731135904788971,-0.7089930772781372,3.0632598400115967
8.20617236328125,1.9824983433306216,-2.0654484292179345,-4.1735137648910285,-0.6917240079727024,-9.470413719829915,2.4501373362593357,0.9523916244506836,-1.2649133205413818,3.333229780197144
8.21623046875,0.3953344023594632,-1.4827332966923712,-3.936937882390618,-0.4040137852363288,-9.514732169505953,2.340304942534864,1.150481104850769,-1.8182953596115112,3.4510347843170166
8.226288818359375,-1.2300970907509323,-1.1987860066860914,-2.6609201674640177,-0.1209809431938454,-9.55162836022675,2.218591556880623,1.2403934001922607,-2.3546299934387207,3.4276788234710693
8.236345703125,-3.3382612106233838,-1.722909249511361,-0.5311576715067029,0.1454438053317368,-9.577872224029898,2.1008562810771165,1.182431697845459,-2.73485803604126,3.2421720027923584
8.2464033203125,-5.222337758168578,-2.957702973645925,1.5940630893677472,0.3866488454701379,-9.591953940874337,2.0038236015625297,0.9459837079048156,-2.7208092212677,2.926299810409546
8.25646142578125,-6.093377665132284,-3.736265672442317,3.1019530391484498,0.6028745618484914,-9.593601708081364,1.9415823955744504,0.5778611898422241,-2.061713933944702,2.5502805709838867
8.26651953125,-6.012559330576658,-3.8176603455811735,4.177094545987249,0.8017284703284502,-9.584481997558472,1.9145026654690505,0.2083486318588256,-0.8918691277503967,2.1813735961914062
8.27657763671875,-5.691197378933429,-4.171225361692906,4.754880405417085,0.9942224153224378,-9.568199555799364,1.905638975533843,0.0446343570947647,0.5076480507850647,1.917040467262268
8.286635498046875,-4.863742931196093,-4.4674674851268525,4.9743619452536105,1.1944794685985891,-9.549684824943542,1.8833799435831609,0.1710016280412674,1.808700680732727,1.7878364324569702
8.296692626953124,-3.787446993625164,-3.8687931514471767,5.486029026609659,1.4016253315404057,-9.53319955408871,1.8231696589007973,0.4476110637187958,2.8336074352264404,1.6069979667663574
8.30675048828125,-2.47044377283752,-2.246739646869898,7.052996019259095,1.598954222410172,-9.520912319445609,1.7222021241553127,0.6786685585975647,3.220370054244995,1.356900691986084
8.31680859375,-1.1373382891632615,-0.2748749257564544,8.494544488126039,1.7632725318208335,-9.514117252478004,1.5946211616419257,0.8842549324035645,2.8420181274414062,1.0062962770462036
8.326866455078125,0.2364138238064944,0.8604121299654245,9.63409972268641,1.8882905119784172,-9.511410331606864,1.4621270003847775,0.8631613850593567,2.3371355533599854,0.8102343678474426
8.3369248046875,2.355736904944479,0.7271586747735739,8.578383047285676,1.9934800483331083,-9.507293543937802,1.344535078574717,0.633642852306366,2.345954418182373,0.7022575736045837
8.346982421875,2.026447082911432,0.4772124385684728,5.9632823817104095,2.0860431812182068,-9.500508998364207,1.2486515690952538,0.3314702212810516,2.511220216751098,0.5652954578399658
8.357039306640624,-0.8793646677166223,0.6103367144227028,3.1642163108378645,2.1556237901836632,-9.495368712866306,1.1668944923847913,0.4177910685539245,2.0622541904449463,0.2492139488458633
8.367097412109375,-6.120924428227544,-0.002711597046256,-2.731227921660244,2.1737838623829187,-9.503316457000372,1.063965521373227,1.0473366975784302,1.201711893081665,-0.2201484739780426
8.37715576171875,-5.45042404474318,-0.7481622998356818,-6.241930980786681,2.1604918346114457,-9.52221404969394,0.9110912737797944,1.5912775993347168,1.1415414810180664,-0.220155268907547
8.387213623046875,-1.0180397095657885,-0.744321991020441,-3.974435253874957,2.166807593629509,-9.536977903583644,0.7220618630912155,1.7683913707733154,1.2393088340759275,0.1579155921936035
8.397271240234375,-1.826231238428503,0.3303518983066081,-2.5845950526744126,2.2066100271858278,-9.540396187594531,0.5311182893443852,1.6962592601776123,0.8494068384170532,0.5048608183860779
8.407328369140625,-4.397213799205423,1.6324351978600025,-2.4592706369161603,2.2639796816147864,-9.534796467891336,0.3638955637291073,1.5928133726119995,-0.0477985329926013,0.6235970854759216
8.417386474609375,-6.26740853639245,2.393220832425356,-2.860799765729904,2.323560436221957,-9.524650921452045,0.2291231736079789,1.4570391178131104,-0.9408647418022156,0.6518577933311462
8.427444580078125,-5.554415749615431,2.9782436573714017,-2.521550275218486,2.3871862284362315,-9.510822887107729,0.1264506615755148,1.2731845378875732,-1.3671069145202637,0.7252252101898193
8.437502685546875,-3.784700909787416,3.333936917683482,-1.8191700678706169,2.459809273837507,-9.493020688435434,0.0477601145625114,1.0856871604919434,-1.3937844038009644,0.822274386882782
8.447560791015626,-3.022484950158,3.108644645741582,-1.243794046061486,2.541699329277873,-9.471534832814337,-0.0134612091842747,0.9573644399642944,-1.4876283407211304,0.8908352851867676
8.45761767578125,-3.458850414553285,2.778247739249468,-0.3541581962319091,2.628660988894105,-9.44759573882222,-0.0589913693126989,0.8680819869041443,-1.7012466192245483,0.9246023893356324
8.46767578125,-3.579069323866069,2.42016319988668,0.812211505093798,2.719700565473735,-9.421558211246133,-0.0887136452495586,0.8045613765716553,-2.0072991847991943,0.9703634977340698
8.477733642578125,-3.4666613805651663,2.391463759624958,2.074195068644732,2.8152888913989065,-9.393306514751911,-0.1016722946145106,0.685326099395752,-2.174493789672852,1.0129811763763428
8.4877919921875,-3.323368469657004,2.6349106969386336,3.2316438334226607,2.913959401248395,-9.363215327870844,-0.0970353829283267,0.5665948987007141,-2.236212015151977,1.0238103866577148
8.497849609375,-3.546697624832392,2.72305776694715,3.785862939304113,3.0089000769197938,-9.333298913034795,-0.0802370732021052,0.4603578746318817,-2.12256932258606,0.942964732646942
8.50790771484375,-4.061108451938629,2.7415952941566704,3.9058661600396034,3.090858229160309,-9.306645883908867,-0.0576358082515886,0.3872378766536712,-1.8834304809570312,0.7556397914886475
8.517964599609375,-3.98361487789154,2.9909096621990203,4.02386154808402,3.148637048912048,-9.287360753202435,-0.0375158980882959,0.3063992857933044,-1.488375186920166,0.4524963200092315
8.52802294921875,-3.8922634588837615,3.5012048706799743,3.8674765158906577,3.1759479574248197,-9.278113616907596,-0.0186478374498896,0.2260365486145019,-1.292328715324402,0.1279507130384445
8.538080810546875,-3.932530879603326,3.910928411865234,3.3269550959721204,3.1755136576607823,-9.278279036602378,0.0054741102873522,0.1543600559234619,-1.383489012718201,-0.1183977648615837
8.548138671875,-3.3805127908974884,4.156758444923162,2.593353528669476,3.154709939084947,-9.285288038581609,0.0402684892986435,0.0793507918715477,-1.4561216831207275,-0.3203974664211273
8.55819677734375,-2.3576669962242245,4.241435208472609,2.0449324415422976,3.114533411519229,-9.29858708061576,0.0796222201062366,0.0656562894582748,-1.443251609802246,-0.5208063721656799
8.568253662109376,-1.537098508608341,4.199117577224969,1.62262984316051,3.055471566219628,-9.317771089035272,0.1167576629430055,0.0874846279621124,-1.3956226110458374,-0.7072159647941589
8.578311767578125,-0.6048281801342964,4.2625078071177,1.3994085322737693,2.978828763782978,-9.342105904346704,0.1484430054140277,0.0877062082290649,-1.2299532890319824,-0.885938286781311
8.58836962890625,0.4725710425034165,4.213406214818358,1.5138713622778652,2.887241782453656,-9.370366368669272,0.1744898488077335,0.0445970818400383,-0.9776734113693236,-1.0111422538757324
8.598427734375,1.4249325573697684,3.749021109119057,1.5862730200134216,2.7878143167570237,-9.399934992980956,0.1992028497817926,-0.0475750938057899,-0.7798948884010315,-1.0486173629760742
8.608485595703126,2.406048165294528,3.067432929909229,1.817049422454834,2.688214124841988,-9.428228775051236,0.228945405888278,-0.1584672629833221,-0.675619900226593,-1.0163624286651611
8.618542724609375,3.279614668126404,1.9488515097945929,1.5014052639365196,2.594559105066955,-9.453477782598137,0.2653661245844326,-0.2321197688579559,-0.6784974336624146,-0.9062631726264954
8.6286005859375,4.856306935976446,0.4391799372941255,1.0833579849116504,2.5176845397010443,-9.472950544831155,0.3079724548466503,-0.2893058061599731,-0.682059109210968,-0.6445156931877136
8.638658935546875,7.506847455984354,-1.5363842228591442,0.6378764632552861,2.473232234512269,-9.483078555613757,0.3531733499130234,-0.3096890747547149,-0.633874237537384,-0.2252475321292877
8.648716796875,9.744850838690995,-3.8442578451275824,-0.0046144349928945,2.471562255473435,-9.481718373176456,0.3984606080885976,-0.3092480599880218,-0.632240355014801,0.2316305190324783
8.658774658203125,9.815720610684156,-6.266876621472835,-1.0051355120681225,2.505139823165536,-9.471108131834864,0.4390563109144568,-0.1658358126878738,-0.714942455291748,0.4957993924617767
8.668832763671874,7.714272062802315,-8.218879288774728,-2.900463083076477,2.547575235573947,-9.458858306592704,0.4585271369187161,0.1764078140258789,-0.7545817494392395,0.4249923229217529
8.678889892578125,4.811675767089426,-8.463893329274654,-4.839645431771874,2.572490773382783,-9.452964572378992,0.4405994121706112,0.5935295224189758,-0.7110223770141602,0.1647775918245315
8.68894775390625,2.997908727306128,-6.573266044911742,-4.901076344290376,2.5765409255564213,-9.454118418589234,0.3892032426606863,0.80587238073349,-0.6168929934501648,0.0049410536885261
8.699005859375,2.4761060363829133,-3.191181474652886,-2.8105831979259848,2.5750609161317346,-9.456787345537542,0.3295916910564527,0.7595698833465576,-0.6120787262916565,0.0225071851164102
8.709063720703124,1.5782064718052744,-0.0026975685209035,-1.6112499326206742,2.578277832351625,-9.457542547819015,0.2788767818089574,0.6294739842414856,-0.5705890655517578,0.0815915465354919
8.719121826171875,0.8881965012088417,2.191490053334832,-1.0368235396865757,2.5848916975334286,-9.456843459638952,0.238357249491848,0.4648116528987884,-0.3328480720520019,0.071163035929203
8.7291787109375,0.3667956690847873,3.906961846321821,-0.3238982286551967,2.5873499043405053,-9.456870932167767,0.2088269113639369,0.2349680811166763,0.0071928570978343,-0.0205714162439107
8.73923681640625,-0.1416112414315342,4.945591777843236,0.5800872682400048,2.5775623775586483,-9.459860177111626,0.1939880012103356,-0.0434011965990066,0.4246756434440613,-0.2071847170591354
8.749294921875,-0.6353074895501136,5.016961316052079,1.7250309178404508,2.545880706615746,-9.468381337219476,0.1966149704467505,-0.3698123395442962,0.8665215373039246,-0.4975169003009796
8.7593525390625,-1.032659624940157,4.318895464771986,2.9157603131905194,2.4857903950512408,-9.483786996144056,0.2213921957634389,-0.7203547954559326,1.29961359500885,-0.801734209060669
8.76941064453125,-0.5788065807797015,3.22806422137022,3.3040310242414472,2.402739479137957,-9.50401437613666,0.2663222562654875,-0.9730549454689026,1.6564968824386597,-0.999954104423523
8.7794677734375,-0.4976023156464099,1.685298773041367,3.188968474778533,2.3098633347809314,-9.525112109223008,0.3273655029069632,-1.1674331426620483,1.793250560760498,-1.01816987991333
8.78952587890625,-0.1684405039072036,-1.1942243978589773,4.581560605035722,2.231045380262285,-9.540627658262848,0.4113973926816135,-1.45205819606781,1.8365471363067627,-0.721335232257843
8.799583740234375,0.145763100413978,-6.541352903300523,7.15481505626738,2.192025475385785,-9.54469066991806,0.5141123556163162,-1.409911870956421,1.4915440082550049,-0.2781350910663605
8.8096416015625,-3.953791402035952,-11.924202125942706,8.843698117536306,2.176844711258262,-9.54295756251514,0.6030732992909849,-0.8693659901618958,0.5187695026397705,-0.2003817111253738
8.81969970703125,-7.68453158905506,-12.015644730365276,8.9285478995651,2.153178588988632,-9.544740354278684,0.6573864156935364,-0.3098704218864441,-0.4329338371753692,-0.2943645715713501
8.8297568359375,-5.6051820602566,-6.428779248043894,7.580254052978754,2.1195235721461474,-9.549823356631398,0.6920120311338455,-0.1831662803888321,-0.7597902417182922,-0.3022381663322449
8.839814697265625,-2.585508075866103,-0.1414519592165946,5.906223108404874,2.0866160126700994,-9.55431657639742,0.7290077367063611,-0.3158961534500122,-0.4975947141647339,-0.2949671447277069
8.849873046875,-1.9656636745162308,3.2781314438313243,4.421759042397142,2.0514061676010487,-9.558271451503035,0.7756036297950893,-0.5486699938774109,-0.0381549559533596,-0.4197090864181518
8.8599306640625,-3.085203272138536,5.1572068220883605,3.7927977070033543,1.999582749122381,-9.564035421857238,0.83743910452649,-0.8118963241577148,0.409932404756546,-0.7020115256309509
8.86998876953125,-4.411901080727577,5.462567487001419,3.249258108307421,1.920734253334999,-9.5734117374897,0.9115653940975664,-0.9335545301437378,0.6514164209365845,-1.0358102321624756
8.880045654296875,-5.493289373001456,4.589714977657795,2.32432879024595,1.812952654660493,-9.586862170693278,0.987749858307466,-0.8915451765060425,0.6510999798774719,-1.3232018947601318
8.890103759765625,-6.124626205354929,3.478353571924567,1.53145933367759,1.6814372753076254,-9.603319384497404,1.0580194724503904,-0.7610369920730591,0.4190068244934082,-1.4930630922317505
8.900161865234375,-5.783257238471507,2.6924036854863167,1.4414619596272706,1.5444729828990995,-9.619276832085848,1.12003410314098,-0.6372272968292236,0.236206516623497,-1.384527564048767
8.9102197265625,-4.549452525374293,2.0240099188923835,1.6677441193893552,1.4266653725117444,-9.6311361967057,1.1731256418593228,-0.4881739616394043,-0.01776690967381,-1.0469794273376465
8.920277587890626,-4.079576421043276,1.347645611810684,1.3552858974307775,1.3458470379561185,-9.63741922249794,1.2162361770503225,-0.3546607792377472,-0.3312210142612457,-0.5711970925331116
8.930335693359375,-3.6109622994720936,0.8445289166569709,1.203895750915259,1.3074413194552064,-9.638131754681469,1.251956163598597,-0.2671690285205841,-0.5929551720619202,-0.1129128783941268
8.940392822265625,-3.5557635593414303,0.2110778686285019,1.1571050659067927,1.3050646534517407,-9.633907414984703,1.2864771496206522,-0.2628825306892395,-0.7858442068099976,0.229771539568901
8.95045068359375,-3.84558646338284,-0.5172241309612989,0.7984028330370784,1.3255394323341547,-9.625812371334431,1.3255534608595072,-0.3353314101696014,-0.893850564956665,0.3642451763153076
8.960509033203126,-4.589533191350102,-1.373833946034312,0.3006858049698174,1.3117214809924362,-9.619442251780628,1.3842339056260884,-0.6482325196266174,-0.7746261954307556,-0.4959664642810821
8.970566650390625,-4.3257823016762735,-3.574495732340216,-0.8987086890034377,1.1985060937661678,-9.622194180837273,1.4653864405721426,-0.8598963022232056,-0.3171476125717163,-1.682828426361084
8.980624755859376,-3.059371204006672,-4.931455115941167,-2.076796629445255,0.9840477158538996,-9.63307213320434,1.5511197274371982,-0.8653057217597961,0.1810047477483749,-2.678224563598633
8.990681640625,-1.8014117083400487,-4.030284274607896,-3.296898688143492,0.7023232895288616,-9.645696052455902,1.624100354104489,-0.6969825029373169,0.6321210861206055,-3.206451416015625
9.000739990234376,-0.3166367132196203,-2.8489024071872238,-4.601777171373367,0.4011821054743603,-9.653768299752471,1.67755868030861,-0.49745973944664,1.020317316055298,-3.221505641937256
9.0107978515625,1.3228583765566349,-1.6520272025585174,-5.051355753085017,0.126231876858836,-9.655039050340651,1.7130907430693507,-0.3017152547836303,1.492091417312622,-2.839327335357666
9.020855712890626,3.0053777480125428,-0.5236690693169832,-5.225975237888098,-0.0914844890692271,-9.6519872615546,1.732386249039322,-0.0967842042446136,1.9937058687210083,-2.256242036819458
9.030913818359377,3.5550808377742764,0.168667298400402,-5.251992307198047,-0.2421046741255559,-9.648957100078462,1.7347599924333392,0.1287295967340469,2.342825412750244,-1.6350923776626587
9.040970703125,3.211116593700647,0.7089227608591318,-4.9454450628489255,-0.3314907661434262,-9.649021397486328,1.7195576009958982,0.3128863275051117,2.472853660583496,-1.0789376497268677
9.05102880859375,2.7998002303659915,1.3831208298176527,-3.7975595145776864,-0.3732773227216676,-9.651945175978542,1.694402701473236,0.370318740606308,2.499061822891236,-0.6937199831008911
9.061086669921876,2.007768393665552,1.8700328246235849,-2.4661294167697427,-0.390485793284513,-9.65537748851478,1.6708049682646988,0.2946678102016449,2.431450128555298,-0.550179123878479
9.071144775390623,1.0242366645097731,1.7731857308089731,-1.6105597583994269,-0.4071315153980627,-9.656693247288464,1.6591918334908782,0.1374547481536865,2.2746264934539795,-0.6320548057556152
9.08120263671875,0.1605482528200373,1.39711311481297,-1.2597680063933134,-0.4432131383329629,-9.654416534528137,1.663190839999169,-0.0267075672745704,1.974425792694092,-0.8529449105262756
9.091259765625,-0.2346587237674743,0.8483131113708019,-1.1122237216509878,-0.508292307693325,-9.648801032733918,1.677105675844103,-0.0712745040655136,1.4964933395385742,-1.0876189470291138
9.101317626953126,-0.4077052601654082,0.3235042243689298,-1.2157640294939278,-0.6018992870755493,-9.641588617137074,1.6875712480179963,-0.0015111840330064,0.8827532529830933,-1.244755506515503
9.1113759765625,-0.1473567993462085,0.2692915726661682,-1.0604644544497133,-0.7154529663454741,-9.6336128159523,1.688792460376024,0.0443535074591636,0.3279555439949035,-1.292094588279724
9.121433837890624,0.425980921568349,0.4863520228356122,-0.3638755438543856,-0.8358389027882367,-9.62397112738192,1.688467320074886,-0.0302976071834564,-0.0531575009226799,-1.22480571269989
9.13149169921875,1.0775415537178517,0.4540396527737378,0.3831432850345969,-0.949451691834256,-9.612010640475154,1.6965198397576808,-0.1789659112691879,-0.2864554822444916,-1.0505529642105105
9.141548583984376,1.6931855807684362,0.2267886479794979,0.8335910507962108,-1.0455542508918791,-9.59799439008236,1.7192264693453907,-0.3581181168556213,-0.3092957437038421,-0.8251639008522034
9.15160693359375,2.182772055480629,0.0878138925313949,0.9398404714673756,-1.1175015889886766,-9.582468319648504,1.760070667039603,-0.5371856689453125,-0.1182789355516433,-0.5884386897087097
9.161664794921874,2.313953818964958,0.0522632712006568,0.6537387799061835,-1.1641389831315725,-9.565922843039036,1.8188732768811284,-0.6743766069412231,0.1537906527519226,-0.3914313018321991
9.171722900390623,2.0550363407969474,-0.0017179098337888,0.0405542748369276,-1.1904302662730215,-9.548602290403842,1.8914168273054064,-0.7599447965621948,0.3857008218765259,-0.2747139930725097
9.18178076171875,1.5514311314739286,0.1088186866372823,-0.6430602956339716,-1.2074143534954636,-9.530150687912109,1.97199185462445,-0.7955438494682312,0.5550534129142761,-0.2915161252021789
9.191837646484377,0.7824443625353277,0.2691682385474443,-1.2194383340924977,-1.230010581511259,-9.50944107736051,2.056212106578052,-0.8038113713264465,0.6639894843101501,-0.4557982683181762
9.201895751953124,0.0227824713028967,0.2892909891217947,-1.8341189229384065,-1.2700120447710157,-9.48556920338571,2.1404269517041743,-0.7810484766960144,0.6324388980865479,-0.6731382012367249
9.21195361328125,-0.4980230252765119,0.1398573835015296,-2.450485857436061,-1.330099725987017,-9.459136539012194,2.21944525110051,-0.7295376062393188,0.4454580843448639,-0.8247162699699402
9.222011962890624,-0.4767208556592464,-0.0155389299154281,-2.814424091263115,-1.4033259979784487,-9.431531908249854,2.2906921858429907,-0.672561526298523,0.2076772451400756,-0.8608260154724121
9.232069580078123,-0.1400492528118193,-0.1092623387515544,-3.018136984081566,-1.4814233831375836,-9.404548039734363,2.35165109693557,-0.5819653272628784,-0.027449507266283,-0.8264067769050598
9.242126708984374,0.2424948972858488,-0.331346170040965,-3.3020991793960333,-1.5600534138686954,-9.379984091842172,2.3984375441603363,-0.4493339657783508,-0.219558835029602,-0.7705705165863037
9.2521845703125,0.8666472249627113,-0.7835714668691158,-3.3158579478964207,-1.6359338536307215,-9.358715678364035,2.4307513755269348,-0.3283031284809112,-0.3063808083534241,-0.7012473940849304
9.262242919921874,1.5256066621266304,-1.463686650916934,-3.1487410938084124,-1.7065186712026594,-9.340897113078832,2.450682256790996,-0.2007384747266769,-0.2706946730613708,-0.6481595039367676
9.27230078125,2.005921304494142,-2.402609423017502,-3.142475019150972,-1.7711399041950702,-9.326135597276688,2.461025371629,-0.1113007441163063,-0.1661402881145477,-0.6116281151771545
9.282358642578124,2.1151612852834165,-3.4723592999458317,-3.263360283418,-1.8299518663868304,-9.31327728474736,2.466689973261952,-0.0512595102190971,-0.0390466451644897,-0.5856114029884338
9.29241552734375,2.251426343381405,-4.485101341494918,-3.5940947513014074,-1.88256950398311,-9.302058556118608,2.4694185214430093,0.0093830656260252,0.1016063466668129,-0.5537949204444885
9.302473876953124,2.651196061307192,-4.986831550726294,-3.906187939339876,-1.9263520932167768,-9.29278570086062,2.47056447660774,0.0430456288158893,0.3089528381824493,-0.476974219083786
9.31253173828125,3.450134608656168,-4.8750680428087705,-3.966165438179672,-1.952561324097961,-9.285886588996648,2.4759245423361658,0.0302211809903383,0.6227389574050903,-0.3133714199066162
9.32258984375,4.573673358917236,-4.185314677321911,-3.751677468846738,-1.948431676947325,-9.282967486679553,2.4900831238090992,0.0163612402975559,1.0191770792007446,-0.0226644184440374
9.332647705078124,5.31621840339303,-3.651535717400909,-3.519053831103444,-1.904332130718976,-9.286580416479708,2.5106463116273283,0.0167356804013252,1.2107609510421753,0.3583063781261444
9.342705078125,5.045621008825302,-3.3673493579417464,-3.330682007540762,-1.8236247091919184,-9.297079598662256,2.5316172034636137,0.001295790541917,1.0947625637054443,0.727320671081543
9.3527626953125,4.596763142603636,-3.484423831748962,-3.0141102127835158,-1.7172862950630483,-9.312434404182431,2.5494851608484983,-0.0231094174087047,0.7639201283454895,1.030101656913757
9.362820556640624,4.651121340256929,-3.892578516182303,-2.860171112437546,-1.5913316185772417,-9.331494493961332,2.561494163072109,-0.0038341446779668,0.5162250995635986,1.315988302230835
9.37287890625,5.412637627184391,-4.01310166913867,-2.969179184167087,-1.4406572191156446,-9.354773078218102,2.565755912169814,0.0652969926595687,0.3978379964828491,1.6495352983474731
9.38293701171875,5.485368516874313,-3.744076053932309,-3.498361463947594,-1.2576571517191826,-9.383031788975,2.5587869499400258,0.1863587945699691,0.2498292028903961,2.061023473739624
9.392993896484375,4.730227025675774,-3.439337904831767,-4.339266344888508,-1.040463357493654,-9.416328493899108,2.533888655526936,0.3709456920623779,-0.0800499022006988,2.473306179046631
9.403051513671874,3.2926199879109856,-3.0014088443815705,-5.137219680592417,-0.7977124396201223,-9.452927747499942,2.485192429158092,0.5906589031219482,-0.6427983641624451,2.8163106441497803
9.41310986328125,1.7979484161436556,-2.415731939440965,-5.6902510379940265,-0.5411424013610929,-9.490634085559844,2.409446575561166,0.856512188911438,-1.3551931381225586,3.0714826583862305
9.423167724609376,0.4013818292975425,-1.7052596110522746,-5.53423630041778,-0.2800259883766994,-9.526987255445125,2.308348692434281,1.0967270135879517,-2.086686372756958,3.2245805263519287
9.433225830078126,-1.3769324965715408,-1.210877426496148,-4.44706942474246,-0.0230770771851646,-9.558840191301703,2.1905343600451945,1.2644033432006836,-2.80314040184021,3.267899990081787
9.443283447265625,-3.1545600092202424,-1.388333011507988,-3.048386284133792,0.2227108771465718,-9.583545008969306,2.067960558169335,1.3170149326324463,-3.388908624649048,3.199532985687256
9.453341552734376,-4.875636198085546,-2.1264310134470463,-0.96636227542907,0.4484581993795931,-9.598722704356907,1.958010821675509,1.1690199375152588,-3.651535987854004,2.9499599933624268
9.463399658203125,-6.076781335118413,-2.9890041208386418,1.149322887597978,0.6488267502062023,-9.602700960338115,1.880838734667748,0.7923341393470764,-3.22481369972229,2.577600240707397
9.473457763671876,-6.077194592094421,-3.167742146876454,2.7428894256204366,0.8268599889755248,-9.595598434856534,1.8469449406333267,0.3230555951595306,-2.0988006591796875,2.160423994064331
9.483515380859377,-5.456829235610366,-3.5803508881092068,3.752723470768332,0.9943363970909268,-9.57967898119092,1.847015083260089,-0.0813202038407325,-0.2976270914077759,1.8004844188690186
9.493572509765626,-4.301668435639143,-4.364889738705754,4.789174012424051,1.170052737220004,-9.557992634561655,1.856381754281372,-0.2457898408174514,1.8468815088272093,1.5755823850631714
9.503630615234377,-2.757964829677343,-5.0413633513808245,5.656408389624953,1.3732181522235274,-9.535285712713003,1.8338513580434024,-0.0015699337236583,3.870665073394776,1.5677059888839722
9.513688720703126,-0.771896957296878,-4.948337277159094,6.598282997268438,1.6023856581635771,-9.517129293775556,1.7398238516941666,0.5645794868469238,4.986330509185791,1.4664306640625
9.52374658203125,-1.2347481314271689,-3.3783453837305304,7.72541363454163,1.8033708795838057,-9.509941428098085,1.574563146866858,1.1417133808135986,4.4638285636901855,1.0199885368347168
9.5338046875,-2.226522788271308,-1.2007055765718222,8.599999835810065,1.935627432692796,-9.514543953457476,1.3773863778188824,1.4338526725769043,3.106239080429077,0.5916747450828552
9.543861572265625,-0.3781529294013976,0.0292968216329813,8.800927481824159,2.013841722229868,-9.523054592171311,1.194266045043617,1.2464696168899536,2.317701578140259,0.3346817791461944
9.55391943359375,0.9887649536341429,0.6856552825182676,7.067194640481471,2.0611485400669274,-9.530434765550494,1.045408339615166,0.9025833606719972,2.1643195152282715,0.1403692662715912
9.5639775390625,-0.2195306396752595,0.6875590703129768,4.038633293019235,2.0811723603114483,-9.538772970306873,0.9224521142929792,0.8624711036682129,1.862621545791626,-0.1779789179563522
9.574035888671874,-4.456901667448878,0.1845294689208269,-2.201061891539395,2.0603059517629445,-9.555733457458018,0.7832456689808517,1.3960410356521606,1.3167352676391602,-0.5270887017250061
9.584093505859377,-4.543557622116804,-0.5090238733708858,-5.84591681600213,2.016328278348595,-9.578495324364305,0.5976776142599061,1.8917092084884644,1.143764615058899,-0.4851867854595184
9.594150634765626,-1.7043062558501958,-0.3600707447439432,-3.0483228635087607,1.995201903689653,-9.593523382148144,0.3922554698381573,1.823477387428284,1.1517595052719116,-0.0508664920926094
9.60420849609375,-1.7045529240876436,1.4045096548050642,-0.0207534679596312,2.0144524014741183,-9.595223171803354,0.2098953808456659,1.570935606956482,0.6815263032913208,0.360268622636795
9.6142666015625,-4.84930553278178,2.5927286747694014,-1.507487360329181,2.055721108190715,-9.588584756702184,0.0583968283524969,1.4965884685516355,-0.3093048632144928,0.4493958353996277
9.62432470703125,-6.72483783160448,3.384079543468356,-2.860488507823646,2.095200301142037,-9.579974164745211,-0.0679193018568446,1.4006755352020264,-0.9417919516563416,0.3633721768856048
9.634382568359374,-5.245958872252702,4.086934967112541,-2.023327781847119,2.129904827037453,-9.57100175373852,-0.1726039437295869,1.2252211570739746,-1.1436201333999634,0.3507781028747558
9.644439697265623,-3.611383739754557,3.8469320327728975,-1.032300947695598,2.171570862508565,-9.55979646911323,-0.2548816650469787,1.0249212980270386,-1.25063157081604,0.4749643504619598
9.65449755859375,-2.731940746104717,3.668244860139489,-0.5521466104563325,2.227961442772299,-9.544961888074877,-0.3166493900381028,0.8968341946601868,-1.45298171043396,0.6086563467979431
9.6645556640625,-2.7455715043112634,3.240460761606693,-0.4485585179489105,2.2947131119221447,-9.527483514529466,-0.3629260611098259,0.819366455078125,-1.7502514123916626,0.6611438393592834
9.674613525390624,-2.8790111297249794,3.1270079854279755,0.5636189119873568,2.365454727490991,-9.5090506167382,-0.3910867913849651,0.6969848871231079,-2.09662127494812,0.6745467185974121
9.68467041015625,-2.6617542802006007,3.491359183970093,2.0977963089846074,2.4411883061282333,-9.48973216828406,-0.3949203781984746,0.4904161989688873,-2.321489095687866,0.7384679913520813
9.694728759765624,-2.195315456841886,3.96377328234613,3.3515339491724965,2.523321084283292,-9.469089777749776,-0.3735958140863105,0.3196790814399719,-2.4366917610168457,0.7811760306358337
9.704786376953123,-2.360223110447824,4.060028255486488,3.655051032045483,2.60218682346642,-9.449075748246909,-0.3375853201588615,0.2257147878408432,-2.345778465270996,0.6824698448181152
9.714844482421874,-2.7706203131109475,4.030660706704855,3.940110082685947,2.6652757323250174,-9.432877477639911,-0.2958357163238339,0.1321702003479004,-2.087629795074463,0.4928511679172516
9.72490283203125,-2.9087586177349087,3.9711043558865775,4.551906640528142,2.707645678281784,-9.42210298564732,-0.2510227976617403,0.0050668944604694,-1.722618818283081,0.2865227162837982
9.734959716796874,-2.9485844321668147,3.826649707722664,4.820031507502496,2.728467809297144,-9.417259637269376,-0.2026640961515717,-0.1157103925943374,-1.4278223514556885,0.0805500894784927
9.745017578125,-3.039954263614118,3.739903736683726,4.328565794914961,2.7296061656773087,-9.417903195869922,-0.1508334716139827,-0.1944518685340881,-1.28965961933136,-0.0991602018475532
9.755075439453124,-2.6789322094947097,3.700029991456866,3.4828254566416144,2.7136478413060305,-9.423219422456622,-0.097125097905239,-0.1986703276634216,-1.2735965251922607,-0.2692922353744507
9.765133544921875,-2.304017823623121,3.501806343704462,2.696196355767548,2.679308933852613,-9.433440372219682,-0.0434206925521371,-0.1894909441471099,-1.3061752319335938,-0.4806232750415802
9.775191650390624,-1.6136279137983918,3.276998640409112,2.0792606814712284,2.624429342673719,-9.448950660562517,0.0087826012227451,-0.1887343376874923,-1.282299280166626,-0.6687228679656982
9.78524853515625,-0.2721951851531863,2.9255893410265443,1.7418002663336694,2.554019297146797,-9.468045821654796,0.0592377863883972,-0.1894314438104629,-1.2078826427459717,-0.7905080318450928
9.795306640625,1.0696996080458163,2.407161094972491,1.108904733296111,2.476561671195924,-9.48816214248836,0.1086965580949559,-0.2101558893918991,-1.2059319019317627,-0.8067229390144348
9.805364501953123,2.453884267702698,1.704980794110894,0.5845438092574476,2.4012577161476014,-9.506786178937556,0.1593047920975834,-0.2448486685752868,-1.1630996465682983,-0.7170747518539429
9.815422607421874,4.119338230328261,0.5607879628777503,0.4447321280611678,2.3390207479432226,-9.521238482660054,0.213074869398307,-0.3036057353019714,-1.1540440320968628,-0.5307312607765198
9.82548046875,5.394171996167302,-0.6540244649797677,0.282125043015182,2.29630286533162,-9.53016062478423,0.2709354308830574,-0.3419582843780517,-1.1183549165725708,-0.2992525994777679
9.835537353515624,6.547630668395757,-1.8205121301293368,-0.3683646719671785,2.27560085356459,-9.533390108224747,0.3263166879737749,-0.3010531961917877,-0.9381625652313232,-0.0741268098354339
9.845595703125,7.492116919842362,-2.9866870760679243,-1.3254992464542388,2.273382885254174,-9.532443767285349,0.3669207202365622,-0.1571069359779358,-0.656722903251648,0.0742613300681114
9.85565380859375,7.356151283082365,-4.0681443419247865,-2.348221414747834,2.280959457988292,-9.529873624536394,0.3861730081193149,0.0310459248721599,-0.5183546543121338,0.1167406067252159
9.86571142578125,6.09812281383276,-4.502386822816729,-3.015029957976937,2.2881671974100173,-9.528083818510174,0.3876929842282086,0.1942892372608184,-0.5892977118492126,0.0692356005311012
9.8757685546875,4.473493905809521,-3.93132062703073,-3.412994672307372,2.28818064141348,-9.528432193556428,0.3789425819417461,0.321869820356369,-0.864076554775238,-0.0127325057983398
9.88582666015625,2.649319746041298,-2.7104385238707063,-3.5040669821128247,2.278994733786583,-9.53096434238255,0.3705059948448091,0.339634507894516,-1.2469985485076904,-0.0890489220619201
9.895884521484374,1.1583264243952929,-1.2346177830457687,-2.891898668348789,2.26373549759537,-9.534500699815151,0.3730488111954182,0.2578783929347992,-1.4698481559753418,-0.1188419759273529
9.905942626953124,0.6275466462902725,-0.0276361949443817,-2.019407247402519,2.24699142967388,-9.537947040876746,0.3859632012935355,0.1403700709342956,-1.3240957260131836,-0.118067979812622
9.91600048828125,0.4614370695486664,0.99007545171082,-0.9389362161040306,2.230842551166564,-9.540965511915088,0.4045804426757619,-0.0092492504045367,-0.8970848321914673,-0.1270399093627929
9.9260576171875,0.0123664373591542,1.5239911897540093,0.5011339603712782,2.214839657001197,-9.543518119007349,0.4314076958574354,-0.256572961807251,-0.4335026741027832,-0.1528806388378143
9.936115478515624,-0.4420236362874508,1.3113012097537518,2.442210196521878,2.1944296139180657,-9.546008182257411,0.4781172784537076,-0.6347237229347229,-0.0032804657239466,-0.2670122683048248
9.946173583984375,-0.9311898397609591,0.3870674727410078,4.048540062266588,2.1612113810576496,-9.549379119995235,0.5558091150192543,-1.0519731044769287,0.3302578926086426,-0.4436879158020019
9.956231689453125,-0.6500678363084793,-1.2372744350343945,4.80468517754972,2.1163667155504227,-9.552793896874784,0.6599303280226886,-1.3215198516845703,0.7356740832328796,-0.5343941450119019
9.96628955078125,1.2691747171640395,-3.7788188660115,4.866062898576259,2.076572173039615,-9.553442716172336,0.7680920120559632,-1.3447260856628418,1.2782652378082275,-0.4131449460983276
9.976346435546876,3.6109558697313062,-7.2922542727112765,5.33415971827507,2.0655470672868192,-9.548259760576483,0.8570963564809412,-1.141480565071106,1.7776907682418823,-0.0599658526480197
9.98640478515625,4.178412058326602,-11.220090564757584,7.001168216866255,2.0933488280564547,-9.537488191193342,0.9080768943946808,-0.6905449032783508,1.767109751701355,0.2721157073974609
9.996462646484376,0.3283262376978993,-11.754973686528205,7.531586760443448,2.1344091527193783,-9.52708428607881,0.9215911866147072,-0.2568205893039703,1.076643705368042,0.2544576227664947
10.006520751953126,-4.47470854229629,-5.888818384617567,6.173194129168987,2.152782137016952,-9.522807339411973,0.9230701731260864,-0.1204571574926376,0.2566114366054535,-0.0034269141033291
10.01657763671875,-6.312531288188696,0.7359680041730403,5.237375752824545,2.138539822783321,-9.524333526065943,0.9402629346631468,-0.2556362748146057,-0.2266795933246612,-0.2796699404716491
10.026635498046875,-5.558336722451448,4.482665638780594,4.9281098971664905,2.1005109747707844,-9.52889396584928,0.9789837104626,-0.4137507677078247,-0.2879563271999359,-0.4460356533527374
10.036693603515625,-4.239940878261626,6.396101551800966,3.57530032672137,2.048198749861866,-9.535200372517108,1.027252797460556,-0.4965279400348663,-0.1186352148652076,-0.6067227721214294
10.04675146484375,-3.95494992442131,7.668349100539087,2.300509961632639,1.9801829059951008,-9.54375718846023,1.0798037264961748,-0.6058979034423828,0.1312622725963592,-0.8172083497047424
10.056809814453125,-3.8661674791187046,8.153906758126617,1.990496648608148,1.8940932069078087,-9.554214869588613,1.140071513519436,-0.7642207145690918,0.3832870423793793,-1.0275647640228271
