seconds_elapsed,acc_z,acc_y,acc_x,grav_z,grav_y,grav_x,gyro_z,gyro_y,gyro_x
20.124452880859376,0.0782393874457106,-5.599422766077518,-6.167030930364132,0.3120152639640495,-9.586847557646037,2.0409233520314096,-0.1910459250211715,-0.0279721021652221,-3.131378650665283
20.13451123046875,2.452207274401188,-3.920218802779913,-6.503601557055116,0.0389593337956815,-9.591008184456824,2.044850023955852,0.0987166389822959,0.7827239036560059,-2.6537024974823
20.14456811523437,4.081296668964624,-1.958579123082757,-6.154172617834806,-0.1610906708673574,-9.594342297315595,2.0231275830999014,0.3746663331985473,1.6015924215316772,-1.9971455335617063
20.1546259765625,4.785962356901169,0.1166255609959363,-5.425310061752796,-0.2854616948909126,-9.6009561624974,1.9775101796545087,0.6571846008300781,2.3058581352233887,-1.412425518035889
20.164682861328124,4.041461502182483,1.602812213012576,-4.307028501367569,-0.3506499323826283,-9.6118662635684,1.912976040423661,0.8395907878875732,2.7742648124694824,-1.000376582145691
20.17473974609375,2.756413508582115,1.7663778043597935,-2.681119782666862,-0.3828617281468585,-9.625642859986424,1.8359665966317056,0.9659319519996644,3.041154146194458,-0.8324539065361023
20.18479809570313,1.474867970144749,1.5636410630971191,-1.3764214783094824,-0.4098972903169691,-9.63973217561543,1.7544060654066502,0.9463869333267212,3.033760070800781,-0.8856067657470703
20.19485498046875,0.1121054166903719,1.5552929214686155,-0.0607024521134793,-0.4541770519504323,-9.650538816311954,1.6826247315265237,0.7751025557518005,2.6725800037384038,-1.056651949882507
20.20491284179688,-0.6713561965961009,1.4425158525943755,0.7990488758556544,-0.5258942345531658,-9.65597545440793,1.6297193630300462,0.5524130463600159,1.990593433380127,-1.2194141149520874
20.214969970703127,-0.8675263458847999,1.3102999237567186,1.187911561450362,-0.6245097628124058,-9.656037998250126,1.5941507676512,0.3740273118019104,1.1375606060028076,-1.3240827322006226
20.22502685546875,-0.7451344764471054,1.2734417269587517,1.3624310930103063,-0.7436107009459286,-9.651651161468028,1.569418331324309,0.2339513897895813,0.2816958427429199,-1.3505423069000244
20.235085205078125,-0.1928735188961028,1.2587158669918774,1.6137980096682905,-0.8738933236334472,-9.643509356066584,1.5522341184198856,0.1150002405047416,-0.3697741031646728,-1.30342698097229
20.24514208984375,0.5455928048986941,1.2712959471017122,1.7195396269477905,-1.004232498813793,-9.632745385468006,1.540165641093999,0.0148588670417666,-0.7846920490264893,-1.184244990348816
20.255199951171875,1.171114228971675,1.0401911894887683,1.7920868306338786,-1.1232307072252037,-9.62026116694808,1.5360031145870685,-0.1261701583862304,-0.9145914912223816,-0.98464697599411
20.26525708007813,1.7287072682656346,0.7031441774576902,2.0754890539780257,-1.2196403594706209,-9.606879122805594,1.546190015950054,-0.2938787639141083,-0.7484679222106934,-0.7335994839668274
20.27531396484375,2.0635832198679447,0.4671797048538923,2.0868257098980245,-1.2865148512825368,-9.593427520558237,1.5752553669147191,-0.4526447057723999,-0.3427052199840545,-0.4728192985057831
20.2853720703125,2.0605133109033105,0.4231441637724638,1.8700106127917768,-1.3233984747827052,-9.58021732585132,1.6243265640757978,-0.5898457765579224,0.1213134452700614,-0.2669548988342285
20.29542895507813,1.530946854110807,0.4407540547430515,1.5876219504043458,-1.3386632639318703,-9.566853401887416,1.689292226591706,-0.6750735640525818,0.4111535251140594,-0.1628442257642746
20.30548681640625,0.655867608628422,0.4183195200949907,1.0877793084852396,-1.3470435542643069,-9.552647181880474,1.76147045083493,-0.6918345093727112,0.4768085479736328,-0.1969406455755233
20.3155439453125,-0.3468446218155324,0.4403361215919256,0.5276555086046457,-1.3666552865765988,-9.53635538777113,1.8331771120436489,-0.6687923073768616,0.4332565367221832,-0.4029814302921295
20.325600830078123,-1.0679597786411643,0.420715475320816,0.1198154430784285,-1.4112357481896876,-9.5164354662925,1.901638507720828,-0.6535835266113281,0.3375495970249176,-0.6799917817115784
20.3356591796875,-0.926290669542551,0.3989151469230652,-0.2783601375237107,-1.4825757680431009,-9.491494501781464,1.9707615821771325,-0.7084968090057373,0.2397820353507995,-0.918898105621338
20.345716064453125,-0.3881798178970813,0.2959253125697374,-1.0146588349558412,-1.5722230134814976,-9.4615278180629,2.0440162034802136,-0.7606027722358704,0.1624564230442047,-1.0224634408950806
20.35577392578125,0.7427998960196971,-0.0825643014401197,-2.199276469427347,-1.6645675351798532,-9.429299619153142,2.118472163397074,-0.7546066641807556,0.0881323814392089,-0.9574862718582152
20.3658310546875,1.7777658982060849,-0.522110149437189,-3.266784704908728,-1.7461928022041917,-9.398564873671532,2.188197149269283,-0.7009518146514893,0.0015315151540562,-0.7762994766235352
20.37588793945313,2.6650293563485143,-0.9070482089340688,-3.921319165237248,-1.80925160818547,-9.37185923757553,2.250615757650882,-0.6255015134811401,-0.0406718626618385,-0.5468364357948303
20.3859462890625,3.0689500564739105,-1.4906477230787276,-4.276550068734586,-1.8513491669416424,-9.35059783836007,2.304177251968533,-0.5294476747512817,-0.0723755657672882,-0.3228529095649719
20.396003173828124,2.878461679148674,-2.0725211440831424,-4.521094153635204,-1.874842709123343,-9.33540026922822,2.3464108581945298,-0.4030979871749878,-0.0944539755582809,-0.1438298821449279
20.40606103515625,2.382803483307361,-2.5965420955777168,-4.609610349217057,-1.8857067790955304,-9.32523543356657,2.3779151267439125,-0.3079752027988434,-0.0608656257390975,-0.0604403838515281
20.4161181640625,1.766397385843098,-3.0819775880903,-4.613046461145579,-1.8910453636445104,-9.317591640815138,2.403497457898408,-0.2418459802865982,0.0558641888201236,-0.0574922636151313
20.426175048828124,1.4902689528942108,-3.672821666535735,-4.77010778516531,-1.8947395419873296,-9.31123262717724,2.4251368966460225,-0.1600854992866516,0.221802607178688,-0.0978039354085922
20.436232666015623,1.2674164753198622,-4.172959053617715,-5.078769245189428,-1.900383977615088,-9.305947380250691,2.44095756611228,-0.0495288968086242,0.3775575757026672,-0.1837819665670395
20.44629028320313,1.3654539479628205,-4.316998691239953,-5.132080564138293,-1.910583884590119,-9.302117008307576,2.447581368166208,0.085464634001255,0.4791801869869232,-0.2579436898231506
20.45634814453125,1.8933061481833455,-3.9204496889263383,-4.790709843689203,-1.9227851945154368,-9.300481516060232,2.4442427252627907,0.2007225155830383,0.6014679670333862,-0.2708030343055725
20.466405517578124,3.2294226502418515,-3.236303641927242,-4.089849393254518,-1.926677671909332,-9.301980814707278,2.4354558999560774,0.260811448097229,0.7721094489097595,-0.1518616825342178
20.47646240234375,4.8211903221488,-2.70530291454792,-3.1268630239993334,-1.9095419743217528,-9.307603330764174,2.4274570101566613,0.2493427991867065,0.8905870914459229,0.0913501679897308
20.486520263671878,5.425439825612306,-2.601766552227736,-2.333236319322884,-1.865710869771242,-9.317916050463914,2.421971418352425,0.2033522874116897,0.7454507350921631,0.417385458946228
20.496577392578125,5.178397494155168,-2.78415608651042,-1.9587002652443943,-1.7955403320886194,-9.33304815314412,2.416741116483509,0.1289899051189422,0.3828267157077789,0.7865195870399475
20.50663525390625,5.013399824178219,-2.968152471467852,-1.7123387556582688,-1.699525012923032,-9.352260218614338,2.4118949916265904,0.0401622727513313,-0.021801371127367,1.1650453805923462
20.516692626953127,4.818581016433239,-2.9979642568856475,-1.7219303214766084,-1.5766826232388615,-9.374670203343031,2.408317571531236,-0.0256803873926401,-0.3270571529865265,1.538990497589111
20.52674951171875,4.610909741377831,-3.0497073036044835,-1.9827217768229544,-1.423030669271201,-9.399843223044275,2.405897066386044,-0.0551597885787487,-0.5112941265106201,1.9366837739944456
20.53680712890625,4.162671468359232,-3.168793117234111,-2.3924166764356194,-1.2354605174802242,-9.42739992301166,2.401694353999197,-0.017808424308896,-0.7024419903755188,2.3272600173950195
20.546864501953124,2.8904595754563807,-3.312133666676283,-3.10775266533792,-1.019091702836752,-9.456443062144515,2.389042962218821,0.0866753384470939,-1.0273613929748535,2.6508543491363525
20.556922119140623,1.0785563567835836,-3.170329240760207,-3.70806015317738,-0.7864640465054661,-9.48527051270008,2.362518820169568,0.231373131275177,-1.4869444370269775,2.8419880867004395
20.5669794921875,-0.78761051312685,-2.71455414249599,-3.764380006292462,-0.5531427818868309,-9.5121848231107,2.3200781470641494,0.414073497056961,-1.9694942235946653,2.872765064239502
20.577036376953124,-2.40287362691164,-2.230552482178807,-3.577773146575689,-0.3332500309009105,-9.536350127074122,2.262159626580775,0.5784342288970947,-2.412607431411743,2.7636306285858154
20.58709423828125,-3.6027205408275127,-1.8785919786542653,-3.0874513433262702,-0.1340295997966546,-9.557313420125842,2.193217607779801,0.7193471193313599,-2.7443056106567383,2.592521905899048
20.5971513671875,-4.32625459536314,-1.8603426207363605,-2.5043361055672166,0.0461702926543774,-9.57496247406304,2.1185705092050133,0.7782647609710693,-2.7789249420166016,2.406121253967285
20.607209228515625,-4.562583809626102,-1.7568623725175856,-1.1664378346584736,0.2139654615624807,-9.587462474673986,2.050646143013984,0.6805592179298401,-2.409492492675781,2.217694044113159
20.61726635742188,-4.500456731536985,-1.579710154366493,0.2695715586513281,0.3765940460542216,-9.593280221042036,1.999383427157998,0.5003199577331543,-1.740186095237732,2.0413267612457275
20.627323486328127,-4.334661773702502,-1.7996552200615406,1.5210392080806194,0.5426954029567539,-9.592107085609436,1.9665647150091825,0.2982422113418579,-0.7261646389961243,1.935280561447144
20.63738134765625,-3.3196091171234845,-2.1870734059363603,2.67453134418726,0.7277365477267652,-9.584168109303713,1.945379888161272,0.1637400686740875,0.5694448947906494,1.9507352113723757
20.6474384765625,-1.9843658907681705,-2.610564191189408,3.671540686814487,0.9449830950528384,-9.57068435835242,1.918171709370613,0.2073787748813629,1.7663164138793943,2.089897632598877
20.657496337890624,-0.5952640868447721,-3.177444041201472,4.783089724074304,1.1936650834757834,-9.553275542911887,1.865608578440547,0.3971305787563324,2.651127815246582,2.175212144851685
20.66755322265625,0.3734409523181617,-3.47016032859683,6.274465469166636,1.4483971657179295,-9.53499286724627,1.7766360173933209,0.6622211933135986,2.9722259044647217,2.001002311706543
20.67761059570313,0.31039763616696,-2.60802444357872,7.1426879806220525,1.67020583332777,-9.519954872590302,1.6586967434503137,0.8275949358940125,2.811347723007202,1.5572797060012815
20.687668212890625,-0.1533740138091147,-1.07146427963078,6.481128443962335,1.8364976347684856,-9.510607198530437,1.5316656699046491,0.8408777713775635,2.391657829284668,1.0411279201507568
20.697725341796875,-0.924801453898102,-0.0582055207312107,5.61267796896994,1.945329911539704,-9.507078439882395,1.4147523780085145,0.7268268465995789,2.0046772956848145,0.5661795735359192
20.707783203125,-1.5501235560066997,0.2107961290776729,4.682559850093722,2.0092115782111883,-9.5082287789613,1.3141668283179402,0.5742921233177185,1.8492670059204104,0.2516649961471557
20.717840087890625,-1.6035774982966482,0.5635960060358047,3.805872877153754,2.051891905291378,-9.5104277503103,1.229582126966119,0.4288254678249359,1.783666968345642,0.1847434937953949
20.7278974609375,-2.2072972787976264,1.2118728672742842,2.799188820469379,2.0935725538097323,-9.510625318709016,1.1555831170365214,0.3975738883018493,1.5561635494232178,0.2771029770374298
20.737955322265623,-3.846555600675941,1.5627917527914046,1.4079852219611406,2.1353001102097333,-9.509595975661275,1.0855756609611211,0.5317373275756836,0.8737300634384155,0.2597649991512298
20.748012451171878,-7.590375634020567,1.591476580005884,-1.1872283284265548,2.1553888123840093,-9.512843579280377,1.0151452302332966,0.7963482737541199,-0.1196079701185226,0.1059304475784301
20.7580703125,-5.857069493657351,1.4580220492839813,-3.004298136082292,2.170747125035524,-9.517802078470588,0.9325655850935728,0.9916903376579284,-0.1745772212743759,0.2763884663581848
20.768127197265624,-1.4626523394331334,1.2353718162834644,-2.652325942119956,2.2127856470808385,-9.517063827323913,0.8363239828914404,1.0029922723770142,0.1644294559955597,0.6052572131156921
20.7781845703125,-1.198085457201302,1.6471943755745886,-2.1514868365094064,2.282209896440804,-9.508703995257616,0.7392070591595024,0.9171048402786256,0.2353579550981521,0.7742089033126831
20.788242431640622,-3.2697569987177846,2.1187205852001902,-2.56677064217031,2.3539750098384915,-9.497500464197993,0.6532046730294824,0.8596826195716858,-0.1577440500259399,0.700688362121582
20.79829956054688,-4.532110929951071,2.1550229016810656,-2.862834486427903,2.4112974641248583,-9.48771381419897,0.5825068235371261,0.8254008293151855,-0.62673020362854,0.5529119372367859
20.808357177734376,-3.809114343293011,2.0602537831842898,-2.026286047130823,2.454744976185262,-9.480035534656048,0.5230264240318909,0.8236266374588013,-0.893354594707489,0.4609821140766144
20.818414306640623,-2.7858623059064147,1.6057599569022654,-1.164977187521383,2.4925726025372743,-9.473106612175702,0.4666183811767026,0.866982638835907,-1.0669375658035278,0.4382054209709167
20.828471435546877,-2.358661267958581,1.4495996733754872,-0.4294260205209255,2.5299960320025683,-9.46568552226424,0.4126664627693593,0.8704631924629211,-1.2845906019210815,0.4694720804691314
20.838529296875,-2.4288880658730863,1.4984049130767585,0.6652689125716685,2.5722408902749416,-9.456131511977317,0.3681285981889814,0.8226796984672546,-1.5670194625854492,0.5438333749771118
20.84858642578125,-2.570488785910606,1.467011411425471,1.6047846821293237,2.621814484000206,-9.443743155047295,0.3349676119411364,0.7837020754814148,-1.7737964391708374,0.6246618628501892
20.858643310546874,-2.593967861175537,1.687521125265956,2.131395942378044,2.6765678184509274,-9.4291716088593,0.3115875766038894,0.7335278391838074,-1.843595147132873,0.6470622420310974
20.868701171875,-2.666068928529322,1.988293877866864,2.2106778611466287,2.730861718696356,-9.414209017527105,0.2923103186766617,0.7093511819839478,-1.7573503255844116,0.6072508692741394
20.87875830078125,-2.705131065112352,2.3195663981497288,2.288171873585134,2.778004870404303,-9.401016358476875,0.2719779074070044,0.6985899209976196,-1.5660794973373413,0.4758199155330658
20.88881640625,-3.2030276875302195,2.6474948687016964,2.234868591812253,2.807385863189399,-9.39300957763195,0.2456739291807636,0.701844334602356,-1.289699912071228,0.2096522599458694
20.898873291015622,-3.7191231067225337,2.87138195002079,2.1407507768310605,2.8112717647120355,-9.392589890915154,0.2154428406386636,0.641176700592041,-1.146367073059082,-0.0690608471632003
20.90893041992188,-3.6450241435498,3.3352959310770034,2.3095481313519177,2.789844945801794,-9.399509461045264,0.1907467177341692,0.5341730117797852,-1.0147347450256348,-0.3259404599666595
20.91898828125,-2.8694115267306564,3.222128401580453,1.6749746551647782,2.749701735983789,-9.411738243499398,0.1694583026476204,0.5048960447311401,-0.9695257544517516,-0.4731842279434204
20.92904541015625,-2.173819372087717,2.7914655327409506,1.266050593794137,2.6991967066273093,-9.426696158656478,0.148772885822365,0.4751655161380768,-0.961232841014862,-0.5608302354812622
20.939103515625,-1.5114479345232248,2.726994521874189,1.486700154496729,2.6422593061357733,-9.443029453819989,0.134323979633348,0.3583531379699707,-0.9459769129753112,-0.5955685377120972
20.949160400390625,-0.589923748730123,2.3665198725044725,1.4840117921955882,2.585041335137188,-9.458893377906085,0.1314758236606139,0.2388301789760589,-0.990699052810669,-0.5812515616416931
20.959217529296875,0.319449396020174,1.840429128998518,1.178051553954184,2.5296508718267083,-9.473742571991682,0.1395075106179341,0.1369847804307937,-1.0188690423965454,-0.5491935014724731
20.96927514648437,1.3037743213802575,1.4645757087111473,1.1298605006285012,2.476819737610221,-9.487395249769092,0.158369630139321,0.00088014267385,-1.0116848945617676,-0.5232757925987244
20.979332275390625,2.4130945766747,1.309452951538563,1.2853652428559958,2.428579584445804,-9.499268642914297,0.1905103882276453,-0.1246839091181755,-1.12904155254364,-0.4382748603820801
20.989390380859376,3.360300023952126,1.0339040720432997,1.4079460589945316,2.390422433878481,-9.507881572958826,0.2376187608831562,-0.2415604591369629,-1.3032115697860718,-0.3008923828601837
20.999447265625,4.223141426891088,0.6941904711514711,1.5588747254781423,2.365252336786688,-9.512484098318218,0.2976790974345058,-0.3408694565296173,-1.3674815893173218,-0.1494341492652893
21.00950439453125,4.655747831013798,0.268749136352539,1.4601646142706275,2.352828470151872,-9.5132106590271,0.3652644409295171,-0.3928112983703613,-1.3280199766159058,-0.0205633211880922
21.019562255859373,4.550380161613226,-0.2569815416693687,0.7457603532604873,2.3513548904679715,-9.510762096831202,0.4323365011401474,-0.349394828081131,-1.2852237224578855,0.1013127788901329
21.029619384765624,4.615287225809693,-0.828937379771471,-0.4683471046654507,2.361865178566426,-9.50533481108546,0.4904933969566598,-0.2387503981590271,-1.227001667022705,0.238275721669197
21.03967749023437,4.516355726936459,-1.425707341134548,-1.4010295576043426,2.383284690953046,-9.497537873598931,0.5358248961327597,-0.118429310619831,-1.1408531665802002,0.3319886028766632
21.049734375,3.855520412898064,-1.7209277203053237,-1.9417112826511265,2.409806202653795,-9.489023727753755,0.5671403641117736,0.0154018364846706,-1.019645929336548,0.3357163071632385
21.05979150390625,2.8455411140605804,-1.721857694631815,-2.4938342930361626,2.430831162764877,-9.482857021817564,0.5804183268252759,0.1897962689399719,-0.8593546748161316,0.2013709992170334
21.069849365234376,1.6131015518367289,-1.705105881795287,-2.6855478282421825,2.4344464306525886,-9.482399925699829,0.5726650458173826,0.3524512946605682,-0.691891074180603,-0.0387959331274032
21.07990625,0.7424398305356502,-1.2913216670423746,-2.199608770121634,2.415212884002924,-9.48857130781114,0.5515001292463392,0.4010140299797058,-0.5712544322013855,-0.28416708111763
21.08996435546875,0.5904413428634405,-0.5263444260060787,-1.523324980930239,2.376124151673913,-9.499823938709495,0.5270378150977194,0.3680790662765503,-0.482797771692276,-0.464808851480484
21.100021240234376,0.7398843008339404,0.4122761482775211,-1.098616344320029,2.3240952737510203,-9.513833759361503,0.5059016496971249,0.2722052633762359,-0.3497795164585113,-0.5750280618667603
21.110078369140624,0.8302963931649923,1.2366513346999883,-0.3622102409906685,2.262862514153123,-9.52926805985868,0.4928438690729439,0.1010132655501365,-0.0984460040926933,-0.6787747144699097
21.12013623046875,0.8335847671858966,1.395831842830777,0.6680220106720924,2.1937334483474493,-9.545394434273245,0.4933155051726847,-0.1583024561405182,0.2493463158607483,-0.7668920159339905
21.130193115234373,0.858211258920282,0.6892015768229961,1.707806665186584,2.1195766175076365,-9.5609146594882,0.516406604033336,-0.4976671636104584,0.4820801019668579,-0.8089624643325806
21.14025146484375,1.0041112835869193,-0.5162064783513546,2.554273271907866,2.0459517015874384,-9.57400561172962,0.5682148249428719,-0.8300621509552002,0.7377898693084717,-0.7714659571647644
21.15030834960937,2.14695825316906,-2.238832819268107,2.9281521772518757,1.9852838823959231,-9.582238602545855,0.6401061220034957,-1.0221928358078003,1.075745940208435,-0.5846534967422485
21.160365478515622,3.205698660305142,-4.454257874941826,3.2564208395436403,1.9493164969578385,-9.583993921780586,0.7194504384838044,-1.1122329235076904,1.3024067878723145,-0.3318172395229339
21.17042333984375,2.094133840954304,-7.0433251045942304,4.822075872811674,1.9377019008792933,-9.579766074952484,0.8023524474456906,-1.1024218797683716,1.186373233795166,-0.1241554319858551
21.180480224609376,-0.7637298713237046,-8.94044467358589,6.134646079587936,1.938534552311152,-9.57301893877983,0.8773719595294446,-0.7873494625091553,0.669251024723053,-0.0435830913484096
21.19053857421875,-3.7062130640059703,-8.327913079467415,5.396490794503689,1.9346531808331608,-9.56964215582311,0.9216576029144228,-0.2767662703990936,0.0007210567127913,-0.1188104823231697
21.20059545898437,-5.392884294444323,-4.130712734040618,4.433404472005367,1.9109666002973915,-9.572798574027418,0.9381362978979944,-0.0317809991538524,-0.385278582572937,-0.3365750312805176
21.210652587890625,-5.352405569061637,1.1169289767324924,4.26575424169302,1.8648019382327796,-9.580431845384837,0.953006827032566,-0.135012999176979,-0.4626381695270538,-0.5287532210350037
21.22071044921875,-4.369268976703286,4.3149265611410135,4.27868766528517,1.802385667938739,-9.589202011817694,0.9843664264142512,-0.3584423661231994,-0.3369353413581848,-0.6763831377029419
21.23076733398437,-3.353470470193028,5.849004845145345,3.615956454497576,1.7290042053855954,-9.597726094534991,1.0317873721502722,-0.541799783706665,-0.0758753791451454,-0.7987598776817322
21.240824462890625,-2.7490514553815126,6.454091383954882,2.858262940728664,1.6466712284833191,-9.605758009821177,1.090074433685094,-0.6866962909698486,0.180286630988121,-0.908305823802948
21.25088232421875,-2.847480265429616,6.2923430711627,2.417806699888408,1.558202233044058,-9.61250222338438,1.1585322491656989,-0.8131839632987976,0.3156952559947967,-0.9756698608398438
21.26093920898437,-3.290966960006952,5.616793587595224,2.10282670436725,1.467183845382929,-9.61705564890504,1.2369349739469586,-0.9044827222824096,0.3350364565849304,-0.9813624024391174
21.27099731445313,-3.528096969258785,4.628615493938327,1.748219339595735,1.3785526451192796,-9.619030748370289,1.320698568174243,-0.911949336528778,0.3100489675998688,-0.9296557307243348
21.28105419921875,-3.7218940327405927,3.785199506959319,1.295988197548687,1.297166301417351,-9.618671267408132,1.4031750452004372,-0.8604422211647034,0.2271730005741119,-0.8176959156990051
21.291111328125,-4.029485233184695,2.9459213504374024,1.0067442624390124,1.229616321496665,-9.616017538028954,1.4800827821835874,-0.7646754384040833,0.0219434518367052,-0.6063024997711182
21.30116943359375,-4.469190071135759,1.9383575883090496,0.8702506562821567,1.1824002506829798,-9.610876083487272,1.550287222135812,-0.6431372761726379,-0.3452694416046142,-0.3125987350940704
21.31122631835937,-4.732749237629771,0.782991036632657,0.750276077119261,1.1582060128860174,-9.60323112169206,1.61459632043913,-0.5635862946510315,-0.7532272934913635,-0.013510325923562
21.321284423828125,-4.929393507236242,-0.4256067544937134,0.6614296266697347,1.153138938754797,-9.592780454826354,1.6790522798672318,-0.5511325597763062,-1.1532751321792605,0.2213471978902816
21.33134130859375,-5.763937036451697,-1.700820167300105,0.3983785558283328,1.153003841133043,-9.580059504941106,1.750267650427669,-0.6003073453903198,-1.6402239799499512,0.2115693241357803
21.3413984375,-6.539820871427655,-3.06573372477591,-0.4439703864410519,1.1115675958298146,-9.56906698628366,1.8351513347260653,-0.7298943400382996,-1.9556690454483032,-0.4826816022396087
21.35145654296875,-5.902711300891638,-4.969511582612991,-2.209482952273637,0.9706559540349988,-9.565985386881232,1.928762515359372,-0.7841773629188538,-1.734563231468201,-1.74046790599823
21.361513427734376,-3.84655618519783,-6.341495516866445,-4.247403761488199,0.7183822247304021,-9.57171370140016,2.009124046058208,-0.5894478559494019,-1.1236088275909424,-2.8469107151031494
21.3715712890625,-1.2550754646629094,-5.911804707929492,-5.465525167763233,0.4003455085197463,-9.581073650419713,2.0525905550800263,-0.2081280648708343,-0.3550136387348175,-3.3514962196350098
21.38162817382813,1.8421978922367093,-4.710895717740058,-5.897800147974491,0.082889670070121,-9.588923194876312,2.053311124439537,0.1833094656467437,0.5121276378631592,-3.197924852371216
21.391685302734373,4.293853377974033,-3.104679249241948,-5.438344899892806,-0.1798665551437065,-9.594316578352451,2.0216693471156058,0.4624844789505005,1.320307970046997,-2.598172426223755
21.401743408203124,5.482055446803569,-1.1610416747033596,-4.56531235780716,-0.3584634922103956,-9.599099136453866,1.9746368161752816,0.5994729399681091,2.05918550491333,-1.8039679527282717
21.41180029296875,5.880948381894827,0.2686637961566448,-3.587159399080276,-0.4511982553353533,-9.60590063316226,1.9218422145769,0.6995334029197693,2.69919490814209,-1.1140564680099487
21.4218583984375,4.81965887479782,0.8102642434835433,-3.024337884548306,-0.4819639074118808,-9.61613794953823,1.8622519614890216,0.8081706166267395,3.036097764968872,-0.6972669363021851
21.431915283203125,2.8672295065164564,1.2199287479579448,-2.120271029512584,-0.4849991469219327,-9.628215340822935,1.797951923274994,0.819408655166626,3.1262125968933105,-0.5755147933959961
21.44197216796875,1.0613760894019155,1.532956586498022,-0.922356398833543,-0.4902097211770713,-9.638974050724508,1.7378810470633208,0.7200354933738708,2.971057176589966,-0.6773082613945007
21.45202978515625,-0.5046434297969564,1.3928548728466033,0.048088177473098,-0.5172314740175381,-9.646265961298344,1.6889048347093163,0.5767459273338318,2.4935083389282227,-0.8644486665725708
21.462086669921877,-1.5081658441126349,1.1334954961299897,0.4722787815585732,-0.5753889908885583,-9.649519994658233,1.6510786696620283,0.4464363753795624,1.7697633504867554,-1.0688015222549438
21.472144775390625,-1.776699876409769,0.9728308869212864,0.6607939591147005,-0.6622428427487611,-9.648820321956276,1.6223770374432205,0.3122798502445221,0.8979683518409729,-1.156550645828247
21.48220166015625,-1.0570657519221305,0.9928782341718672,0.901536752036214,-0.7658192448183894,-9.644325933146476,1.6033964426413176,0.1497527062892913,0.1011910289525985,-1.1306617259979248
21.4922587890625,-0.177354462724924,1.117899283069372,1.2122867087721825,-0.87414934422113,-9.636618427509068,1.594316333476454,0.0061447024345397,-0.4868767857551574,-1.024877905845642
21.50231689453125,0.6452092903614044,1.0485872619122265,1.399767867105454,-0.9762081813346594,-9.62686217264831,1.5940319635771214,-0.1254141181707382,-0.765612006187439,-0.8609345555305481
21.51237377929688,1.375887225302309,0.5935539219260215,1.4748640246219933,-1.06224680782184,-9.616104047268628,1.6039299649961292,-0.2424412071704864,-0.7864058017730713,-0.6513943672180176
21.522431640625,1.8352923506319525,0.2489128015041351,1.168701395676285,-1.125561634390801,-9.60545288939476,1.6244341161035,-0.3437175154685974,-0.6243228912353516,-0.4146350622177124
21.53248876953125,2.094086202420294,0.20304303073287,0.8700701851487159,-1.1624418968901038,-9.59564402756393,1.6561116953931747,-0.4248627424240112,-0.2873629331588745,-0.1971113085746765
21.54254565429688,1.9870261960186064,0.4031213664412498,0.6015085341922939,-1.1761395828530192,-9.586230302530527,1.7003665783137083,-0.5141434073448181,0.1122656613588333,-0.0701917186379432
21.552603759765624,1.2077240039665251,0.5479156218230724,0.318448840675503,-1.1771980789300054,-9.57585094733536,1.7571742149457334,-0.5924383401870728,0.3938129544258117,-0.0632832124829292
21.56266064453125,-0.0100524613283574,0.3963309756487608,-0.2074946033142507,-1.180763808587566,-9.56372796334326,1.8196901462219652,-0.5881327986717224,0.4804184138774872,-0.1931253671646118
21.572717529296877,-1.1659798617579042,0.0145773914068937,-0.8264728893540799,-1.2017364539895206,-9.54948667202294,1.8797721283495423,-0.555558979511261,0.4008640944957733,-0.421296626329422
21.582775634765625,-1.5461759874247014,0.0040782092243432,-1.256509735249728,-1.2474079987749456,-9.53210240650177,1.9373608323566611,-0.5657320022583008,0.2638271450996399,-0.6598663330078125
21.59283251953125,-1.27221423099041,0.1036748940080404,-1.576041987247765,-1.316666536179185,-9.510493216761946,1.9968227828897536,-0.6246193051338196,0.1547674238681793,-0.8654701709747314
21.602890869140627,-0.8775226931117475,0.1297708737730979,-1.816336159618944,-1.4054985197119414,-9.484215450689195,2.0602450153559446,-0.6638996005058289,0.076027862727642,-1.038748264312744
21.61294775390625,-0.5596211110554635,0.0682289020955562,-2.271705161300301,-1.5101657857581972,-9.454247013404965,2.1229653831630944,-0.6314945816993713,0.0173708871006965,-1.1682969331741333
21.62300463867188,0.1473334184706211,-0.0393354005664587,-2.562511231160164,-1.622910267537087,-9.4226991979748,2.1792891818009315,-0.5495267510414124,-0.0048819542862474,-1.1939716339111328
21.633062744140624,1.1554605135701597,-0.0650268911838531,-2.508204763694107,-1.7332113016866146,-9.391771560269593,2.2273354198284445,-0.4637971222400665,0.0425415076315403,-1.137945532798767
21.64311962890625,1.938516139871627,0.0519423686832189,-2.1884119610637427,-1.834069238577783,-9.362546050307154,2.2692167054854333,-0.4022871553897857,0.0931058824062347,-1.028988242149353
21.653177978515625,2.5131258534833787,-0.0348211380124092,-1.8653152945823963,-1.9217587740771471,-9.335636416071653,2.3071951384849845,-0.3768491446971893,0.0684667825698852,-0.8754836916923523
21.66323486328125,2.8515219420358537,-0.4567892437428236,-1.615268374481797,-1.995893685346097,-9.311255423530936,2.342507128754258,-0.364010602235794,-0.0147902900353074,-0.7200552225112915
21.673291748046875,2.856113069218397,-1.2266525032550095,-1.4243991811454295,-2.0576471078172327,-9.289429960691928,2.375495936772972,-0.3715115189552307,-0.1048005297780036,-0.5686917901039124
21.683349609375,2.6608836348459124,-2.0967618513703346,-1.3914045279078184,-2.1081217420354483,-9.26971169926524,2.408042700112611,-0.3930245339870453,-0.1734232604503631,-0.4365497827529907
21.693406494140625,2.656164497369528,-2.926898670059442,-1.5010123190961775,-2.1454509173460306,-9.252105899947882,2.442532414213568,-0.4009134471416473,-0.0582496151328086,-0.3030692636966705
21.70346484375,2.962472672265768,-3.595537935847044,-1.8747353032261127,-2.1680466339051723,-9.236934634301068,2.4797201352268456,-0.368803471326828,0.1775533258914947,-0.217559665441513
21.713521728515627,2.86711143309474,-3.8766426959037776,-2.519013157956302,-2.1793775907367468,-9.224278566345571,2.5166189562961456,-0.2661933898925781,0.4567578136920929,-0.2083503901958465
21.72357861328125,2.6421160982728003,-3.704433779373765,-3.3260306746035813,-2.1848237273134288,-9.21422946601808,2.548513685467839,-0.1436941176652908,0.7357558608055115,-0.2355846762657165
21.73363671875,2.745344709818065,-3.2534909235715865,-3.678655779516697,-2.184503263187408,-9.206833510547876,2.5753780192568896,-0.0334081538021564,0.9573961496353148,-0.2188379764556884
21.743693603515624,3.230792769551277,-2.822922162756324,-3.978844010227919,-2.172555928023159,-9.203601689019798,2.596941031767428,0.0605756007134914,1.1280815601348877,-0.0951029956340789
21.753751953125,4.121031005720794,-2.264790267345309,-4.001482835276424,-2.1398294242024423,-9.206130330714585,2.615091020964086,0.0937504023313522,1.229072332382202,0.1453013569116592
21.763808837890625,4.787866436956823,-1.9670529369175436,-3.6606659493178126,-2.0804729798704384,-9.21476781067848,2.632506558406353,0.0758462324738502,1.1351239681243896,0.4565660357475281
21.77386572265625,4.75804880632013,-2.4012767131090165,-3.359810194608569,-1.997385092947632,-9.229007932955026,2.6469372348189357,0.0490531958639621,0.8233683705329895,0.7714605331420898
21.783923828125,4.660454693530499,-3.1479315309911966,-2.930515983773768,-1.8927575743898748,-9.248497646322846,2.655781343270838,0.0407574512064456,0.4937686324119568,1.1115802526474
21.793980712890622,4.759242692279815,-3.8827918661832808,-2.4656957015275958,-1.7624504017829894,-9.27379633823037,2.6572321266010404,0.0655489191412925,0.2025765031576156,1.4893746376037598
21.80403759765625,4.192485591864585,-4.120291293269395,-2.2569062360972163,-1.6043531588442623,-9.304596550163629,2.649704653705657,0.1092258244752883,-0.1563169509172439,1.877880334854126
21.814095703125,3.1401988909125325,-4.061913923102617,-2.6041665991067884,-1.4208631159737706,-9.34022783551514,2.62900585680902,0.2136515974998474,-0.6544477343559265,2.2547755241394043
21.82415283203125,1.944836428934336,-4.018974360564351,-3.4816207570269704,-1.2190939776342362,-9.379576680085062,2.589930276222527,0.3517431616783142,-1.2095905542373655,2.5339975357055664
21.83421069335937,0.671045011755079,-3.3875282226175067,-3.927340032961964,-1.0090757741264995,-9.419656177017092,2.5342142342194918,0.4770180583000183,-1.698822259902954,2.693084239959717
21.844267578125,-0.2085130596417933,-2.6650012992978094,-3.853182617600262,-0.7975001120436936,-9.45803997594714,2.46574304780066,0.6030018329620361,-2.0705230236053467,2.757042407989502
21.854324462890624,-1.0970447110891342,-2.3476579356461764,-3.604877426600456,-0.5877251427073031,-9.493464925071596,2.3872762448072438,0.7193739414215088,-2.274431705474853,2.7539358139038086
21.8643828125,-2.2539678445577622,-2.2485078255861994,-3.072663816300034,-0.3826468432871625,-9.52512847583592,2.3012819689184427,0.8295353651046753,-2.3562889099121094,2.6716225147247314
21.874439697265625,-3.553465219271182,-2.18506031254828,-2.492148531906307,-0.1852300732045434,-9.552363104242088,2.2109793283112347,0.8911287784576416,-2.22843599319458,2.5355844497680664
21.884497802734376,-4.082108569869399,-1.984330819454789,-1.474459827735275,0.0076268096505897,-9.573527472823857,2.1255330416940152,0.8178857564926147,-1.8132320642471316,2.405552625656128
21.8945546875,-3.927259953463077,-1.7904647823899984,0.0460962730035185,0.204276463251654,-9.586331424817445,2.056910464105755,0.6248276829719543,-1.087755560874939,2.322528600692749
21.904611572265622,-3.67842547789216,-1.995236244350672,1.6214708823837338,0.4128841971732676,-9.589707038730385,2.009336227504164,0.3958788812160492,-0.0819290652871131,2.260146379470825
21.914669921875,-3.4244852036148306,-2.590505153501033,2.917175148424506,0.6388313528273254,-9.584310732644797,1.9756752193123104,0.2652566134929657,1.0627726316452026,2.229580879211426
21.924726806640624,-2.8211259269893167,-3.301681830766797,3.759626966546476,0.8845158399347215,-9.572839490559696,1.9361793674871324,0.3093620240688324,2.224737405776977,2.189002275466919
21.93478491210937,-2.092557823809236,-4.009629609113931,5.394202975827455,1.1375704904839397,-9.559210193657874,1.8702539200283583,0.5045328736305237,3.0575547218322754,1.976691961288452
21.944841796875,-1.4169523722708224,-4.119439060354233,7.03551238501668,1.3690687774591148,-9.54801075425148,1.7696132791496813,0.7914911508560181,2.8616175651550293,1.6813944578170776
21.954898681640625,-0.5449928662441671,-2.973357638895512,8.528815006518364,1.558039297567308,-9.540387419766189,1.6504330652348695,0.8914653062820435,2.1261019706726074,1.3637957572937012
21.964956787109376,0.1145936167769134,-1.0684159979760646,9.48888928771913,1.7011092133745551,-9.534604160189629,1.538803266699612,0.7934636473655701,1.5579681396484375,0.9985647797584534
21.975013671875,-0.394867478967458,0.6655488985568284,8.671704305061697,1.7999642860107123,-9.530678511178492,1.4479874158732593,0.5559825897216797,1.4072812795639038,0.6135283708572388
21.98507177734375,-0.2593115920521319,1.207057575947046,7.084083231440186,1.8656715606741603,-9.528104861298203,1.3801675329700112,0.2741511166095733,1.7133513689041138,0.3125075399875641
21.995128662109376,-1.137244619530439,1.002660792517662,4.997909994101524,1.9110211069636045,-9.52721580350399,1.32308195617944,0.2413778752088546,1.7911819219589231,0.1435748785734176
22.005185546875,-3.241037684711814,1.1588631616204976,2.050831582583487,1.942033500342816,-9.529291440734267,1.26154612198174,0.3791719675064087,1.5486316680908203,0.0527610853314399
22.01524389648437,-4.485569543528556,1.5451999819993971,-0.0787985191658139,1.9613328057050703,-9.534950197148325,1.1867152643378824,0.6631169319152832,1.0468368530273438,0.0188576225191354
22.02530078125,-5.05138731726706,1.0569365725845097,-2.839484298239648,1.9746884002320468,-9.543931960505246,1.0882754945043474,1.0642318725585938,0.55182284116745,0.0773017629981041
22.035357666015624,-3.7718063569009295,0.3319067265331745,-4.478487476313114,1.998451114743948,-9.552575870209932,0.9617046588815747,1.300639033317566,0.6423516869544983,0.3288519382476806
22.04541577148437,-1.062690752197057,0.2750140419661999,-2.989496288269758,2.0534410344295204,-9.553891628983616,0.8227438588935881,1.21627676486969,0.95803564786911,0.6501359343528748
22.05547265625,-2.000440827256441,1.0578490112543106,-1.858333034479618,2.1315232220195237,-9.546790272545811,0.6969954455696046,1.021565079689026,0.6632999181747437,0.8191728591918945
22.065531005859373,-4.404802062377334,2.004621912333369,-1.639047601737082,2.2145568945370613,-9.534235911399126,0.6037046559970826,0.7542754411697388,0.067164346575737,0.8451728224754333
22.075587890625,-4.84334662437737,2.759689753773808,-1.2987271209932862,2.289930846081674,-9.52001683191061,0.5439551572268828,0.6203210353851318,-0.4450449049472809,0.7434386014938354
22.085644775390627,-4.31568000985682,2.626726221439242,-1.6495644657067954,2.352285010924936,-9.507362517520784,0.4972052426202222,0.6315300464630127,-0.6233755350112915,0.6293240189552307
22.09570263671875,-2.9097932214796542,2.543570968368649,-0.7280665103334933,2.407160510450601,-9.49588309212923,0.4518352745972573,0.6453136801719666,-0.6854735016822815,0.5952125191688538
22.105759765625,-2.6548382172018288,2.4734113904714583,0.1926959703721106,2.462554188631475,-9.483633266887068,0.4085480311324819,0.6679111123085022,-0.9786505103111268,0.6467268466949463
22.11581787109375,-3.029804333260655,2.709938757655024,1.025751160725951,2.522382926650345,-9.469218957087396,0.3766523521127179,0.5866923332214355,-1.2727348804473877,0.7084354162216187
22.12587475585937,-2.8709613865211603,2.8803707276403903,2.0911723608002064,2.5879972623333334,-9.452156763127446,0.3597419146483764,0.5070220232009888,-1.4626851081848145,0.7848766446113586
