time,seconds_elapsed,z,y,x
1759335468687078700,0.07207861328125,-0.18302345275878906,-0.013728618621826172,0.04575082287192345
1759335468697078300,0.082078369140625,-0.0635690689086914,-0.02620244026184082,0.02893427200615406
1759335468727078400,0.112078369140625,-0.0019083023071289062,-0.011289358139038086,0.009538667276501656
1759335468737078300,0.122078369140625,0.06735515594482422,0.002430438995361328,0.007061316631734371
1759335468747078400,0.132078369140625,0.1270313262939453,0.020985841751098633,0.006980506703257561
1759335468757078300,0.142078369140625,0.14101886749267578,0.03632044792175293,0.0073638069443404675
1759335468767078400,0.152078369140625,0.14159584045410156,0.03484201431274414,0.00390825979411602
1759335468777078300,0.162078369140625,0.10711288452148438,0.0670926570892334,0.020370297133922577
1759335468787079200,0.1720791015625,0.07017040252685547,0.07557129859924316,0.019584115594625473
1759335468797079000,0.1820791015625,0.025592803955078125,0.07084894180297852,0.018738165497779846
1759335468807079200,0.1920791015625,-0.014675140380859375,0.05777096748352051,0.013212094083428383
1759335468817079000,0.2020791015625,-0.04584789276123047,0.033951520919799805,0.006368804723024368
1759335468827079200,0.2120791015625,-0.06007957458496094,0.009664297103881836,-0.007722995709627867
1759335468837079000,0.2220791015625,-0.06199169158935547,-0.0059375762939453125,-0.026876317337155342
1759335468847079200,0.2320791015625,-0.061987876892089844,-0.005948066711425781,-0.021983139216899872
1759335468857079000,0.2420791015625,-0.0740966796875,-0.019948720932006836,-0.03703048452734947
1759335468867079200,0.2520791015625,-0.09158039093017578,-0.025273561477661133,-0.03418620303273201
1759335468877079000,0.2620791015625,-0.09271526336669922,-0.03433632850646973,-0.03635667636990547
1759335468887078400,0.272078369140625,-0.06781959533691406,-0.03781461715698242,-0.047248803079128265
1759335468897078300,0.282078369140625,-0.03621673583984375,-0.028098583221435547,-0.06323591619729996
1759335468907078100,0.292078125,0.0055751800537109375,-0.019942522048950195,-0.0789671540260315
1759335468917078300,0.302078369140625,0.05726909637451172,-0.01500701904296875,-0.10162277519702911
1759335468927078100,0.312078125,0.08834457397460938,-0.005277395248413086,-0.12435527890920639
1759335468937078300,0.322078369140625,0.08187675476074219,0.000080108642578125,-0.1376907080411911
1759335468947078100,0.332078125,0.053928375244140625,0.010018110275268555,-0.13805779814720154
1759335468957078300,0.342078369140625,0.011982917785644531,0.02379894256591797,-0.12032734602689743
1759335468967078100,0.352078125,-0.03053569793701172,0.041443824768066406,-0.09809154272079468
1759335468977078300,0.362078369140625,-0.04765129089355469,0.04952287673950195,-0.06497954577207565
1759335468987079200,0.3720791015625,-0.03938102722167969,0.05287671089172363,-0.029087122529745102
1759335468997079600,0.38207958984375,-0.02236461639404297,0.05119514465332031,0.004359947517514229
1759335469007079400,0.392079345703125,0.0017404556274414062,0.042604684829711914,0.023510348051786423
1759335469017079600,0.40207958984375,0.05245494842529297,0.03572487831115723,0.02166822738945484
1759335469027079400,0.412079345703125,0.0894308090209961,0.022433996200561523,0.008107755333185196
1759335469037079600,0.42207958984375,0.08179569244384766,0.009227514266967773,0.011898821219801903
1759335469047079400,0.432079345703125,0.04919147491455078,-0.01232600212097168,0.03666004538536072
1759335469057079600,0.44207958984375,0.005898475646972656,-0.03478121757507324,0.07626403123140335
1759335469067079400,0.452079345703125,-0.03641796112060547,-0.04535079002380371,0.09902137517929077
1759335469077079600,0.46207958984375,-0.06490039825439453,-0.04733419418334961,0.1097673699259758
1759335469087078700,0.47207861328125,-0.09888458251953125,-0.04985690116882324,0.1014624759554863
1759335469097078500,0.48207861328125,-0.1148977279663086,-0.044545650482177734,0.0990196168422699
1759335469107078700,0.49207861328125,-0.12047958374023438,-0.032881736755371094,0.09695655107498169
1759335469117078500,0.50207861328125,-0.10039329528808594,-0.01949596405029297,0.09061317145824432
1759335469127078700,0.51207861328125,-0.06168556213378906,-0.014300823211669922,0.07005509734153748
1759335469137078500,0.52207861328125,-0.03027629852294922,-0.008813619613647461,0.04072831571102142
1759335469147078700,0.53207861328125,-0.008210182189941406,-0.001550436019897461,0.019232086837291718
1759335469157078500,0.54207861328125,0.009285926818847656,0.009926557540893555,0.01550663635134697
1759335469167078700,0.55207861328125,0.017757415771484375,0.02234649658203125,0.01970890909433365
1759335469177078500,0.56207861328125,0.026517868041992188,0.029213666915893555,0.025022946298122406
1759335469187079400,0.572079345703125,0.04253864288330078,0.031099319458007812,0.03312690556049347
1759335469197079600,0.58207958984375,0.07808399200439453,0.020082712173461914,0.02619052492082119
1759335469207079400,0.592079345703125,0.07082080841064453,-0.006043434143066406,0.03583557531237602
1759335469217079600,0.60207958984375,0.032459259033203125,-0.037067413330078125,0.050023529678583145
1759335469227079400,0.612079345703125,-0.0005102157592773438,-0.04329037666320801,0.051349811255931854
1759335469237079600,0.62207958984375,-0.04979515075683594,-0.021842479705810547,0.04421908035874367
1759335469247079200,0.6320791015625,-0.08963584899902344,0.021570444107055664,0.04312032461166382
1759335469257079000,0.6420791015625,-0.10146141052246094,0.08367776870727539,0.050053928047418594
1759335469267079200,0.6520791015625,-0.09716796875,0.11399602890014648,0.06094268709421158
1759335469277079000,0.6620791015625,-0.05586814880371094,0.10940217971801758,0.05902239307761192
1759335469287078400,0.672078369140625,0.07289886474609375,0.09092330932617188,0.03807312250137329
1759335469297078300,0.682078369140625,0.18917274475097656,0.06646585464477539,-0.012849681079387665
1759335469307078400,0.692078369140625,0.22673511505126953,0.031341552734375,-0.05519743263721466
1759335469317078300,0.702078369140625,0.21531009674072266,-0.00011849403381347656,-0.0557405948638916
1759335469327078400,0.712078369140625,0.15363025665283203,-0.025830984115600586,-0.025971628725528717
1759335469337078300,0.722078369140625,0.05067729949951172,-0.04183554649353027,0.009114012122154236
1759335469347078400,0.732078369140625,-0.05366706848144531,-0.04116559028625488,0.022589728236198425
1759335469357078300,0.742078369140625,-0.13224124908447266,-0.031651973724365234,0.01723054051399231
1759335469367078400,0.752078369140625,-0.16931629180908203,-0.02037215232849121,-0.006953470408916473
1759335469377078300,0.762078369140625,-0.16563796997070312,-0.015077590942382812,-0.02490925043821335
1759335469387079200,0.7720791015625,-0.14694881439208984,-0.002945423126220703,-0.023421645164489746
1759335469397079000,0.7820791015625,-0.12288379669189453,0.011419534683227539,-0.016743630170822144
1759335469407079200,0.7920791015625,-0.10631942749023438,0.012305974960327148,-0.018024899065494537
1759335469417079000,0.8020791015625,-0.0911569595336914,-0.015630483627319336,-0.030898265540599823
1759335469427079200,0.8120791015625,-0.07732582092285156,-0.04866838455200195,-0.03580547124147415
1759335469437079000,0.8220791015625,-0.030664443969726562,-0.05258822441101074,-0.03126183897256851
1759335469447079200,0.8320791015625,0.026445388793945312,-0.027606964111328125,-0.029664263129234314
1759335469457079000,0.8420791015625,0.10484790802001953,-0.006704807281494141,-0.04611703008413315
1759335469467079200,0.8520791015625,0.19027042388916016,-0.009336709976196289,-0.06921375542879105
1759335469477079000,0.8620791015625,0.25186920166015625,-0.021961688995361328,-0.09691344201564789
1759335469487078400,0.872078369140625,0.25247669219970703,-0.023614168167114258,-0.0988989919424057
1759335469497078300,0.882078369140625,0.2952432632446289,-0.03636956214904785,-0.0998363345861435
1759335469507078100,0.892078125,0.17102622985839844,-0.0029311180114746094,-0.07502031326293945
1759335469517078300,0.902078369140625,0.04575920104980469,0.012687921524047852,-0.056164517998695374
1759335469527078100,0.912078125,-0.06698322296142578,0.005461215972900391,-0.03339768573641777
1759335469537078300,0.922078369140625,-0.1709146499633789,-0.0020935535430908203,-0.02516205608844757
1759335469547078700,0.93207861328125,-0.2072000503540039,0.004606723785400391,-0.03819236904382706
1759335469557078500,0.94207861328125,-0.1814899444580078,0.03255152702331543,-0.05408186838030815
1759335469567078700,0.95207861328125,-0.11763763427734375,0.057558536529541016,-0.05553644523024559
1759335469577078300,0.962078369140625,-0.05804634094238281,0.061110496520996094,-0.033383216708898544
1759335469587079200,0.9720791015625,-0.0013017654418945312,0.04437565803527832,0.0010077152401208878
1759335469597079000,0.9820791015625,0.037537574768066406,0.019666194915771484,0.037563130259513855
1759335469607079200,0.9920791015625,0.08296489715576172,0.0022444725036621094,0.0597333163022995
1759335469617079000,1.0020791015625,0.11854076385498047,-0.008755922317504883,0.060760173946619034
1759335469627079200,1.0120791015625,0.1294727325439453,-0.019416093826293945,0.051004648208618164
1759335469637079000,1.0220791015625,0.12475872039794922,-0.02820897102355957,0.03298515826463699
1759335469647079200,1.0320791015625,0.11107254028320312,-0.026628971099853516,0.019684504717588425
1759335469657079000,1.0420791015625,0.08050155639648438,-0.027167797088623047,0.011483225971460342
1759335469667079200,1.0520791015625,0.03506660461425781,-0.0288693904876709,0.01956833153963089
1759335469677079000,1.0620791015625,-0.03996562957763672,-0.0331273078918457,0.05009016394615173
1759335469687078100,1.072078125,-0.1254119873046875,-0.04715776443481445,0.08726312965154648
1759335469697078300,1.082078369140625,-0.20441627502441406,-0.05676889419555664,0.12840674817562103
1759335469707078100,1.092078125,-0.20467472076416016,-0.05603814125061035,0.13300372660160065
1759335469717078300,1.102078369140625,-0.25821685791015625,-0.04644060134887695,0.14309929311275482
1759335469727078100,1.112078125,-0.19304370880126953,-0.03894209861755371,0.10552885383367538
1759335469737078300,1.122078369140625,-0.1026611328125,-0.026070833206176758,0.05678746849298477
1759335469747078100,1.132078125,-0.015599250793457031,-0.010828256607055664,0.017395660281181335
1759335469757078300,1.142078369140625,0.07118701934814453,0.00028586387634277344,-0.0025881901383399963
1759335469767078100,1.152078125,0.12977218627929688,0.009981632232666016,-0.0080094113945961
1759335469777078300,1.162078369140625,0.16305255889892578,0.019327163696289062,-0.007504165172576904
1759335469787079200,1.1720791015625,0.16385936737060547,0.023519277572631836,-0.006443776190280914
1759335469797079000,1.1820791015625,0.14629268646240234,0.030461549758911133,-0.003990456461906433
1759335469807079200,1.1920791015625,0.12476348876953125,0.04245281219482422,-0.008322566747665405
1759335469817079000,1.2020791015625,0.09414958953857422,0.04597735404968262,-0.016357190907001495
1759335469827079200,1.2120791015625,0.07779788970947266,0.047345876693725586,-0.033251769840717316
1759335469837079000,1.2220791015625,0.054035186767578125,0.049260854721069336,-0.04293415695428848
1759335469847079000,1.232078857421875,0.01585674285888672,0.046442508697509766,-0.03885754942893982
1759335469857079000,1.2420791015625,-0.019721031188964844,0.04065203666687012,-0.03362937271595001
1759335469867079000,1.252078857421875,-0.026460647583007812,0.03699612617492676,-0.039583683013916016
1759335469877079300,1.262079345703125,-0.018987655639648438,0.028980255126953125,-0.07093853503465652
1759335469887078400,1.272078369140625,-0.0049591064453125,0.022606849670410156,-0.09634681791067123
1759335469897078500,1.28207861328125,0.034852027893066406,0.02964496612548828,-0.08311835676431656
1759335469907078400,1.292078369140625,0.0820322036743164,0.0170290470123291,-0.06356967985630035
1759335469917078500,1.30207861328125,0.11802291870117188,-0.016834020614624023,-0.05729242414236069
1759335469927078400,1.312078369140625,0.1447305679321289,-0.034681081771850586,-0.05484970659017563
1759335469937078500,1.32207861328125,0.12123489379882812,-0.03595280647277832,-0.042355701327323914
1759335469947078400,1.332078369140625,0.06916236877441406,-0.040001630783081055,-0.04812639579176903
1759335469957078500,1.34207861328125,0.029656410217285156,-0.03842568397521973,-0.05155534669756889
1759335469967078400,1.352078369140625,0.0022106170654296875,-0.034667015075683594,-0.04032660275697708
1759335469977078500,1.36207861328125,-0.02518939971923828,-0.019037961959838867,-0.02572641521692276
1759335469987079400,1.372079345703125,-0.04585075378417969,-0.004622936248779297,-0.013183889910578728
1759335469997079300,1.382079345703125,-0.050319671630859375,0.0041124820709228516,-0.0025463253259658813
1759335470007079400,1.392079345703125,-0.05309009552001953,0.017099618911743164,0.002007249742746353
1759335470017078500,1.40207861328125,-0.0397186279296875,0.041312217712402344,-0.0022603459656238556
1759335470027078400,1.412078369140625,-0.012569427490234375,0.052721500396728516,-0.006621904671192169
1759335470037078500,1.42207861328125,0.033809661865234375,0.03279590606689453,-0.015023160725831985
1759335470047078400,1.432078369140625,0.0829477310180664,0.014282941818237305,-0.03197166323661804
1759335470057078500,1.44207861328125,0.11390209197998047,-0.0020432472229003906,-0.0431990921497345
1759335470067078400,1.452078369140625,0.11294364929199219,-0.020257949829101562,-0.05064443498849869
1759335470077078500,1.46207861328125,0.10347652435302734,-0.041311025619506836,-0.05896130949258804
1759335470087077600,1.47207763671875,0.07312393188476562,-0.04973483085632324,-0.07223653048276901
1759335470097077800,1.482077880859375,0.011318206787109375,-0.059667348861694336,-0.07986950874328613
1759335470107077600,1.49207763671875,-0.05377197265625,-0.07680797576904297,-0.06859393417835236
1759335470117077800,1.502077880859375,-0.0693674087524414,-0.08946371078491211,-0.04995177686214447
1759335470127078000,1.512077880859375,-0.06916236877441406,-0.09001016616821289,-0.05102408304810524
1759335470136930800,1.521930908203125,-0.08184623718261719,-0.09052729606628418,-0.006332564167678356
1759335470146931000,1.531930908203125,-0.14064407348632812,-0.0055980682373046875,0.002047434449195862
1759335470156931000,1.54193115234375,-0.09395122528076172,0.0310976505279541,-0.0006719082593917847
1759335470166931000,1.551930908203125,-0.020905494689941406,0.012722969055175781,-0.0007080025970935822
1759335470176931000,1.56193115234375,0.027660369873046875,0.0005486011505126953,-0.009425561875104904
1759335470186932000,1.571931884765625,0.04979705810546875,-0.004212141036987305,-0.01817220076918602
1759335470196931800,1.581931884765625,0.09908485412597656,-0.02788519859313965,-0.024632923305034637
1759335470206932000,1.591931884765625,0.10884761810302734,-0.04749584197998047,-0.03609568998217583
1759335470216931800,1.601931884765625,0.07909584045410156,-0.04633498191833496,-0.04956730827689171
1759335470226932000,1.611931884765625,0.026111602783203125,-0.05184769630432129,-0.056720394641160965
1759335470236931800,1.621931884765625,-0.02397441864013672,-0.06826019287109375,-0.059213824570178986
1759335470246932000,1.631931884765625,-0.08171653747558594,-0.06665563583374023,-0.055253829807043076
1759335470256931800,1.641931884765625,-0.12169075012207031,-0.06141519546508789,-0.047826167196035385
1759335470266932000,1.651931884765625,-0.12746524810791016,-0.03967571258544922,-0.036587998270988464
1759335470276931800,1.661931884765625,-0.09820556640625,-0.017987728118896484,-0.02365589514374733
1759335470286931000,1.671930908203125,-0.05243682861328125,0.0019915103912353516,-0.004814561456441879
1759335470296931000,1.68193115234375,-0.008757591247558594,0.02356243133544922,-0.000703323632478714
1759335470306931000,1.691930908203125,0.02592182159423828,0.03641867637634277,-0.00494973361492157
1759335470316931800,1.701931884765625,0.037697792053222656,0.036922454833984375,-0.012957975268363953
1759335470326932000,1.711931884765625,0.033247947692871094,0.040776729583740234,-0.020565960556268692
1759335470336931800,1.721931884765625,0.014696121215820312,0.04631972312927246,-0.024218492209911346
1759335470346932000,1.731931884765625,0.013040542602539062,0.05630230903625488,-0.03409837558865547
1759335470356931800,1.741931884765625,0.025361061096191406,0.0697321891784668,-0.04246273636817932
1759335470366932000,1.751931884765625,0.046858787536621094,0.08423089981079102,-0.0519162155687809
1759335470376931800,1.761931884765625,0.06332111358642578,0.09699440002441406,-0.0634814202785492
1759335470386932700,1.7719326171875,0.08639049530029297,0.10649704933166504,-0.08158069849014282
1759335470396932900,1.781932861328125,0.10752677917480469,0.10283327102661133,-0.10496245324611664
1759335470406932700,1.7919326171875,0.1266155242919922,0.08869051933288574,-0.12754033505916595
1759335470416932900,1.801932861328125,0.15106487274169922,0.08261513710021973,-0.15201865136623383
1759335470426932500,1.811932373046875,0.15678787231445312,0.07778620719909668,-0.16343903541564941
1759335470436932400,1.821932373046875,0.15301895141601562,0.07988834381103516,-0.17477160692214966
1759335470446932500,1.831932373046875,0.14271259307861328,0.08028769493103027,-0.17626476287841797
1759335470456932400,1.841932373046875,0.1327962875366211,0.07728099822998047,-0.1655683070421219
1759335470466932500,1.851932373046875,0.11821556091308594,0.07394194602966309,-0.14610767364501953
1759335470476932400,1.861932373046875,0.09445858001708984,0.06954145431518555,-0.11346286535263062
1759335470486931500,1.871931396484375,0.05621623992919922,0.06305217742919922,-0.0777842253446579
1759335470496931600,1.881931640625,0.003948211669921875,0.048502445220947266,-0.03794671967625618
1759335470506931500,1.891931396484375,-0.13661956787109375,0.11222386360168457,-0.035020019859075546
1759335470516931600,1.901931640625,-0.16246700286865234,0.05440092086791992,-0.0019717365503311157
1759335470526931500,1.911931396484375,-0.20113563537597656,-0.03229022026062012,0.06896817684173584
1759335470536931600,1.921931640625,-0.25294971466064453,-0.04172873497009277,0.09297098219394684
1759335470546931500,1.931931396484375,-0.25975799560546875,-0.03310203552246094,0.11144567281007767
1759335470556931600,1.941931640625,-0.23759174346923828,-0.048979997634887695,0.13548706471920013
1759335470566931500,1.951931396484375,-0.2108020782470703,-0.061998844146728516,0.14433234930038452
1759335470576931600,1.961931640625,-0.1723489761352539,-0.06701254844665527,0.13420213758945465
1759335470586932500,1.971932373046875,-0.1032257080078125,-0.08279252052307129,0.1144677996635437
1759335470596932400,1.981932373046875,-0.020223617553710938,-0.09972214698791504,0.08359934389591217
1759335470606932500,1.991932373046875,0.053142547607421875,-0.10938119888305664,0.04699234664440155
1759335470616932400,2.001932373046875,0.10718250274658203,-0.1115572452545166,0.020778879523277283
1759335470626932500,2.011932373046875,0.14768123626708984,-0.1111149787902832,0.014704674482345581
1759335470636932400,2.021932373046875,0.1578512191772461,-0.10077500343322754,0.02281198650598526
1759335470646932500,2.031932373046875,0.14245128631591797,-0.0828104019165039,0.029482994228601456
1759335470656932400,2.041932373046875,0.10868167877197266,-0.0716407299041748,0.03732595965266228
1759335470666932500,2.051932373046875,0.05609416961669922,-0.06612825393676758,0.03984145075082779
1759335470676932400,2.061932373046875,-0.008770942687988281,-0.06223869323730469,0.04254091531038284
1759335470686931500,2.071931396484375,-0.06696796417236328,-0.052256107330322266,0.05789090320467949
1759335470696931600,2.081931640625,-0.10215568542480469,-0.03507256507873535,0.06779474765062332
1759335470706931500,2.091931396484375,-0.11434650421142578,-0.020237445831298828,0.07284662872552872
1759335470716931600,2.101931640625,-0.11519908905029297,-0.018113374710083008,0.0666736364364624
1759335470726931500,2.111931396484375,-0.10703754425048828,0.016613483428955078,0.10499796271324158
1759335470736931600,2.121931640625,-0.08909320831298828,0.026892900466918945,0.1266636997461319
1759335470746931500,2.131931396484375,-0.06142616271972656,0.039220333099365234,0.13429668545722961
1759335470756931600,2.141931640625,-0.019359588623046875,0.04907822608947754,0.13379691541194916
1759335470766931500,2.151931396484375,0.015738487243652344,0.0512089729309082,0.126169353723526
1759335470776931600,2.161931640625,0.04386711120605469,0.05037951469421387,0.1103634387254715
1759335470786932200,2.17193212890625,0.06279277801513672,0.04139399528503418,0.09606076776981354
1759335470796932400,2.181932373046875,0.048684120178222656,0.02395915985107422,0.07818067818880081
1759335470806932200,2.19193212890625,0.01850414276123047,-0.00005650520324707031,0.06855316460132599
1759335470816932400,2.201932373046875,-0.008671760559082031,-0.013679742813110352,0.05628843605518341
1759335470826932200,2.21193212890625,-0.04756927490234375,-0.011168479919433594,0.041756343096494675
1759335470836932400,2.221932373046875,-0.08924388885498047,-0.012460947036743164,0.03617635369300842
1759335470846932200,2.23193212890625,-0.10761451721191406,-0.021678447723388672,0.028528176248073578
1759335470856932400,2.241932373046875,-0.11004257202148438,-0.0240020751953125,0.02635214664041996
1759335470866932200,2.25193212890625,-0.11087226867675781,-0.02187490463256836,0.02352452278137207
1759335470876932400,2.261932373046875,-0.10526180267333984,-0.015440225601196289,0.023006927222013474
1759335470886931500,2.271931396484375,-0.09040069580078125,-0.005757570266723633,0.02877645194530487
1759335470896931300,2.281931396484375,-0.09230518341064453,-0.0008320808410644531,0.02903860993683338
1759335470906931500,2.291931396484375,0.025544166564941406,0.0279388427734375,0.035607174038887024
1759335470916931300,2.301931396484375,0.0646352767944336,0.05127382278442383,0.034884706139564514
1759335470926931500,2.311931396484375,0.09241008758544922,0.0705256462097168,0.032525427639484406
1759335470936931300,2.321931396484375,0.1161651611328125,0.08060979843139648,0.026591069996356964
1759335470946931500,2.331931396484375,0.11661434173583984,0.07946491241455078,0.030231326818466187
1759335470956931300,2.341931396484375,0.060227394104003906,0.07668876647949219,0.007134236395359039
1759335470966931500,2.351931396484375,0.018436431884765625,0.06372928619384766,-0.004507247358560562
1759335470976931300,2.361931396484375,-0.028167724609375,0.04604530334472656,-0.007380759343504906
1759335470986932200,2.37193212890625,-0.07051467895507812,0.029730558395385742,-0.004677636548876762
1759335470996932400,2.381932373046875,-0.11110687255859375,0.02224111557006836,0.0115326177328825
1759335471006932200,2.39193212890625,-0.13306045532226562,0.013702154159545898,0.018695641309022903
1759335471016932400,2.401932373046875,-0.1531543731689453,0.0017576217651367188,0.02181742712855339
1759335471026932200,2.41193212890625,-0.15687084197998047,-0.011574268341064453,0.021312981843948364
1759335471036932400,2.421932373046875,-0.1271991729736328,-0.017370223999023438,0.01587926782667637
1759335471046932200,2.43193212890625,-0.08338356018066406,-0.020183801651000977,0.014453765004873276
1759335471056932400,2.441932373046875,-0.032546043395996094,-0.020172119140625,0.010794511996209621
1759335471066932200,2.45193212890625,0.023021697998046875,-0.022408485412597656,0.0011227205395698547
1759335471076932400,2.461932373046875,0.07649040222167969,-0.027814149856567383,-0.010979659855365753
1759335471086931500,2.471931396484375,0.11836910247802734,-0.0294342041015625,-0.017264291644096375
1759335471096931300,2.481931396484375,0.13911914825439453,-0.03214907646179199,-0.01934036798775196
1759335471106931500,2.491931396484375,0.12947845458984375,-0.04396510124206543,-0.00653889961540699
1759335471116931300,2.501931396484375,0.13010883331298828,-0.04561805725097656,-0.0070659928023815155
1759335471126931500,2.511931396484375,0.04514789581298828,-0.0488278865814209,0.01544526033103466
1759335471136931300,2.521931396484375,-0.015412330627441406,-0.06759142875671387,0.03159179911017418
1759335471146931500,2.531931396484375,-0.0903482437133789,-0.08392214775085449,0.04314780235290527
1759335471156931300,2.541931396484375,-0.15896320343017578,-0.10040807723999023,0.048758331686258316
1759335471166931500,2.551931396484375,-0.18579673767089844,-0.12305116653442383,0.04191445931792259
1759335471176931300,2.561931396484375,-0.1685771942138672,-0.13715577125549316,0.023983370512723923
1759335471186932200,2.57193212890625,-0.1356983184814453,-0.1507725715637207,0.0052520763128995895
1759335471196932400,2.581932373046875,-0.10534191131591797,-0.17362332344055176,-0.004702040925621986
1759335471206932500,2.591932373046875,-0.10341167449951172,-0.19244813919067383,-0.011522097513079643
1759335471216932400,2.601932373046875,-0.13476085662841797,-0.22624778747558594,-0.008107902482151985
1759335471226932500,2.611932373046875,-0.18298912048339844,-0.262115478515625,-0.011797405779361725
1759335471236932400,2.621932373046875,-0.2526102066040039,-0.30076050758361816,-0.02218114212155342
1759335471246932500,2.631932373046875,-0.3125743865966797,-0.3324136734008789,-0.034626346081495285
1759335471256932400,2.641932373046875,-0.3632802963256836,-0.3703896999359131,-0.04958835244178772
1759335471266932500,2.651932373046875,-0.4310941696166992,-0.4002566337585449,-0.06388649344444275
1759335471276932400,2.661932373046875,-0.5042133331298828,-0.4263496398925781,-0.07667670398950577
1759335471286931500,2.671931396484375,-0.580073356628418,-0.4467170238494873,-0.0780075192451477
1759335471296931600,2.681931640625,-0.6420364379882812,-0.47057509422302246,-0.06688201427459717
1759335471306931500,2.691931396484375,-0.6719865798950195,-0.47591209411621094,-0.04506313055753708
1759335471316931600,2.701931640625,-0.6574344635009766,-0.480846643447876,-0.01294613629579544
1759335471326931500,2.711931396484375,-0.5726480484008789,-0.4908480644226074,0.012816080823540688
1759335471336931600,2.721931640625,-0.46021080017089844,-0.49048328399658203,0.01692892238497734
1759335471346931500,2.731931396484375,-0.47052478790283203,-0.46172332763671875,0.01825900375843048
1759335471356931600,2.741931640625,-0.29871368408203125,-0.5025827884674072,-0.0464712455868721
1759335471366931500,2.751931396484375,-0.30988121032714844,-0.5111653804779053,-0.07456950098276138
1759335471376931600,2.761931640625,-0.39823150634765625,-0.5319602489471436,-0.0815054401755333
1759335471386932500,2.771932373046875,-0.5442266464233398,-0.55419921875,-0.08538776636123657
1759335471396932400,2.781932373046875,-0.731196403503418,-0.5705058574676514,-0.09533800184726715
1759335471406932500,2.791932373046875,-0.9620122909545898,-0.5938920974731445,-0.11171557754278183
1759335471416932400,2.801932373046875,-1.1989269256591797,-0.629892110824585,-0.1301371455192566
1759335471426932500,2.811932373046875,-1.424323558807373,-0.6764702796936035,-0.1408250629901886
1759335471436932400,2.821932373046875,-1.6308631896972656,-0.7221674919128418,-0.1654696762561798
1759335471446932200,2.83193212890625,-1.6320056915283203,-0.718576192855835,-0.15587028861045837
1759335471456932400,2.841932373046875,-1.9665846824645996,-0.8042399883270264,-0.23555320501327515
1759335471466932200,2.85193212890625,-1.9687933921813965,-0.7978169918060303,-0.23599626123905182
1759335471476932400,2.861932373046875,-2.2463669776916504,-0.8823873996734619,-0.2785698175430298
1759335471486931500,2.871931396484375,-2.3874707221984863,-0.9119694232940674,-0.25538134574890137
1759335471496931600,2.881931640625,-2.54757022857666,-0.9324653148651123,-0.20352591574192047
1759335471506931500,2.891931396484375,-2.6860146522521973,-0.9508628845214844,-0.1431570202112198
1759335471516931300,2.901931396484375,-2.7717504501342773,-0.9812679290771484,-0.09864464402198792
1759335471526931500,2.911931396484375,-2.826754570007324,-1.0200777053833008,-0.08086970448493958
1759335471536931300,2.921931396484375,-2.8613104820251465,-1.0580153465270996,-0.09055252373218536
1759335471546931500,2.931931396484375,-2.7779626846313477,-1.1119251251220703,-0.11892031878232956
1759335471556931300,2.941931396484375,-2.57022762298584,-1.1435213088989258,-0.15560148656368256
1759335471566931500,2.951931396484375,-2.3486366271972656,-1.1654001474380493,-0.19656944274902344
1759335471576931300,2.961931396484375,-2.14663028717041,-1.1675478219985962,-0.2044888436794281
1759335471586932200,2.97193212890625,-1.971346378326416,-1.1452549695968628,-0.16657200455665588
1759335471596932400,2.981932373046875,-1.8346080780029297,-1.090152382850647,-0.07399351894855499
1759335471606932200,2.99193212890625,-1.7523760795593262,-0.9958580732345581,0.049671947956085205
1759335471616932400,3.001932373046875,-1.7432270050048828,-0.9023381471633911,0.15985535085201263
1759335471626932200,3.01193212890625,-1.7698192596435547,-0.8180478811264038,0.21111148595809937
1759335471636932400,3.021932373046875,-1.8161988258361816,-0.7424448728561401,0.1691960096359253
1759335471646932200,3.03193212890625,-1.8559165000915527,-0.7031377553939819,0.04155753180384636
1759335471656932400,3.041932373046875,-1.858736515045166,-0.6833750009536743,-0.10657323896884918
1759335471666932200,3.05193212890625,-1.6578788757324219,-0.6550310850143433,-0.2910504639148712
1759335471676932400,3.061932373046875,-1.340353012084961,-0.5660268068313599,-0.4457201063632965
1759335471686931500,3.071931396484375,-0.9771928787231445,-0.43736910820007324,-0.5254960060119629
1759335471696931300,3.081931396484375,-0.9854393005371094,-0.4054551124572754,-0.5748712420463562
1759335471706931500,3.091931396484375,-0.4565248489379883,-0.12842845916748047,-0.3206372857093811
1759335471716931300,3.101931396484375,-0.3373689651489258,0.00907135009765625,-0.14825674891471863
1759335471726931500,3.111931396484375,-0.3234415054321289,0.10241317749023438,-0.025500640273094177
1759335471736931300,3.121931396484375,-0.39801883697509766,0.14081096649169922,0.020563095808029175
1759335471746931500,3.131931396484375,-0.5109882354736328,0.1263744831085205,0.009099602699279785
1759335471756931600,3.141931640625,-0.645136833190918,0.05785250663757324,-0.05213621258735657
1759335471766931500,3.151931396484375,-0.7894668579101562,-0.03541064262390137,-0.13712278008460999
1759335471776931600,3.161931640625,-0.9301671981811523,-0.1690981388092041,-0.2343267947435379
1759335471786932200,3.17193212890625,-1.063521385192871,-0.3548431396484375,-0.2907712459564209
1759335471796932400,3.181932373046875,-1.0998554229736328,-0.5421987771987915,-0.28580373525619507
1759335471806932200,3.19193212890625,-1.0092315673828125,-0.6702139377593994,-0.21838785707950592
1759335471816932400,3.201932373046875,-0.861515998840332,-0.7088027000427246,-0.15268734097480774
1759335471826932200,3.21193212890625,-0.7069358825683594,-0.7015352249145508,-0.11665669083595276
1759335471836932400,3.221932373046875,-0.6191720962524414,-0.6899166107177734,-0.10959979891777039
1759335471846932200,3.23193212890625,-0.6118078231811523,-0.6828358173370361,-0.104757159948349
1759335471856932400,3.241932373046875,-0.6793889999389648,-0.6759829521179199,-0.12388104200363159
1759335471866932200,3.25193212890625,-0.7661046981811523,-0.6688616275787354,-0.19175343215465546
1759335471876932400,3.261932373046875,-0.8406457901000977,-0.6226122379302979,-0.29613882303237915
1759335471886931500,3.271931396484375,-0.8889522552490234,-0.5596200227737427,-0.41453754901885986
1759335471896931300,3.281931396484375,-0.8137807846069336,-0.4825340509414673,-0.4954143166542053
1759335471906931500,3.291931396484375,-0.6183137893676758,-0.38306236267089844,-0.5138901472091675
1759335471916931300,3.301931396484375,-0.3193798065185547,-0.2821834087371826,-0.47914987802505493
1759335471926931500,3.311931396484375,0.040248870849609375,-0.18119430541992188,-0.375900000333786
1759335471936931300,3.321931396484375,0.028001785278320312,-0.12192010879516602,-0.40778255462646484
1759335471946931500,3.331931396484375,0.6574287414550781,-0.0013682842254638672,-0.09133824706077576
1759335471956931300,3.341931396484375,0.9475421905517578,0.04406476020812988,0.07393726706504822
1759335471966931500,3.351931396484375,1.3176374435424805,0.0686028003692627,0.22969931364059448
1759335471976931300,3.361931396484375,1.803349494934082,0.10920441150665283,0.3559100329875946
1759335471986932200,3.37193212890625,2.249174118041992,0.17386460304260254,0.4191238284111023
1759335471996932400,3.381932373046875,2.643625259399414,0.22263145446777344,0.4100329279899597
1759335472006932200,3.39193212890625,2.970311164855957,0.24771320819854736,0.360181599855423
1759335472016932400,3.401932373046875,3.1838245391845703,0.26135993003845215,0.316288560628891
1759335472026932200,3.41193212890625,3.291004180908203,0.27356934547424316,0.2719428539276123
1759335472036932400,3.421932373046875,3.329604148864746,0.30194151401519775,0.2088954895734787
1759335472046932200,3.43193212890625,3.3589677810668945,0.34432363510131836,0.14344891905784607
1759335472056932400,3.441932373046875,3.357020378112793,0.3531045913696289,0.1664326936006546
1759335472066932200,3.45193212890625,3.3615827560424805,0.23725128173828125,0.0044388547539711
1759335472076932400,3.461932373046875,3.549581527709961,0.3657088279724121,-0.13898053765296936
1759335472086931500,3.471931396484375,3.7271652221679688,0.5209571123123169,-0.24914324283599854
1759335472096931300,3.481931396484375,3.926283836364746,0.628986120223999,-0.2827132046222687
1759335472106931500,3.491931396484375,4.110210418701172,0.7045255899429321,-0.25439026951789856
1759335472116931300,3.501931396484375,4.228564262390137,0.8031736612319946,-0.1939144879579544
1759335472126931500,3.511931396484375,4.261872291564941,0.9458531141281128,-0.10286986827850342
1759335472136931300,3.521931396484375,4.267234802246094,1.10354483127594,0.009219154715538025
1759335472146931500,3.531931396484375,4.3325395584106445,1.2826929092407227,0.0956198200583458
1759335472156931300,3.541931396484375,4.471327781677246,1.5119097232818604,0.15697479248046875
1759335472166931500,3.551931396484375,4.608292579650879,1.7809370756149292,0.18467116355895996
1759335472176931300,3.561931396484375,4.718813896179199,2.029536485671997,0.18334762752056122
1759335472186932200,3.57193212890625,4.692560195922852,2.201634645462036,0.20278716087341309
1759335472196932400,3.581932373046875,4.513338088989258,2.2701756954193115,0.2543354630470276
1759335472206932200,3.59193212890625,4.132319450378418,2.211517333984375,0.343558669090271
1759335472216932400,3.601932373046875,3.590643882751465,2.0295190811157227,0.44403916597366333
1759335472226932200,3.61193212890625,2.9855947494506836,1.7629601955413818,0.5352494716644287
1759335472236932400,3.621932373046875,2.337535858154297,1.4812959432601929,0.5694181323051453
1759335472246932500,3.631932373046875,1.6879081726074219,1.2533591985702515,0.5215572118759155
1759335472256932400,3.641932373046875,1.0462331771850586,1.0794063806533813,0.40405046939849854
1759335472266932500,3.651932373046875,0.44089221954345703,0.9620888233184814,0.23067688941955566
1759335472276932400,3.661932373046875,-0.08798885345458984,0.8750574588775635,0.07083433866500854
1759335472286931500,3.671931396484375,-0.5298395156860352,0.8031222820281982,-0.038779959082603455
1759335472296931600,3.681931640625,-0.9397211074829102,0.7525897026062012,-0.05680464208126068
1759335472306931500,3.691931396484375,-1.320082664489746,0.7052497863769531,0.00646364688873291
1759335472316931600,3.701931640625,-1.6614580154418945,0.65793776512146,0.13618944585323334
1759335472326931500,3.711931396484375,-1.9168920516967773,0.6096842288970947,0.28116995096206665
1759335472336931600,3.721931640625,-1.9104413986206055,0.5860903263092041,0.3153259754180908
1759335472346931500,3.731931396484375,-1.8155303001403809,0.5051450729370117,0.3592691421508789
1759335472356931600,3.741931640625,-1.8186869621276855,0.5230050086975098,0.3953365683555603
1759335472366931500,3.751931396484375,-0.7387819290161133,0.325822114944458,0.02744060754776001
1759335472376931600,3.761931640625,-0.14434528350830078,0.20080065727233887,-0.11150071024894714
1759335472386932500,3.771932373046875,0.40245723724365234,0.06083321571350098,-0.13608890771865845
1759335472396932400,3.781932373046875,0.8389062881469727,-0.06994819641113281,-0.075055330991745
1759335472406932500,3.791932373046875,1.0731525421142578,-0.20009684562683105,0.03950411081314087
1759335472416932400,3.801932373046875,1.1176862716674805,-0.329525351524353,0.15640777349472046
1759335472426932500,3.811932373046875,1.123408317565918,-0.35746824741363525,0.12979215383529663
1759335472436932400,3.821932373046875,0.8387775421142578,-0.5603137016296387,0.2884267568588257
1759335472456932000,3.84193212890625,0.613377571105957,-0.6778862476348877,0.2628912925720215
1759335472466932000,3.851931884765625,0.09635448455810547,-0.620520830154419,0.2961619794368744
1759335472476932000,3.86193212890625,-0.1281280517578125,-0.5945922136306763,0.3167588412761688
1759335472486931200,3.87193115234375,-0.3092994689941406,-0.5636130571365356,0.37365466356277466
1759335472496931000,3.88193115234375,-0.4808835983276367,-0.5320549011230469,0.454902708530426
1759335472506930700,3.8919306640625,-0.6135282516479492,-0.48364782333374023,0.5332795977592468
1759335472516930800,3.901930908203125,-0.7017507553100586,-0.41203784942626953,0.5923360586166382
1759335472526930700,3.9119306640625,-0.7768936157226562,-0.33596158027648926,0.6124455332756042
1759335472536930800,3.921930908203125,-0.817047119140625,-0.26415181159973145,0.6069108247756958
1759335472546930700,3.9319306640625,-0.8053855895996094,-0.18235421180725098,0.5856653451919556
1759335472556930800,3.941930908203125,-0.7079906463623047,-0.09400033950805664,0.5441898703575134
1759335472566930700,3.9519306640625,-0.5609722137451172,0.004615068435668945,0.4886971116065979
1759335472576930800,3.961930908203125,-0.5635223388671875,0.014842033386230469,0.5280144810676575
1759335472586931500,3.971931396484375,-0.1315011978149414,0.18307781219482422,0.29580336809158325
1759335472596931600,3.981931640625,0.06508255004882812,0.2297053337097168,0.18690752983093262
1759335472606931500,3.991931396484375,0.2065877914428711,0.23057174682617188,0.11817483603954315
1759335472616931600,4.001931640625,0.2871589660644531,0.19263982772827148,0.09044424444437027
1759335472626931500,4.011931396484375,0.2859029769897461,0.14213895797729492,0.09005122631788254
1759335472636931600,4.021931640625,0.1938610076904297,0.07914161682128906,0.10601779818534851
1759335472646931500,4.031931396484375,0.0448150634765625,0.014756441116333008,0.12005174160003662
1759335472656931600,4.041931640625,-0.13081645965576172,-0.038492679595947266,0.11167933791875839
1759335472666931500,4.051931396484375,-0.29039478302001953,-0.07140517234802246,0.08312156796455383
1759335472706930700,4.0919306640625,-0.46233081817626953,0.05962324142456055,-0.18179017305374146
1759335472716930800,4.101930908203125,-0.4306154251098633,0.09273219108581543,-0.20067265629768372
1759335472726930700,4.1119306640625,-0.3695821762084961,0.10846686363220215,-0.1758410632610321
1759335472736930800,4.121930908203125,-0.2713356018066406,0.12828445434570312,-0.14592918753623962
1759335472746930700,4.1319306640625,-0.15418720245361328,0.14912199974060059,-0.12484226375818253
1759335472756931000,4.14193115234375,-0.03682518005371094,0.17879366874694824,-0.12062939256429672
1759335472766931200,4.15193115234375,0.04292106628417969,0.20592045783996582,-0.1179768294095993
1759335472776931000,4.16193115234375,0.0855875015258789,0.21883702278137207,-0.11433518677949905
1759335472786932000,4.171931884765625,0.08526611328125,0.21979570388793945,-0.12499883770942688
1759335472796932000,4.18193212890625,0.13675785064697266,0.20293116569519043,-0.10368052124977112
1759335472806932200,4.19193212890625,0.1486682891845703,0.20339298248291016,-0.11752542853355408
1759335472816932400,4.201932373046875,0.12528324127197266,0.20874953269958496,-0.11946597695350647
1759335472826932200,4.21193212890625,0.07337188720703125,0.21102499961853027,-0.11650916934013367
1759335472836932400,4.221932373046875,-0.007221221923828125,0.18927931785583496,-0.10732589662075043
1759335472846932200,4.23193212890625,-0.05459117889404297,0.16155433654785156,-0.09619447588920593
1759335472856932400,4.241932373046875,-0.0761871337890625,0.1383953094482422,-0.08106420189142227
1759335472866932200,4.25193212890625,-0.08397483825683594,0.13889503479003906,-0.08551862090826035
1759335472876932400,4.261932373046875,-0.09683513641357422,0.13569045066833496,-0.10064692050218582
1759335472886931500,4.271931396484375,-0.11443328857421875,0.1131734848022461,-0.11822971701622009
1759335472896931600,4.281931640625,-0.14377212524414062,0.0778660774230957,-0.13756319880485535
1759335472906931500,4.291931396484375,-0.18194293975830078,0.04229569435119629,-0.1628871113061905
1759335472916931600,4.301931640625,-0.21017742156982422,0.01269388198852539,-0.20032215118408203
1759335472926931500,4.311931396484375,-0.2239980697631836,-0.004967927932739258,-0.2507607638835907
1759335472936931600,4.321931640625,-0.2239236831665039,-0.011253595352172852,-0.2975785732269287
1759335472946931500,4.331931396484375,-0.22241687774658203,-0.016408920288085938,-0.2864079773426056
1759335472956931600,4.341931640625,-0.16466808319091797,0.0067653656005859375,-0.36906376481056213
1759335472966931500,4.351931396484375,-0.12479019165039062,0.012348413467407227,-0.37559980154037476
1759335472976931600,4.361931640625,-0.08817863464355469,0.0018165111541748047,-0.3717450499534607
1759335472986932200,4.37193212890625,-0.05635833740234375,-0.015954256057739258,-0.3510948419570923
1759335472996932400,4.381932373046875,-0.02891254425048828,-0.03286099433898926,-0.3382963538169861
1759335473006932200,4.39193212890625,-0.005539894104003906,-0.04039168357849121,-0.3418465852737427
1759335473016932400,4.401932373046875,-0.012289047241210938,-0.03246784210205078,-0.324352890253067
1759335473026932200,4.41193212890625,-0.032989501953125,-0.032881736755371094,-0.29023754596710205
1759335473036932400,4.421932373046875,-0.053963661193847656,-0.034598588943481445,-0.2424376755952835
1759335473046932200,4.43193212890625,-0.049208641052246094,-0.02441859245300293,-0.1933148205280304
1759335473056932400,4.441932373046875,-0.02347087860107422,-0.0025243759155273438,-0.16050498187541962
1759335473066932200,4.45193212890625,-0.0053195953369140625,0.018389463424682617,-0.14420688152313232
1759335473076932400,4.461932373046875,0.0223236083984375,0.0298459529876709,-0.12712913751602173
1759335473086931500,4.471931396484375,0.054924964904785156,0.03570413589477539,-0.10634395480155945
1759335473106931500,4.491931396484375,0.0250701904296875,0.034737586975097656,-0.06892858445644379
1759335473116931300,4.501931396484375,0.010510444641113281,0.023273229598999023,-0.039273008704185486
1759335473126931500,4.511931396484375,0.0010423660278320312,0.01333475112915039,-0.014622539281845093
1759335473136931300,4.521931396484375,0.0036630630493164062,0.010457754135131836,0.0037895292043685913
1759335473146931500,4.531931396484375,0.02297496795654297,0.012724161148071289,0.0019959211349487305
1759335473156931300,4.541931396484375,0.04920387268066406,0.018341541290283203,-0.005255371332168579
1759335473166931500,4.551931396484375,0.051375389099121094,0.021831750869750977,-0.012889370322227478
1759335473176931300,4.561931396484375,0.04409027099609375,0.01757669448852539,-0.015210360288619995
1759335473186932200,4.57193212890625,0.043976783752441406,0.01815009117126465,-0.012866497039794922
1759335473196932400,4.581932373046875,-0.020804405212402344,-0.00998234748840332,0.007702246308326721
1759335473206932200,4.59193212890625,-0.04483795166015625,-0.021552324295043945,0.008625492453575134
1759335473216932400,4.601932373046875,-0.03548622131347656,-0.032572269439697266,-0.0015532076358795166
1759335473226932200,4.61193212890625,-0.028894424438476562,-0.02788376808166504,-0.014313846826553345
1759335473236932400,4.621932373046875,-0.02727222442626953,-0.022635936737060547,-0.01429024338722229
1759335473246932200,4.63193212890625,-0.02332019805908203,-0.02685713768005371,-0.0019262135028839111
1759335473256931800,4.641931884765625,-0.023956298828125,-0.036698341369628906,0.01148030161857605
1759335473266932000,4.651931884765625,-0.029150009155273438,-0.05704498291015625,0.023605406284332275
1759335473276931800,4.661931884765625,-0.041214942932128906,-0.07610654830932617,0.03387919068336487
1759335473286931000,4.671930908203125,-0.06037616729736328,-0.08824038505554199,0.04041033238172531
1759335473296931000,4.68193115234375,-0.06995105743408203,-0.09310650825500488,0.03928206115961075
1759335473306931000,4.691930908203125,-0.058074951171875,-0.09024763107299805,0.03391928970813751
1759335473316931000,4.70193115234375,-0.03919696807861328,-0.08902359008789062,0.020365402102470398
1759335473326931000,4.711930908203125,0.0038166046142578125,-0.07655739784240723,-0.0006150603294372559
1759335473336931000,4.72193115234375,0.06394100189208984,-0.043913841247558594,-0.015425905585289001
1759335473346931000,4.731930908203125,0.097930908203125,-0.005057096481323242,-0.03369089961051941
1759335473356931000,4.74193115234375,0.11518192291259766,0.016592025756835938,-0.03160451352596283
1759335473366931000,4.751930908203125,0.1154165267944336,0.015113353729248047,-0.04183743894100189
1759335473376931000,4.76193115234375,0.09160041809082031,0.047693490982055664,0.009553283452987671
1759335473386932000,4.771931884765625,0.06542301177978516,0.049233198165893555,0.03568185120820999
1759335473396931800,4.781931884765625,0.046298980712890625,0.046700477600097656,0.04475267231464386
1759335473406932000,4.791931884765625,0.02727794647216797,0.048754215240478516,0.03806976228952408
1759335473416931800,4.801931884765625,0.0108489990234375,0.0405268669128418,0.012685954570770264
1759335473426932000,4.811931884765625,0.009006500244140625,0.026680946350097656,-0.010732695460319519
1759335473436931800,4.821931884765625,0.019418716430664062,0.016553878784179688,-0.022577449679374695
1759335473446932000,4.831931884765625,0.03697967529296875,0.01844167709350586,-0.026462405920028687
1759335473456931800,4.841931884765625,0.05197715759277344,0.018459796905517578,-0.02245675027370453
1759335473466932000,4.851931884765625,0.059711456298828125,0.016385316848754883,-0.006524145603179932
1759335473476931800,4.861931884765625,0.03613853454589844,0.010197162628173828,0.007160022854804993
1759335473486931200,4.87193115234375,0.0005369186401367188,-0.0005829334259033203,0.022857949137687683
1759335473496931000,4.88193115234375,-0.018373489379882812,-0.018210411071777344,0.03055945783853531
1759335473506931000,4.891930908203125,-0.018291473388671875,-0.03512740135192871,0.03311074525117874
1759335473516931000,4.90193115234375,-0.02084827423095703,-0.03916358947753906,0.0333898589015007
1759335473526931000,4.911930908203125,-0.016264915466308594,-0.04308938980102539,0.03767155855894089
1759335473536931000,4.92193115234375,0.002872467041015625,-0.045331716537475586,0.04639621078968048
1759335473546931000,4.931930908203125,0.02705097198486328,-0.038957834243774414,0.04501943290233612
1759335473556931600,4.941931640625,0.0536346435546875,-0.027910947799682617,0.039952583611011505
1759335473566931500,4.951931396484375,0.041853904724121094,-0.01432347297668457,0.03864770382642746
1759335473576931600,4.961931640625,0.017734527587890625,-0.013842344284057617,0.038175925612449646
1759335473586931700,4.971931640625,0.017607688903808594,-0.01349329948425293,0.03615216910839081
1759335473596931600,4.981931640625,-0.008989334106445312,-0.017308712005615234,0.038760602474212646
1759335473606931700,4.991931640625,-0.023847579956054688,-0.0034952163696289062,0.02972293645143509
1759335473616931600,5.001931640625,-0.01710987091064453,0.0030565261840820312,0.022332176566123962
1759335473626931700,5.011931640625,-0.0055389404296875,0.004734516143798828,0.016212373971939087
1759335473636931600,5.021931640625,0.0037441253662109375,0.008313655853271484,0.01554514467716217
1759335473646931700,5.031931640625,0.02283477783203125,0.006101131439208984,0.007520601153373718
1759335473656931600,5.041931640625,0.044472694396972656,0.0056324005126953125,-0.0019991397857666016
1759335473666931700,5.051931640625,0.04720783233642578,0.006620168685913086,-0.0021975189447402954
1759335473676931600,5.061931640625,0.03087329864501953,0.0048902034759521484,0.0021475404500961304
1759335473686930700,5.0719306640625,0.016780853271484375,0.006177425384521484,0.005089506506919861
1759335473696930800,5.081930908203125,0.0024967193603515625,0.008319377899169922,0.005930125713348389
1759335473706930700,5.0919306640625,-0.016933441162109375,0.00944209098815918,0.0005811601877212524
1759335473716930800,5.101930908203125,-0.019657135009765625,0.008322715759277344,-0.012622818350791931
1759335473726930700,5.1119306640625,-0.0008306503295898438,0.014415979385375977,-0.0205385684967041
1759335473736930800,5.121930908203125,-0.0012540817260742188,0.016039371490478516,-0.01947188377380371
1759335473746930700,5.1319306640625,0.0294952392578125,0.0316777229309082,-0.009447693824768066
1759335473756930800,5.141930908203125,0.02424907684326172,0.033111572265625,0.007708162069320679
1759335473766930700,5.1519306640625,0.00688934326171875,0.03274345397949219,0.021051257848739624
1759335473776930800,5.161930908203125,0.006144523620605469,0.030643701553344727,0.022260569036006927
1759335473786931500,5.171931396484375,0.031554222106933594,0.02694988250732422,0.011402204632759094
1759335473796931600,5.181931640625,0.04480743408203125,0.02638983726501465,0.0013774335384368896
1759335473807344000,5.19234423828125,0.04350566864013672,0.031258583068847656,0.0019547194242477417
1759335473817344000,5.202343994140625,0.05910301208496094,0.03080296516418457,-0.007521197199821472
1759335473827344100,5.21234423828125,0.0681142807006836,0.0257110595703125,-0.012551367282867432
1759335473837344000,5.222343994140625,0.05813789367675781,0.015090465545654297,-0.01741531491279602
1759335473857344000,5.242343994140625,0.015023231506347656,-0.018733978271484375,-0.021990299224853516
1759335473867344100,5.25234423828125,-0.003937721252441406,-0.03144526481628418,-0.01756817102432251
1759335473877344000,5.262343994140625,-0.010877609252929688,-0.02748417854309082,-0.013797938823699951
1759335473887343900,5.27234375,-0.0202484130859375,-0.018568038940429688,-0.011742830276489258
1759335473897344000,5.282343994140625,-0.024965286254882812,-0.004371166229248047,-0.00997874140739441
1759335473907344000,5.29234375,-0.029764175415039062,-0.00906682014465332,-0.011332273483276367
1759335473917343700,5.30234375,-0.02520465850830078,-0.017792701721191406,0.000552743673324585
1759335473927343900,5.31234375,-0.03741645812988281,-0.016959667205810547,0.009024068713188171
1759335473937343700,5.32234375,-0.07361602783203125,-0.018390655517578125,0.009380623698234558
1759335473947344000,5.33234375,-0.09088516235351562,-0.016497373580932617,0.009327143430709839
1759335473957343700,5.34234375,-0.0770711898803711,-0.011877059936523438,0.010014697909355164
1759335473967343900,5.35234375,-0.05628013610839844,-0.004035234451293945,0.0067975521087646484
1759335473977343700,5.36234375,-0.03582191467285156,0.012160539627075195,0.014193505048751831
1759335473987344600,5.3723447265625,-0.006154060363769531,0.02482748031616211,0.01920352876186371
1759335473997344800,5.3823447265625,0.02331829071044922,0.03577733039855957,0.027854301035404205
1759335474007344600,5.3923447265625,0.05292320251464844,0.034267425537109375,0.03644457459449768
1759335474017344800,5.4023447265625,0.06374645233154297,0.0314176082611084,0.04114880412817001
1759335474027344600,5.4123447265625,0.05595111846923828,0.0218505859375,0.03792962431907654
1759335474037344800,5.4223447265625,0.03450202941894531,0.021687984466552734,0.03429960459470749
1759335474047344600,5.4323447265625,0.02320098876953125,0.024268150329589844,0.03490516543388367
1759335474057344800,5.4423447265625,0.036042213439941406,0.030937671661376953,0.026608750224113464
1759335474067344600,5.4523447265625,0.046065330505371094,0.03909134864807129,-0.0053005218505859375
1759335474077344800,5.4623447265625,0.024484634399414062,0.04406619071960449,-0.030664384365081787
1759335474087343900,5.47234375,0.01697063446044922,0.04296875,-0.027535438537597656
1759335474097343700,5.48234375,0.016422271728515625,0.04520249366760254,-0.025120854377746582
1759335474107344000,5.49234375,0.05621051788330078,0.03935813903808594,0.038739994168281555
1759335474117343700,5.50234375,0.10300064086914062,0.04382944107055664,0.02658975124359131
1759335474127343900,5.51234375,0.15236473083496094,0.0308382511138916,-0.009974122047424316
1759335474137343700,5.52234375,0.19284725189208984,0.0199587345123291,-0.03035224974155426
1759335474147344000,5.53234375,0.17881011962890625,0.023543834686279297,-0.024984657764434814
1759335474157343700,5.54234375,0.14583110809326172,0.018789291381835938,-0.005250751972198486
1759335474167343900,5.55234375,0.11808300018310547,0.009936809539794922,0.009204179048538208
1759335474177343700,5.56234375,0.0976095199584961,-0.004029750823974609,0.002135038375854492
1759335474187344600,5.5723447265625,0.09163761138916016,-0.01368570327758789,-0.01650981605052948
1759335474197344800,5.5823447265625,0.10022640228271484,-0.014400720596313477,-0.01719757914543152
1759335474207344600,5.5923447265625,0.11130237579345703,-0.005773305892944336,-0.01150396466255188
1759335474217344800,5.6023447265625,0.012111663818359375,-0.03968238830566406,0.01881401240825653
1759335474227344600,5.6123447265625,0.06401538848876953,-0.060025691986083984,0.010876789689064026
1759335474237344800,5.6223447265625,0.07976531982421875,-0.04699850082397461,0.020158186554908752
1759335474247344600,5.6323447265625,0.09810066223144531,0.008144617080688477,0.009550720453262329
1759335474257344800,5.6423447265625,0.10680961608886719,0.03216743469238281,-0.01216280460357666
1759335474267344600,5.6523447265625,0.11446762084960938,0.014343738555908203,-0.025834783911705017
1759335474277344800,5.6623447265625,0.1623220443725586,-0.03154730796813965,-0.028386786580085754
1759335474287343900,5.67234375,0.21094703674316406,-0.07401394844055176,-0.02606360614299774
1759335474297343700,5.68234375,0.1598644256591797,-0.06537914276123047,-0.011390283703804016
1759335474307344000,5.69234375,0.13518524169921875,-0.06618142127990723,-0.003675699234008789
1759335474317343700,5.70234375,0.16501235961914062,-0.08973312377929688,0.005071818828582764
1759335474327343900,5.71234375,0.1846160888671875,-0.09307718276977539,0.02138744294643402
1759335474337343700,5.72234375,0.19113922119140625,-0.06775879859924316,0.01392565667629242
1759335474347344000,5.73234375,0.21957683563232422,-0.039064645767211914,0.009675368666648865
1759335474357344000,5.742343994140625,0.32661914825439453,-0.011271238327026367,0.00017668306827545166
1759335474367343900,5.75234375,0.4089365005493164,0.009604692459106445,-0.010242357850074768
1759335474377344000,5.762343994140625,0.4329242706298828,-0.012475013732910156,-0.024731993675231934
1759335474387344600,5.7723447265625,0.4337348937988281,-0.016115903854370117,-0.03407931327819824
1759335474397344800,5.7823447265625,0.37755584716796875,-0.11871695518493652,-0.01870112121105194
1759335474407344600,5.7923447265625,0.3205728530883789,-0.15031862258911133,-0.009946957230567932
1759335474417344800,5.8023447265625,0.26207637786865234,-0.1561112403869629,-0.012372583150863647
1759335474427344600,5.8123447265625,0.18437862396240234,-0.15435266494750977,-0.010328054428100586
1759335474437344800,5.8223447265625,0.09252357482910156,-0.16038751602172852,-0.005435749888420105
1759335474447344600,5.8323447265625,0.06392955780029297,-0.18052196502685547,-0.007833108305931091
1759335474457344800,5.8423447265625,0.11509132385253906,-0.201887845993042,-0.030329234898090363
1759335474467344600,5.8523447265625,0.15270519256591797,-0.2177736759185791,-0.04697860777378082
1759335474477344800,5.8623447265625,0.1775054931640625,-0.23556232452392578,-0.01782301813364029
1759335474487343900,5.87234375,0.19051551818847656,-0.2634308338165283,0.03247230872511864
1759335474497343700,5.88234375,0.19286727905273438,-0.2716999053955078,0.027725260704755783
1759335474507344000,5.89234375,0.2325878143310547,-0.27042388916015625,0.034810688346624374
1759335474517343700,5.90234375,0.24451541900634766,-0.2602999210357666,-0.01301547884941101
1759335474527343900,5.91234375,0.22560405731201172,-0.26789045333862305,-0.05184190720319748
1759335474537343700,5.92234375,0.1800985336303711,-0.29373979568481445,-0.06277801841497421
1759335474547344000,5.93234375,0.12735939025878906,-0.31691956520080566,-0.04769376665353775
1759335474557343700,5.94234375,0.1315765380859375,-0.3310849666595459,-0.05255735665559769
1759335474567343900,5.95234375,0.1209878921508789,-0.3053774833679199,-0.04179470241069794
1759335474577343700,5.96234375,0.13184738159179688,-0.2888615131378174,-0.036357332020998
1759335474587344600,5.9723447265625,0.13537311553955078,-0.28856563568115234,-0.029343076050281525
1759335474597344800,5.9823447265625,0.1376018524169922,-0.2880394458770752,-0.018113017082214355
1759335474607344600,5.9923447265625,0.1238870620727539,-0.28534865379333496,-0.011694159358739853
1759335474617344800,6.0023447265625,0.08198738098144531,-0.267686128616333,-0.012467343360185623
1759335474627344600,6.0123447265625,0.03886604309082031,-0.25621867179870605,-0.002704877406358719
1759335474637344800,6.0223447265625,0.022272109985351562,-0.24052166938781738,-0.003393732011318207
1759335474647344600,6.0323447265625,0.048348426818847656,-0.19945788383483887,-0.017623260617256165
1759335474657344800,6.0423447265625,0.07864189147949219,-0.1469874382019043,-0.0313662514090538
1759335474667344600,6.0523447265625,0.08243656158447266,-0.09885883331298828,-0.03197751194238663
1759335474677344800,6.0623447265625,0.04607582092285156,-0.06929492950439453,-0.013446852564811707
1759335474687343900,6.07234375,0.005656242370605469,-0.06360173225402832,0.007664322853088379
1759335474697343700,6.08234375,-0.021852493286132812,-0.0703878402709961,0.018008023500442505
1759335474707344000,6.09234375,-0.05603218078613281,-0.0738821029663086,0.0006223693490028381
1759335474717343700,6.10234375,-0.05397796630859375,-0.06870603561401367,-0.024616852402687073
1759335474727343900,6.11234375,0.05851459503173828,-0.06196928024291992,-0.0720716267824173
1759335474737343700,6.12234375,0.21395015716552734,-0.05237150192260742,-0.12346819788217545
1759335474747344000,6.13234375,0.3263111114501953,-0.04780244827270508,-0.13136765360832214
1759335474757344000,6.142343994140625,0.35350608825683594,-0.05366969108581543,-0.09109144657850266
1759335474767343900,6.15234375,0.2866802215576172,-0.06952738761901855,-0.012847866863012314
1759335474777344000,6.162343994140625,0.17389297485351562,-0.07174539566040039,0.07382146269083023
1759335474787344600,6.1723447265625,0.07188224792480469,-0.04361438751220703,0.11909991502761841
1759335474797344800,6.1823447265625,0.012887001037597656,-0.005187511444091797,0.12572789192199707
1759335474807344600,6.1923447265625,-0.052104949951171875,0.018019914627075195,0.09997070580720901
1759335474817344800,6.2023447265625,-0.12798404693603516,0.009362936019897461,0.06914689391851425
1759335474827344600,6.2123447265625,-0.20226383209228516,-0.003996133804321289,0.05170227587223053
1759335474837344800,6.2223447265625,-0.19548606872558594,-0.023374557495117188,0.05867971479892731
1759335474847343900,6.23234375,-0.23878192901611328,0.016704797744750977,0.04788534715771675
1759335474857344000,6.242343994140625,-0.2125377655029297,0.02069401741027832,0.038657061755657196
1759335474867344000,6.25234375,-0.19063758850097656,-0.0028023719787597656,0.028004005551338196
1759335474877344000,6.262343994140625,-0.18019676208496094,-0.0491480827331543,0.02582373470067978
1759335474887343000,6.272343017578125,-0.186065673828125,-0.07499480247497559,0.029094435274600983
1759335474897343200,6.28234326171875,-0.24666690826416016,-0.07759904861450195,0.05695449560880661
1759335474907343000,6.292343017578125,-0.38155555725097656,-0.08220481872558594,0.09437119960784912
1759335474917343000,6.302343017578125,-0.5309257507324219,-0.1004781723022461,0.11693812906742096
1759335474927343000,6.312343017578125,-0.5228691101074219,-0.12142515182495117,0.13440656661987305
1759335474937343000,6.322343017578125,-0.6456089019775391,-0.13305377960205078,-0.04910539090633392
1759335474947343000,6.332343017578125,-0.47115421295166016,-0.10263895988464355,-0.1741853505373001
1759335474957343000,6.342343017578125,-0.2718334197998047,-0.04335808753967285,-0.23960384726524353
1759335474967343000,6.352343017578125,0.0074481964111328125,-0.011520862579345703,-0.2388526052236557
1759335474977343000,6.362343017578125,0.19819259643554688,-0.018877029418945312,-0.1802365928888321
1759335474987344000,6.37234375,0.27342796325683594,-0.043294668197631836,-0.09995366632938385
