seconds_elapsed,acc_z,acc_y,acc_x,grav_z,grav_y,grav_x,gyro_z,gyro_y,gyro_x
0.0400,-0.0787,-0.0970,-0.4749,0.6632,-9.3296,2.9477,-0.0236,0.0227,0.2205
0.0500,-0.2585,-0.1018,-0.5083,0.6835,-9.3276,2.9495,-0.0174,0.0265,0.1930
0.0600,-0.5368,-0.1004,-0.5481,0.6998,-9.3261,2.9503,-0.0025,0.0260,0.1373
0.0700,-0.6767,-0.0940,-0.5392,0.7105,-9.3256,2.9494,0.0159,0.0308,0.0724
0.0800,-0.6701,-0.0533,-0.4717,0.7158,-9.3259,2.9472,0.0229,0.0443,0.0206
0.0900,-0.5261,0.0291,-0.2976,0.7181,-9.3265,2.9448,0.0198,0.0674,-0.0045
0.1000,-0.3257,0.0745,-0.0860,0.7199,-9.3270,2.9425,0.0160,0.0931,-0.0056
0.1100,-0.1824,0.0528,0.0415,0.7228,-9.3275,2.9405,0.0130,0.1093,0.0059
0.1200,-0.1139,0.0285,0.1103,0.7271,-9.3277,2.9386,0.0091,0.1040,0.0162
0.1300,-0.1269,0.0274,0.1258,0.7314,-9.3278,2.9373,0.0031,0.0781,0.0161
0.1400,-0.1683,0.0124,0.0740,0.7342,-9.3278,2.9367,-0.0007,0.0425,0.0045
0.1500,-0.1679,0.0050,-0.0091,0.7345,-9.3278,2.9367,-0.0022,0.0023,-0.0131
0.1600,-0.1395,0.0085,-0.0719,0.7320,-9.3278,2.9371,-0.0030,-0.0317,-0.0286
0.1700,-0.0723,-0.0136,-0.1017,0.7276,-9.3280,2.9375,-0.0008,-0.0543,-0.0378
0.1800,-0.0128,-0.0305,-0.1186,0.7221,-9.3283,2.9380,-0.0015,-0.0711,-0.0384
0.1900,0.0077,-0.0341,-0.1308,0.7165,-9.3285,2.9389,-0.0056,-0.0814,-0.0321
0.2000,0.0196,-0.0678,-0.1456,0.7115,-9.3285,2.9400,-0.0080,-0.0781,-0.0224
0.2100,0.0211,-0.1092,-0.1471,0.7079,-9.3284,2.9412,-0.0082,-0.0549,-0.0130
0.2200,0.0304,-0.1043,-0.1236,0.7059,-9.3282,2.9421,-0.0074,-0.0126,-0.0070
0.2300,0.0229,-0.0548,-0.0501,0.7059,-9.3280,2.9428,-0.0108,0.0291,0.0009
0.2400,-0.0205,-0.0262,-0.0294,0.7076,-9.3276,2.9438,-0.0194,0.0461,0.0116
0.2500,-0.0597,-0.0413,-0.1175,0.7103,-9.3268,2.9456,-0.0240,0.0370,0.0201
0.2600,-0.0612,-0.0522,-0.1859,0.7133,-9.3260,2.9476,-0.0229,0.0172,0.0243
0.2700,-0.0308,-0.0521,-0.2088,0.7160,-9.3251,2.9495,-0.0204,0.0022,0.0258
0.2800,0.0276,-0.0591,-0.2002,0.7184,-9.3244,2.9512,-0.0147,0.0021,0.0262
0.2900,0.0895,-0.0648,-0.1389,0.7212,-9.3239,2.9521,-0.0076,0.0175,0.0281
0.3000,0.1003,-0.0529,-0.0399,0.7250,-9.3236,2.9522,-0.0022,0.0380,0.0349
0.3100,0.0467,-0.0298,0.0212,0.7301,-9.3232,2.9520,-0.0002,0.0516,0.0456
0.3200,-0.0477,0.0106,0.0064,0.7363,-9.3228,2.9518,-0.0034,0.0471,0.0539
0.3300,-0.1418,0.0471,-0.0457,0.7425,-9.3223,2.9520,-0.0070,0.0215,0.0555
0.3400,-0.1972,0.0441,-0.1049,0.7476,-9.3216,2.9527,-0.0096,-0.0112,0.0483
0.3500,-0.1952,0.0014,-0.1500,0.7509,-9.3210,2.9538,-0.0110,-0.0330,0.0336
0.3600,-0.1705,-0.0385,-0.1714,0.7522,-9.3206,2.9549,-0.0071,-0.0357,0.0169
0.3700,-0.1371,-0.0267,-0.1737,0.7522,-9.3204,2.9555,-0.0018,-0.0230,0.0026
0.3800,-0.0667,0.0036,-0.1647,0.7517,-9.3204,2.9556,0.0016,-0.0011,-0.0030
0.3900,0.0142,0.0340,-0.1573,0.7520,-9.3205,2.9552,0.0040,0.0293,0.0033
0.4000,0.0501,0.0531,-0.1634,0.7540,-9.3206,2.9544,0.0075,0.0565,0.0150
0.4100,0.0374,0.0317,-0.1849,0.7578,-9.3207,2.9530,0.0114,0.0697,0.0265
0.4200,0.0212,0.0106,-0.1979,0.7629,-9.3209,2.9512,0.0149,0.0714,0.0366
0.4300,0.0152,-0.0127,-0.1876,0.7686,-9.3211,2.9491,0.0171,0.0721,0.0417
0.4400,0.0419,-0.0959,-0.1332,0.7748,-9.3213,2.9469,0.0194,0.0772,0.0441
0.4500,0.0768,-0.1611,-0.0578,0.7815,-9.3215,2.9444,0.0192,0.0744,0.0503
0.4600,0.0742,-0.1557,-0.0192,0.7886,-9.3216,2.9423,0.0143,0.0571,0.0612
0.4700,0.0573,-0.1216,-0.0230,0.7961,-9.3214,2.9408,0.0105,0.0339,0.0712
0.4800,0.0197,-0.0738,-0.0416,0.8036,-9.3211,2.9396,0.0100,0.0149,0.0718
0.4900,-0.0662,-0.0209,-0.0419,0.8102,-9.3209,2.9386,0.0101,0.0012,0.0604
0.5000,-0.1839,0.0536,-0.0458,0.8149,-9.3208,2.9376,0.0098,-0.0065,0.0403
0.5100,-0.2667,0.1043,-0.0464,0.8173,-9.3208,2.9368,0.0094,-0.0064,0.0160
0.5200,-0.2795,0.0771,-0.0136,0.8176,-9.3211,2.9359,0.0100,0.0021,-0.0052
0.5300,-0.2525,0.0224,0.0138,0.8168,-9.3215,2.9348,0.0096,0.0150,-0.0148
0.5400,-0.1954,0.0117,-0.0167,0.8160,-9.3219,2.9338,0.0085,0.0251,-0.0139
0.5500,-0.1212,0.0472,-0.0975,0.8158,-9.3222,2.9327,0.0094,0.0299,-0.0078
0.5600,-0.0647,0.0705,-0.1578,0.8163,-9.3225,2.9316,0.0092,0.0301,-0.0014
0.5700,-0.0218,0.0412,-0.2029,0.8172,-9.3228,2.9305,0.0102,0.0288,0.0011
0.5800,0.0129,-0.0186,-0.2333,0.8183,-9.3231,2.9291,0.0137,0.0339,0.0030
0.5900,0.0556,-0.0708,-0.2239,0.8200,-9.3236,2.9273,0.0177,0.0473,0.0072
0.6000,0.1031,-0.1014,-0.1883,0.8226,-9.3241,2.9250,0.0214,0.0586,0.0147
0.6100,0.1105,-0.0932,-0.1463,0.8261,-9.3246,2.9223,0.0235,0.0620,0.0260
0.6200,0.0701,-0.0605,-0.1348,0.8308,-9.3250,2.9197,0.0208,0.0550,0.0382
0.6300,0.0262,-0.0317,-0.1644,0.8362,-9.3252,2.9174,0.0201,0.0443,0.0464
0.6400,0.0040,-0.0150,-0.1816,0.8419,-9.3255,2.9149,0.0237,0.0379,0.0500
0.6500,-0.0175,-0.0249,-0.1615,0.8477,-9.3258,2.9122,0.0258,0.0339,0.0513
0.6600,-0.0414,-0.0314,-0.1532,0.8535,-9.3262,2.9094,0.0279,0.0340,0.0520
0.6700,-0.0587,0.0031,-0.1390,0.8596,-9.3266,2.9062,0.0323,0.0298,0.0562
0.6800,-0.0588,0.0489,-0.1073,0.8661,-9.3271,2.9028,0.0355,0.0227,0.0657
0.6900,-0.0492,0.0775,-0.0954,0.8733,-9.3275,2.8994,0.0350,0.0231,0.0738
0.7000,-0.0606,0.0678,-0.1100,0.8811,-9.3278,2.8958,0.0333,0.0260,0.0774
0.7100,-0.0822,0.0211,-0.1397,0.8891,-9.3281,2.8924,0.0343,0.0302,0.0752
0.7200,-0.0991,-0.0220,-0.1616,0.8967,-9.3285,2.8887,0.0383,0.0350,0.0652
0.7300,-0.1115,-0.0719,-0.1462,0.9033,-9.3291,2.8849,0.0351,0.0277,0.0564
0.7400,-0.0589,-0.1307,-0.1248,0.9092,-9.3295,2.8816,0.0296,0.0219,0.0537
0.7500,0.0153,-0.1402,-0.1160,0.9149,-9.3300,2.8784,0.0327,0.0375,0.0503
0.7600,0.0102,-0.1184,-0.0610,0.9208,-9.3305,2.8748,0.0332,0.0577,0.0473
0.7700,-0.0386,-0.1323,-0.0002,0.9270,-9.3310,2.8712,0.0290,0.0594,0.0501
0.7800,-0.0828,-0.1597,0.0350,0.9335,-9.3311,2.8686,0.0165,0.0278,0.0634
0.7900,-0.0726,-0.1544,0.0025,0.9406,-9.3308,2.8674,0.0072,-0.0124,0.0826
0.8000,-0.0619,-0.0968,-0.0718,0.9483,-9.3301,2.8670,0.0106,-0.0341,0.0949
0.8100,-0.0833,-0.0528,-0.0909,0.9560,-9.3296,2.8662,0.0117,-0.0447,0.0934
0.8200,-0.1011,-0.0349,-0.0984,0.9629,-9.3290,2.8658,0.0055,-0.0585,0.0848
0.8300,-0.1208,-0.0169,-0.1366,0.9687,-9.3282,2.8666,-0.0069,-0.0829,0.0806
0.8400,-0.1011,-0.0351,-0.1939,0.9736,-9.3272,2.8682,-0.0069,-0.0896,0.0763
0.8500,-0.0448,-0.0579,-0.2454,0.9780,-9.3264,2.8693,-0.0006,-0.0760,0.0694
0.8600,-0.0064,-0.0672,-0.2414,0.9823,-9.3256,2.8702,-0.0038,-0.0661,0.0673
0.8700,0.0109,-0.0744,-0.2246,0.9870,-9.3248,2.8714,-0.0093,-0.0604,0.0734
0.8800,0.0239,-0.0827,-0.2396,0.9928,-9.3237,2.8730,-0.0124,-0.0577,0.0862
0.8900,0.0387,-0.1105,-0.2516,0.9999,-9.3223,2.8748,-0.0136,-0.0597,0.1028
0.9000,0.0467,-0.1181,-0.2713,1.0085,-9.3208,2.8767,-0.0133,-0.0695,0.1198
0.9100,0.0102,-0.0844,-0.2787,1.0182,-9.3192,2.8787,-0.0112,-0.0789,0.1348
0.9200,-0.0116,-0.0610,-0.2254,1.0289,-9.3176,2.8798,0.0039,-0.0509,0.1353
0.9300,0.0074,-0.0284,-0.1481,1.0402,-9.3166,2.8790,0.0175,-0.0116,0.1226
0.9400,-0.0875,0.0466,-0.0852,1.0508,-9.3159,2.8776,0.0123,-0.0152,0.1100
0.9500,-0.2532,0.1044,-0.0821,1.0596,-9.3151,2.8770,0.0095,-0.0423,0.0957
0.9600,-0.3067,0.1010,-0.1406,1.0662,-9.3145,2.8764,0.0163,-0.0618,0.0776
0.9700,-0.2646,0.0793,-0.1542,1.0707,-9.3144,2.8752,0.0236,-0.0628,0.0589
0.9800,-0.2015,0.0775,-0.1309,1.0738,-9.3145,2.8734,0.0260,-0.0514,0.0451
0.9900,-0.1279,0.0563,-0.1249,1.0765,-9.3148,2.8714,0.0261,-0.0339,0.0401
1.0000,-0.0744,0.0177,-0.1051,1.0797,-9.3152,2.8692,0.0254,-0.0111,0.0433
1.0100,-0.0719,-0.0055,-0.0610,1.0839,-9.3154,2.8668,0.0246,0.0122,0.0483
1.0200,-0.0991,-0.0402,-0.0082,1.0893,-9.3156,2.8641,0.0271,0.0358,0.0518
1.0300,-0.1108,-0.0946,0.0491,1.0955,-9.3159,2.8608,0.0320,0.0598,0.0517
1.0400,-0.1078,-0.1354,0.0795,1.1023,-9.3163,2.8570,0.0334,0.0776,0.0512
1.0500,-0.0963,-0.1545,0.0742,1.1096,-9.3164,2.8537,0.0212,0.0721,0.0602
1.0600,-0.0224,-0.1993,0.0278,1.1177,-9.3161,2.8516,0.0079,0.0555,0.0739
1.0700,0.0715,-0.2636,-0.0128,1.1266,-9.3153,2.8506,0.0018,0.0517,0.0834
1.0800,0.1225,-0.3150,-0.0169,1.1362,-9.3143,2.8500,-0.0024,0.0592,0.0875
1.0900,0.1350,-0.3188,0.0024,1.1465,-9.3131,2.8499,-0.0152,0.0611,0.0941
1.1000,0.1854,-0.2905,-0.0018,1.1576,-9.3114,2.8510,-0.0258,0.0749,0.1035
1.1100,0.2283,-0.2293,-0.0344,1.1704,-9.3094,2.8523,-0.0225,0.1159,0.1120
1.1200,0.1575,-0.1391,-0.0515,1.1853,-9.3073,2.8531,-0.0255,0.1394,0.1294
1.1300,0.0630,-0.1069,-0.0978,1.2026,-9.3048,2.8538,-0.0295,0.1381,0.1545
1.1400,0.0005,-0.1285,-0.1986,1.2223,-9.3021,2.8542,-0.0166,0.1368,0.1799
1.1500,-0.1063,-0.1426,-0.2868,1.2440,-9.2996,2.8531,0.0091,0.1195,0.2051
1.1600,-0.2541,-0.1382,-0.3228,1.2670,-9.2975,2.8499,0.0366,0.0741,0.2266
1.1700,-0.3609,-0.1084,-0.3161,1.2902,-9.2960,2.8443,0.0658,0.0333,0.2342
1.1800,-0.4338,-0.0429,-0.2296,1.3124,-9.2952,2.8368,0.0896,0.0081,0.2285
1.1900,-0.4117,0.0414,-0.0844,1.3333,-9.2951,2.8273,0.1116,0.0261,0.2097
1.2000,-0.3627,0.0884,-0.0035,1.3531,-9.2959,2.8152,0.1292,0.0859,0.1796
1.2100,-0.4209,0.1558,0.0384,1.3716,-9.2974,2.8013,0.1302,0.1381,0.1480
1.2200,-0.5028,0.2346,0.0894,1.3884,-9.2990,2.7876,0.1161,0.1594,0.1207
1.2300,-0.5633,0.2075,0.0858,1.4030,-9.3004,2.7756,0.0957,0.1241,0.1072
1.2400,-0.6285,0.1160,0.0008,1.4156,-9.3016,2.7654,0.0972,0.0783,0.1014
1.2500,-0.5669,0.0149,-0.1546,1.4269,-9.3033,2.7537,0.1346,0.0888,0.0893
1.2600,-0.4007,-0.0371,-0.2780,1.4374,-9.3065,2.7376,0.1780,0.1215,0.0744
1.2700,-0.3427,-0.0129,-0.2869,1.4476,-9.3108,2.7172,0.2093,0.1625,0.0606
1.2800,-0.2992,0.0476,-0.2291,1.4578,-9.3160,2.6939,0.2269,0.2168,0.0475
1.2900,-0.2573,0.1618,-0.1962,1.4682,-9.3215,2.6690,0.2277,0.2675,0.0385
1.3000,-0.2321,0.3251,-0.2072,1.4795,-9.3271,2.6431,0.2296,0.3287,0.0340
1.3100,-0.1512,0.4015,-0.2330,1.4924,-9.3328,2.6158,0.2357,0.3990,0.0392
1.3200,-0.0498,0.3768,-0.1942,1.5084,-9.3382,2.5871,0.2343,0.4808,0.0603
1.3300,0.0859,0.2800,-0.0787,1.5294,-9.3430,2.5573,0.2277,0.5783,0.0959
1.3400,0.1864,0.1131,-0.0040,1.5564,-9.3469,2.5263,0.2263,0.6732,0.1393
1.3500,0.2090,-0.0575,-0.0051,1.5895,-9.3503,2.4931,0.2431,0.7512,0.1804
1.3600,0.1722,-0.1769,-0.1201,1.6276,-9.3535,2.4561,0.2750,0.8065,0.2169
1.3700,0.1872,-0.1238,-0.2144,1.6698,-9.3568,2.4147,0.3122,0.8575,0.2486
1.3800,0.1400,0.0102,-0.2710,1.7154,-9.3605,2.3681,0.3586,0.8953,0.2692
1.3900,-0.1230,0.0931,-0.3534,1.7619,-9.3647,2.3167,0.4026,0.8626,0.2779
1.4000,-0.3404,0.1288,-0.3171,1.8071,-9.3692,2.2630,0.4242,0.7496,0.2849
1.4100,-0.3310,0.0729,-0.1473,1.8497,-9.3734,2.2105,0.4190,0.6312,0.2892
1.4200,-0.2279,-0.0841,0.0093,1.8897,-9.3771,2.1606,0.4046,0.5710,0.2785
1.4300,-0.2160,-0.2547,0.0144,1.9269,-9.3807,2.1115,0.4092,0.5610,0.2500
1.4400,-0.2982,-0.3362,-0.0409,1.9605,-9.3849,2.0613,0.4273,0.5455,0.2164
1.4500,-0.3680,-0.3498,-0.0333,1.9904,-9.3898,2.0100,0.4390,0.4940,0.1916
1.4600,-0.4449,-0.2193,-0.1154,2.0172,-9.3949,1.9586,0.4549,0.4356,0.1823
1.4700,-0.4988,0.0723,-0.2504,2.0425,-9.4003,1.9061,0.4772,0.3810,0.1893
1.4800,-0.2966,0.2911,-0.1931,2.0680,-9.4053,1.8530,0.4796,0.3624,0.2044
1.4900,0.0486,0.2947,-0.0225,2.0952,-9.4095,1.8001,0.4591,0.4309,0.2203
1.5000,0.1070,0.1949,0.1037,2.1255,-9.4125,1.7481,0.4200,0.5312,0.2365
1.5100,-0.0542,0.0654,0.1615,2.1584,-9.4141,1.6984,0.3738,0.5866,0.2521
1.5200,-0.2015,-0.0782,0.1687,2.1931,-9.4144,1.6517,0.3393,0.5870,0.2700
1.5300,-0.4016,-0.1357,0.0936,2.2288,-9.4135,1.6085,0.3096,0.5256,0.2917
1.5400,-0.5764,-0.1835,-0.0590,2.2650,-9.4115,1.5693,0.2937,0.4251,0.3103
1.5500,-0.5772,-0.2455,-0.1763,2.3007,-9.4090,1.5320,0.3128,0.3407,0.3185
1.5600,-0.5353,-0.2558,-0.1923,2.3302,-9.4069,1.4999,0.3446,0.3120,0.3242
1.5700,-0.5471,-0.2566,-0.1788,2.3420,-9.4061,1.4863,0.3569,0.3150,0.3294
1.5800,-0.4424,-0.2566,-0.0867,2.3727,-9.4039,1.4511,0.3787,0.3071,0.3513
1.5900,-0.3667,-0.2226,0.0003,2.4116,-9.4007,1.4074,0.3934,0.2889,0.3783
1.6000,-0.3871,-0.1060,-0.0100,2.4518,-9.3969,1.3624,0.4125,0.2870,0.3834
1.6100,-0.3357,0.0562,-0.0672,2.4911,-9.3934,1.3145,0.4478,0.3128,0.3609
1.6200,-0.2794,0.1814,-0.1393,2.5279,-9.3909,1.2611,0.5038,0.3749,0.3223
1.6300,-0.2385,0.2060,-0.1920,2.5615,-9.3898,1.1996,0.5741,0.4554,0.2801
1.6400,-0.2979,0.1861,-0.1677,2.5919,-9.3901,1.1299,0.6300,0.5157,0.2446
1.6500,-0.4636,0.2405,0.0018,2.6197,-9.3911,1.0551,0.6517,0.5479,0.2219
1.6600,-0.5795,0.3082,0.3077,2.6462,-9.3918,0.9796,0.6388,0.5303,0.2240
1.6700,-0.6345,0.3804,0.5661,2.6734,-9.3914,0.9072,0.6107,0.4707,0.2506
1.6800,-0.5562,0.5294,0.6336,2.7023,-9.3896,0.8384,0.5937,0.4268,0.2768
1.6900,-0.3531,0.6602,0.5475,2.7325,-9.3866,0.7710,0.5894,0.4172,0.2912
1.7000,-0.1930,0.7113,0.4143,2.7636,-9.3828,0.7036,0.5870,0.4434,0.3012
1.7100,-0.0457,0.7050,0.2612,2.7957,-9.3782,0.6349,0.5874,0.5194,0.3113
1.7200,0.0919,0.5999,0.0828,2.8289,-9.3728,0.5632,0.5937,0.6170,0.3212
1.7300,0.1183,0.3844,-0.0830,2.8631,-9.3666,0.4880,0.6015,0.6905,0.3327
1.7400,0.0922,0.2344,-0.1344,2.8984,-9.3594,0.4106,0.6071,0.7112,0.3484
1.7500,0.0407,0.2442,-0.0770,2.9344,-9.3513,0.3332,0.6040,0.6650,0.3605
1.7600,-0.0179,0.3477,-0.1218,2.9705,-9.3423,0.2585,0.5972,0.5616,0.3654
1.7700,-0.0830,0.4071,-0.2018,3.0055,-9.3328,0.1872,0.5994,0.4467,0.3509
1.7800,-0.2041,0.3793,-0.1212,3.0373,-9.3236,0.1186,0.5962,0.3688,0.3129
1.7900,-0.3080,0.3674,0.0121,3.0650,-9.3151,0.0532,0.5676,0.3396,0.2710
1.8000,-0.3205,0.2469,-0.0561,3.0886,-9.3075,-0.0092,0.5374,0.3688,0.2296
1.8100,-0.2417,0.0171,-0.1822,3.1083,-9.3007,-0.0714,0.5200,0.4562,0.1945
1.8200,-0.2068,-0.2363,-0.3108,3.1246,-9.2945,-0.1356,0.5163,0.5547,0.1660
1.8300,-0.0225,-0.4802,-0.4527,3.1381,-9.2887,-0.2039,0.5416,0.6523,0.1445
1.8400,0.2854,-0.5910,-0.4204,3.1490,-9.2830,-0.2788,0.5833,0.7594,0.1296
1.8500,0.3807,-0.5563,-0.2822,3.1581,-9.2771,-0.3601,0.6184,0.8185,0.1197
1.8600,0.3665,-0.4520,-0.1637,3.1661,-9.2707,-0.4446,0.6384,0.7936,0.1256
1.8700,0.3644,-0.2986,-0.0753,3.1756,-9.2631,-0.5282,0.6437,0.6867,0.1608
1.8800,0.3017,-0.0865,0.0846,3.1902,-9.2532,-0.6073,0.6368,0.5213,0.2306
1.8900,0.1857,0.1073,0.2647,3.2128,-9.2404,-0.6800,0.6164,0.3725,0.3164
1.9000,0.0662,0.1833,0.2996,3.2431,-9.2246,-0.7469,0.5883,0.3086,0.3826
1.9100,-0.0180,0.1715,0.2640,3.2780,-9.2069,-0.8106,0.5658,0.3188,0.4208
1.9200,-0.0733,0.2385,0.2357,3.3148,-9.1880,-0.8733,0.5497,0.3545,0.4312
1.9300,-0.0642,0.3164,0.0889,3.3508,-9.1687,-0.9362,0.5489,0.3751,0.4195
1.9400,0.0338,0.3307,-0.0439,3.3851,-9.1493,-0.9999,0.5665,0.3562,0.4011
1.9500,0.0125,0.2414,-0.0642,3.4175,-9.1300,-1.0640,0.5861,0.2892,0.3752
1.9600,-0.0779,0.1311,-0.0410,3.4478,-9.1111,-1.1266,0.5898,0.2179,0.3420
1.9700,-0.1301,0.0756,0.0117,3.4749,-9.0931,-1.1875,0.5794,0.2145,0.3056
1.9800,-0.1649,0.1049,0.0462,3.4985,-9.0759,-1.2481,0.5718,0.2507,0.2751
1.9900,-0.2747,0.2881,-0.0105,3.5194,-9.0592,-1.3093,0.5683,0.2725,0.2596
2.0000,-0.3629,0.4199,-0.0623,3.5392,-9.0423,-1.3713,0.5699,0.3099,0.2629
2.0100,-0.1743,0.3582,-0.0656,3.5591,-9.0245,-1.4354,0.5853,0.3449,0.2795
2.0200,-0.0033,0.2894,-0.1783,3.5802,-9.0053,-1.5018,0.6067,0.3347,0.2985
2.0300,0.0086,0.3246,-0.2228,3.6028,-8.9849,-1.5687,0.6191,0.2998,0.3080
2.0400,-0.0247,0.2784,-0.1110,3.6259,-8.9638,-1.6348,0.6245,0.2533,0.2999
2.0500,-0.1465,0.2298,-0.0771,3.6482,-8.9427,-1.6994,0.6255,0.2056,0.2788
2.0600,-0.2658,0.2639,-0.0664,3.6690,-8.9219,-1.7627,0.6256,0.1880,0.2637
2.0700,-0.2008,0.2056,0.0073,3.6893,-8.9008,-1.8261,0.6221,0.2074,0.2733
2.0800,-0.0674,0.0465,0.1006,3.7110,-8.8784,-1.8896,0.6169,0.2258,0.3073
2.0900,-0.1181,-0.1039,0.1942,3.7357,-8.8541,-1.9540,0.6332,0.2474,0.3490
2.1000,-0.2154,-0.2292,0.2839,3.7630,-8.8272,-2.0221,0.6721,0.2893,0.3877
2.1100,-0.1842,-0.3108,0.3796,3.7926,-8.7974,-2.0954,0.7248,0.3109,0.4180
2.1200,-0.1288,-0.3701,0.4172,3.8236,-8.7651,-2.1729,0.7657,0.2756,0.4271
2.1300,-0.1824,-0.2034,0.2606,3.8546,-8.7317,-2.2513,0.7846,0.2249,0.4051
2.1400,-0.1959,0.1342,0.0684,3.8841,-8.6985,-2.3280,0.7812,0.1912,0.3711
2.1500,-0.1555,0.2228,-0.0447,3.9099,-8.6663,-2.4032,0.7652,0.1925,0.3310
2.1600,-0.1355,0.2044,-0.1133,3.9331,-8.6351,-2.4769,0.7442,0.1888,0.3211
2.1700,-0.0194,0.2396,-0.1094,3.9586,-8.6031,-2.5464,0.7029,0.1615,0.3705
2.1800,0.0679,0.2048,-0.1075,3.9886,-8.5695,-2.6122,0.6653,0.1864,0.4252
2.1900,-0.0372,0.1441,-0.0867,4.0209,-8.5343,-2.6771,0.6418,0.2290,0.4572
2.2000,-0.2622,0.0876,-0.0848,4.0544,-8.4982,-2.7406,0.6234,0.2192,0.4701
2.2100,-0.2960,-0.0666,-0.1542,4.0885,-8.4617,-2.8022,0.6277,0.1908,0.4619
2.2200,-0.2273,-0.2018,-0.1794,4.1218,-8.4248,-2.8641,0.6507,0.1848,0.4473
2.2300,-0.1200,-0.2576,-0.2457,4.1529,-8.3872,-2.9286,0.6814,0.2084,0.4241
2.2400,-0.0192,-0.2083,-0.3615,4.1829,-8.3490,-2.9945,0.6960,0.1715,0.4211
2.2500,0.0577,-0.0071,-0.3359,4.2147,-8.3099,-3.0579,0.6813,0.0993,0.4337
2.2600,0.1783,0.1371,-0.3310,4.2476,-8.2707,-3.1181,0.6685,0.0876,0.4217
2.2700,0.1869,0.1567,-0.3292,4.2796,-8.2318,-3.1768,0.6576,0.0845,0.4164
2.2800,0.1807,0.1206,-0.2839,4.3116,-8.1926,-3.2342,0.6441,0.0819,0.4276
2.2900,0.1952,0.1020,-0.3250,4.3446,-8.1528,-3.2903,0.6361,0.0777,0.4400
2.3000,0.3014,0.1013,-0.3675,4.3788,-8.1120,-3.3452,0.6302,0.0682,0.4585
2.3100,0.4276,0.0973,-0.3452,4.4152,-8.0699,-3.3988,0.6202,0.0506,0.4885
2.3200,0.4133,0.0419,-0.2805,4.4543,-8.0264,-3.4503,0.6115,0.0351,0.5066
2.3300,0.3328,0.0466,-0.1301,4.4943,-7.9826,-3.4998,0.5852,0.0092,0.5146
2.3400,0.2723,0.0889,-0.0051,4.5369,-7.9386,-3.5446,0.5359,-0.0314,0.5506
2.3500,0.3240,0.1078,0.0344,4.5843,-7.8939,-3.5833,0.4969,-0.0605,0.5929
2.3600,0.2395,0.1181,0.0811,4.6347,-7.8484,-3.6182,0.4666,-0.0786,0.6152
2.3700,-0.0092,0.0991,0.1772,4.6872,-7.8026,-3.6494,0.4352,-0.0961,0.6358
2.3800,-0.1510,0.1053,0.1834,4.7413,-7.7563,-3.6781,0.4185,-0.1124,0.6527
2.3900,-0.2746,0.0800,0.0424,4.7964,-7.7095,-3.7051,0.4174,-0.1274,0.6500
2.4000,-0.3290,0.0526,-0.0732,4.8513,-7.6627,-3.7304,0.4096,-0.1437,0.6389
2.4100,-0.2506,-0.0945,-0.0882,4.9058,-7.6161,-3.7546,0.4069,-0.1567,0.6330
2.4200,-0.1893,-0.3928,-0.1556,4.9600,-7.5693,-3.7780,0.4148,-0.1656,0.6224
2.4300,-0.1611,-0.5920,-0.3004,5.0130,-7.5229,-3.8007,0.4041,-0.1669,0.6049
2.4400,-0.1832,-0.5493,-0.3712,5.0643,-7.4774,-3.8225,0.3958,-0.1632,0.5884
2.4500,-0.2320,-0.4311,-0.4444,5.1143,-7.4323,-3.8438,0.3895,-0.1591,0.5829
2.4600,-0.2496,-0.3663,-0.2740,5.1635,-7.3876,-3.8640,0.3651,-0.1486,0.5793
2.4700,-0.3664,-0.2927,0.0097,5.2116,-7.3438,-3.8830,0.3505,-0.1348,0.5661
2.4800,-0.4618,-0.2052,-0.0251,5.2592,-7.3000,-3.9013,0.3640,-0.1824,0.5770
2.4900,-0.2544,-0.0966,-0.3272,5.3130,-7.2536,-3.9149,0.3636,-0.3200,0.6341
2.5000,0.2055,-0.1273,-0.3803,5.3761,-7.2047,-3.9190,0.3161,-0.4456,0.6779
2.5100,0.3383,-0.3864,-0.0838,5.4428,-7.1567,-3.9150,0.2637,-0.4609,0.6636
2.5200,0.1753,-0.3821,-0.3071,5.5072,-7.1100,-3.9098,0.2742,-0.4229,0.6507
2.5300,0.2458,-0.1457,-0.4214,5.5710,-7.0619,-3.9068,0.2883,-0.4161,0.6836
2.5400,0.3409,-0.1111,-0.2189,5.6376,-7.0115,-3.9020,0.2525,-0.4369,0.7228
2.5500,0.3254,-0.1676,-0.3200,5.7063,-6.9606,-3.8932,0.2233,-0.4525,0.7308
2.5600,0.2926,-0.2147,-0.3832,5.7744,-6.9106,-3.8817,0.1994,-0.4530,0.7108
2.5700,0.2726,-0.3099,-0.4175,5.8404,-6.8628,-3.8680,0.1698,-0.4600,0.6807
2.5800,0.3120,-0.4892,-0.5196,5.9045,-6.8169,-3.8517,0.1492,-0.4569,0.6654
2.5900,0.1968,-0.6123,-0.6200,5.9656,-6.7724,-3.8361,0.1302,-0.3766,0.6453
2.6000,0.0557,-0.4719,-0.8246,6.0227,-6.7288,-3.8235,0.1349,-0.3497,0.6351
2.6100,0.0318,-0.1111,-0.7020,6.0807,-6.6842,-3.8099,0.1459,-0.4151,0.6489
2.6200,-0.2089,0.2120,-0.4738,6.1391,-6.6400,-3.7935,0.1305,-0.4034,0.6080
2.6300,-0.3428,0.4745,-0.7920,6.1911,-6.5997,-3.7793,0.1574,-0.3595,0.5176
2.6400,-0.0775,0.6744,-0.8341,6.2362,-6.5627,-3.7697,0.2009,-0.3337,0.4545
2.6500,0.0988,0.6277,-0.5940,6.2770,-6.5275,-3.7631,0.1945,-0.2964,0.4225
2.6600,0.1290,0.4626,-0.7030,6.3140,-6.4948,-3.7577,0.1694,-0.2506,0.3919
2.6700,0.1431,0.3488,-0.8829,6.3474,-6.4649,-3.7531,0.1460,-0.2205,0.3625
2.6800,0.0493,0.3045,-0.9215,6.3780,-6.4377,-3.7480,0.1172,-0.2085,0.3317
2.6900,-0.0886,0.3687,-0.8999,6.4060,-6.4134,-3.7419,0.0966,-0.1972,0.2976
2.7000,-0.2184,0.4975,-0.7811,6.4315,-6.3917,-3.7353,0.0922,-0.1961,0.2687
2.7100,-0.2704,0.6102,-0.5155,6.4547,-6.3715,-3.7298,0.1134,-0.1599,0.2352
2.7200,-0.2663,0.6438,-0.3396,6.4730,-6.3523,-3.7308,0.1693,-0.0844,0.1952
2.7300,-0.3356,0.6096,-0.1454,6.4875,-6.3329,-3.7387,0.2149,-0.0699,0.1820
2.7400,-0.4649,0.5659,0.1527,6.5026,-6.3122,-3.7473,0.2332,-0.1025,0.1923
2.7500,-0.4582,0.5107,0.2135,6.5194,-6.2902,-3.7552,0.2496,-0.1238,0.2012
2.7600,-0.3699,0.3745,0.0925,6.5377,-6.2669,-3.7622,0.2517,-0.1507,0.2177
2.7700,-0.2869,0.2096,-0.0785,6.5580,-6.2428,-3.7670,0.2214,-0.1612,0.2424
2.7800,-0.1108,0.1800,-0.2853,6.5793,-6.2188,-3.7695,0.1605,-0.1257,0.2593
2.7900,0.0772,0.2495,-0.4984,6.5991,-6.1969,-3.7711,0.1046,-0.0716,0.2475
2.8000,0.2004,0.2940,-0.6198,6.6148,-6.1785,-3.7736,0.0867,-0.0215,0.1927
2.8100,0.2659,0.2601,-0.5655,6.6247,-6.1649,-3.7784,0.0931,-0.0040,0.1146
2.8200,0.2065,0.1633,-0.4178,6.6306,-6.1559,-3.7829,0.0922,-0.0430,0.0575
2.8300,0.0637,0.0734,-0.3572,6.6361,-6.1494,-3.7839,0.0800,-0.0858,0.0427
2.8400,-0.0037,0.0096,-0.4282,6.6425,-6.1433,-3.7824,0.0661,-0.0900,0.0578
2.8500,-0.0587,-0.0757,-0.4876,6.6501,-6.1363,-3.7806,0.0495,-0.0679,0.0882
2.8600,-0.1851,-0.1747,-0.4829,6.6586,-6.1277,-3.7796,0.0378,-0.0450,0.1212
2.8700,-0.3414,-0.2111,-0.4869,6.6688,-6.1173,-3.7784,0.0290,-0.0549,0.1513
2.8800,-0.4814,-0.1894,-0.4573,6.6808,-6.1056,-3.7760,0.0299,-0.0651,0.1606
2.8900,-0.4387,-0.1915,-0.3173,6.6920,-6.0938,-3.7753,0.0697,-0.0410,0.1359
2.9000,-0.1573,-0.3000,-0.1025,6.7008,-6.0819,-3.7789,0.1224,-0.0374,0.1100
2.9100,0.0318,-0.3659,-0.0420,6.7090,-6.0694,-3.7843,0.1520,-0.0522,0.1054
2.9200,0.0239,-0.2078,-0.1670,6.7180,-6.0560,-3.7899,0.1567,-0.0634,0.1191
2.9300,-0.0238,-0.0165,-0.2348,6.7286,-6.0417,-3.7941,0.1327,-0.0752,0.1411
2.9400,-0.0790,0.0691,-0.2634,6.7407,-6.0270,-3.7959,0.0972,-0.0786,0.1612
2.9500,-0.1073,0.1107,-0.2951,6.7538,-6.0124,-3.7957,0.0635,-0.0677,0.1798
2.9600,-0.0732,0.1055,-0.2355,6.7669,-5.9977,-3.7955,0.0474,-0.0294,0.1894
2.9700,-0.0362,0.0781,-0.0972,6.7785,-5.9830,-3.7982,0.0570,0.0140,0.1871
2.9800,-0.0341,0.0006,0.0329,6.7885,-5.9679,-3.8040,0.0808,0.0320,0.1788
2.9900,-0.0115,-0.0878,0.1126,6.7978,-5.9523,-3.8118,0.1086,0.0253,0.1733
3.0000,-0.0033,-0.0411,0.1406,6.8077,-5.9358,-3.8199,0.1206,0.0050,0.1804
3.0100,-0.0463,0.1011,0.1254,6.8190,-5.9183,-3.8268,0.1179,-0.0121,0.1943
3.0200,-0.0916,0.2083,0.1096,6.8317,-5.9000,-3.8325,0.1091,-0.0188,0.2112
3.0300,-0.1276,0.2718,0.1013,6.8456,-5.8808,-3.8372,0.0933,-0.0176,0.2329
3.0400,-0.1337,0.3239,0.1063,6.8601,-5.8608,-3.8418,0.0839,0.0006,0.2443
3.0500,-0.0945,0.3539,0.1761,6.8737,-5.8408,-3.8480,0.0920,0.0272,0.2350
3.0600,-0.0619,0.3184,0.3050,6.8856,-5.8215,-3.8560,0.1000,0.0308,0.2129
3.0700,-0.0451,0.1706,0.3782,6.8964,-5.8038,-3.8633,0.0975,0.0084,0.1868
3.0800,0.0029,-0.0257,0.2878,6.9067,-5.7880,-3.8687,0.0977,-0.0131,0.1593
3.0900,0.0529,-0.1704,0.0909,6.9161,-5.7739,-3.8730,0.0950,-0.0243,0.1403
3.1000,0.0615,-0.2293,-0.0129,6.9250,-5.7607,-3.8766,0.0824,-0.0181,0.1407
3.1100,0.1263,-0.2312,-0.0707,6.9334,-5.7477,-3.8811,0.0668,0.0258,0.1512
3.1200,0.2131,-0.1751,-0.1673,6.9400,-5.7347,-3.8884,0.0512,0.0860,0.1551
3.1300,0.1915,-0.0749,-0.2230,6.9443,-5.7224,-3.8988,0.0370,0.1352,0.1495
3.1400,0.1612,-0.0305,-0.2158,6.9463,-5.7111,-3.9118,0.0368,0.1742,0.1321
3.1500,0.1708,-0.0553,-0.1538,6.9457,-5.7011,-3.9276,0.0594,0.1959,0.1024
3.1600,0.1217,-0.0388,-0.1389,6.9427,-5.6920,-3.9460,0.0914,0.2030,0.0700
3.1700,-0.0131,0.1344,-0.1407,6.9383,-5.6840,-3.9652,0.1087,0.1762,0.0431
3.1800,-0.2314,0.4220,-0.1322,6.9345,-5.6773,-3.9813,0.1019,0.1120,0.0299
3.1900,-0.4384,0.6691,-0.1451,6.9328,-5.6717,-3.9924,0.0801,0.0595,0.0293
3.2000,-0.5235,0.7619,-0.1430,6.9327,-5.6667,-3.9996,0.0512,0.0409,0.0396
3.2100,-0.4678,0.6539,-0.1072,6.9337,-5.6620,-4.0045,0.0259,0.0416,0.0510
3.2200,-0.3435,0.3545,-0.0598,6.9349,-5.6578,-4.0084,0.0119,0.0415,0.0478
3.2300,-0.2257,0.0294,-0.0638,6.9360,-5.6544,-4.0113,0.0096,0.0241,0.0405
3.2400,-0.1389,-0.1322,-0.1312,6.9376,-5.6512,-4.0130,0.0175,0.0032,0.0363
3.2500,-0.1027,-0.1323,-0.2463,6.9396,-5.6478,-4.0143,0.0262,0.0005,0.0334
3.2600,-0.1102,-0.0768,-0.3268,6.9410,-5.6446,-4.0164,0.0283,0.0143,0.0281
3.2700,-0.1763,-0.0130,-0.3552,6.9420,-5.6415,-4.0191,0.0229,0.0146,0.0365
3.2800,-0.2123,0.1721,-0.3935,6.9441,-5.6373,-4.0213,0.0206,0.0152,0.0592
3.2900,-0.1486,0.2974,-0.2881,6.9459,-5.6329,-4.0242,0.0336,0.0448,0.0601
3.3000,-0.0974,0.2763,-0.1594,6.9463,-5.6310,-4.0263,0.0439,0.0647,0.0512
3.3100,-0.0271,0.2053,0.1499,6.9451,-5.6271,-4.0338,0.0729,0.0945,0.0164
3.3200,-0.0597,0.1184,0.3971,6.9408,-5.6242,-4.0452,0.1034,0.0815,-0.0349
3.3300,-0.1581,0.1124,0.3995,6.9355,-5.6235,-4.0554,0.1205,0.0188,-0.0753
3.3400,-0.2158,0.2350,0.2230,6.9314,-5.6244,-4.0610,0.1164,-0.0516,-0.0893
3.3500,-0.2135,0.4022,-0.0312,6.9296,-5.6262,-4.0617,0.0851,-0.0888,-0.0775
3.3600,-0.1821,0.4979,-0.2512,6.9294,-5.6282,-4.0592,0.0394,-0.0790,-0.0565
3.3700,-0.1174,0.4346,-0.3680,6.9289,-5.6312,-4.0560,-0.0073,-0.0330,-0.0491
3.3800,-0.0324,0.2400,-0.4307,6.9262,-5.6359,-4.0540,-0.0394,0.0134,-0.0575
3.3900,0.0317,0.0936,-0.4654,6.9216,-5.6422,-4.0531,-0.0532,0.0325,-0.0701
3.4000,0.0329,0.1100,-0.5322,6.9160,-5.6498,-4.0521,-0.0587,0.0287,-0.0808
3.4100,-0.0362,0.2825,-0.6483,6.9104,-5.6580,-4.0501,-0.0652,0.0118,-0.0834
3.4200,-0.0889,0.4675,-0.7230,6.9056,-5.6665,-4.0464,-0.0797,0.0022,-0.0738
3.4300,-0.1335,0.5096,-0.7079,6.9018,-5.6746,-4.0417,-0.1033,0.0104,-0.0507
3.4400,-0.2264,0.4006,-0.6347,6.8993,-5.6816,-4.0359,-0.1279,0.0134,-0.0188
3.4500,-0.3140,0.2708,-0.5413,6.8988,-5.6874,-4.0288,-0.1400,0.0035,0.0079
3.4600,-0.3330,0.1958,-0.3832,6.8997,-5.6922,-4.0203,-0.1426,-0.0157,0.0171
3.4700,-0.2631,0.0962,-0.1958,6.9016,-5.6969,-4.0103,-0.1398,-0.0389,0.0109
3.4800,-0.1457,-0.0264,-0.0417,6.9037,-5.7020,-3.9996,-0.1257,-0.0483,-0.0009
3.4900,-0.0868,-0.0789,0.0279,6.9052,-5.7072,-3.9896,-0.1098,-0.0444,-0.0113
3.5000,-0.0863,-0.1151,0.0955,6.9059,-5.7124,-3.9809,-0.0965,-0.0357,-0.0208
3.5100,-0.0947,-0.1927,0.1546,6.9058,-5.7175,-3.9737,-0.0787,-0.0246,-0.0275
3.5200,-0.1112,-0.2392,0.1201,6.9052,-5.7222,-3.9679,-0.0595,-0.0264,-0.0273
3.5300,-0.1265,-0.2146,0.0818,6.9053,-5.7260,-3.9624,-0.0438,-0.0472,-0.0215
3.5400,-0.1257,-0.1440,0.0309,6.9065,-5.7287,-3.9564,-0.0290,-0.0628,-0.0138
3.5500,-0.0405,-0.0557,-0.0103,6.9081,-5.7303,-3.9511,-0.0121,-0.0525,-0.0113
3.5600,0.1072,0.0512,0.0183,6.9091,-5.7315,-3.9478,-0.0070,-0.0322,-0.0129
3.5700,0.1644,0.1136,0.0773,6.9093,-5.7327,-3.9456,-0.0125,-0.0192,-0.0106
3.5800,0.1101,0.0998,0.0657,6.9093,-5.7338,-3.9440,-0.0154,-0.0032,-0.0066
3.5900,0.0307,0.0765,0.0482,6.9087,-5.7349,-3.9436,-0.0180,0.0180,-0.0045
3.6000,-0.0423,0.0837,0.0740,6.9074,-5.7360,-3.9442,-0.0197,0.0306,-0.0055
3.6100,-0.0968,0.1141,0.0726,6.9059,-5.7371,-3.9453,-0.0147,0.0271,-0.0058
3.6200,-0.1033,0.1476,0.0578,6.9049,-5.7377,-3.9461,-0.0058,0.0131,-0.0014
3.6300,-0.0802,0.1766,0.0769,6.9047,-5.7379,-3.9462,-0.0030,-0.0013,0.0014
3.6400,-0.0704,0.1871,0.0886,6.9048,-5.7381,-3.9457,-0.0049,-0.0080,-0.0059
3.6500,-0.0638,0.1383,0.0585,6.9042,-5.7392,-3.9451,-0.0049,-0.0002,-0.0212
3.6600,-0.0685,0.0453,-0.0553,6.9026,-5.7412,-3.9451,-0.0031,0.0050,-0.0329
3.6700,-0.0779,0.0272,-0.2050,6.9004,-5.7438,-3.9451,-0.0032,0.0020,-0.0366
3.6800,-0.0647,0.1004,-0.2830,6.8981,-5.7464,-3.9453,-0.0074,0.0141,-0.0346
3.6900,-0.0659,0.1501,-0.3350,6.8954,-5.7489,-3.9463,-0.0143,0.0325,-0.0260
3.7000,-0.0866,0.1442,-0.3467,6.8930,-5.7509,-3.9476,-0.0220,0.0345,-0.0086
3.7100,-0.1116,0.1196,-0.3369,6.8922,-5.7516,-3.9481,-0.0245,0.0166,0.0153
3.7200,-0.1346,0.1374,-0.3193,6.8934,-5.7507,-3.9473,-0.0210,-0.0038,0.0348
3.7300,-0.1610,0.1663,-0.2549,6.8959,-5.7488,-3.9456,-0.0208,-0.0116,0.0426
3.7400,-0.1973,0.1426,-0.2056,6.8988,-5.7469,-3.9434,-0.0268,-0.0139,0.0379
3.7500,-0.2033,0.1148,-0.2103,6.9012,-5.7459,-3.9406,-0.0348,-0.0177,0.0261
3.7600,-0.1789,0.1126,-0.2326,6.9031,-5.7461,-3.9371,-0.0442,-0.0220,0.0140
3.7700,-0.1586,0.0946,-0.2550,6.9045,-5.7474,-3.9326,-0.0543,-0.0282,0.0018
3.7800,-0.1260,0.0606,-0.2616,6.9051,-5.7502,-3.9274,-0.0566,-0.0272,-0.0202
3.7900,-0.0936,0.0113,-0.2444,6.9045,-5.7544,-3.9224,-0.0531,-0.0277,-0.0387
3.8000,-0.0860,-0.0590,-0.2511,6.9034,-5.7590,-3.9175,-0.0427,-0.0354,-0.0383
3.8100,-0.0607,-0.0744,-0.2289,6.9028,-5.7625,-3.9135,-0.0191,-0.0282,-0.0255
3.8200,-0.0719,-0.0136,-0.1371,6.9026,-5.7638,-3.9119,0.0041,-0.0086,-0.0051
3.8300,-0.1534,0.1128,-0.0896,6.9028,-5.7631,-3.9125,0.0172,-0.0000,0.0081
3.8400,-0.2034,0.2572,-0.1023,6.9034,-5.7618,-3.9134,0.0185,-0.0115,0.0066
3.8500,-0.1676,0.3025,-0.1202,6.9042,-5.7611,-3.9130,0.0105,-0.0311,-0.0004
3.8600,-0.1011,0.2060,-0.1044,6.9053,-5.7612,-3.9110,0.0065,-0.0420,-0.0105
3.8700,-0.0727,0.1251,-0.0796,6.9064,-5.7620,-3.9080,0.0022,-0.0524,-0.0155
3.8800,-0.0740,0.0803,-0.0651,6.9080,-5.7628,-3.9039,-0.0007,-0.0667,-0.0059
3.8900,-0.0876,0.0119,-0.1047,6.9106,-5.7626,-3.8996,0.0062,-0.0589,0.0100
3.9000,-0.0784,-0.0129,-0.1444,6.9131,-5.7612,-3.8973,0.0147,-0.0251,0.0179
3.9100,-0.0490,-0.0247,-0.1109,6.9145,-5.7592,-3.8977,0.0239,0.0015,0.0164
3.9200,-0.0496,-0.0217,-0.0956,6.9153,-5.7570,-3.8995,0.0309,0.0020,0.0140
3.9300,-0.0574,0.0199,-0.0881,6.9162,-5.7548,-3.9010,0.0300,-0.0140,0.0098
3.9400,-0.0506,0.0557,-0.0790,6.9175,-5.7533,-3.9011,0.0224,-0.0270,0.0016
3.9500,-0.0422,0.0569,-0.1053,6.9183,-5.7529,-3.9002,0.0106,-0.0258,-0.0092
3.9600,-0.0261,0.0515,-0.1622,6.9183,-5.7536,-3.8991,-0.0026,-0.0124,-0.0156
3.9700,-0.0065,0.0681,-0.2024,6.9176,-5.7550,-3.8983,-0.0139,0.0067,-0.0136
3.9800,0.0044,0.0956,-0.1989,6.9163,-5.7563,-3.8987,-0.0162,0.0259,-0.0075
3.9900,-0.0068,0.0996,-0.1478,6.9149,-5.7570,-3.9002,-0.0090,0.0364,0.0004
4.0000,-0.0559,0.0751,-0.0759,6.9139,-5.7567,-3.9023,0.0039,0.0291,0.0082
4.0100,-0.1120,0.0978,-0.0581,6.9137,-5.7556,-3.9045,0.0133,0.0187,0.0141
4.0200,-0.1185,0.1867,-0.0458,6.9139,-5.7540,-3.9063,0.0108,0.0153,0.0161
4.0300,-0.0947,0.2412,-0.0167,6.9143,-5.7526,-3.9078,0.0013,0.0175,0.0152
4.0400,-0.0760,0.2119,-0.0398,6.9143,-5.7517,-3.9089,-0.0110,0.0198,0.0138
4.0500,-0.0636,0.1339,-0.0917,6.9145,-5.7515,-3.9091,-0.0253,0.0105,0.0138
4.0600,-0.0679,0.0664,-0.1181,6.9148,-5.7518,-3.9080,-0.0304,0.0079,0.0090
4.0700,-0.0541,0.0342,-0.1026,6.9147,-5.7525,-3.9072,-0.0286,0.0184,0.0047
4.0800,-0.0386,0.0497,-0.1129,6.9141,-5.7531,-3.9073,-0.0267,0.0312,0.0109
4.0900,-0.0438,0.0483,-0.1187,6.9131,-5.7531,-3.9091,-0.0164,0.0555,0.0123
4.1000,-0.0728,0.0118,-0.0863,6.9111,-5.7530,-3.9129,-0.0097,0.0706,0.0020
4.1100,-0.1154,-0.0192,-0.1388,6.9082,-5.7537,-3.9170,-0.0076,0.0554,-0.0131
4.1200,-0.1290,-0.0529,-0.2168,6.9053,-5.7552,-3.9198,0.0024,0.0313,-0.0290
4.1300,-0.1422,-0.0644,-0.2007,6.9023,-5.7572,-3.9220,0.0157,0.0159,-0.0406
4.1400,-0.1705,-0.0421,-0.1786,6.8993,-5.7595,-3.9241,0.0275,0.0123,-0.0474
4.1500,-0.1834,0.0199,-0.1888,6.8960,-5.7615,-3.9269,0.0339,0.0115,-0.0457
4.1600,-0.1828,0.0986,-0.2209,6.8934,-5.7628,-3.9296,0.0357,0.0053,-0.0305
4.1700,-0.1746,0.1563,-0.2428,6.8923,-5.7628,-3.9316,0.0293,-0.0021,-0.0064
4.1800,-0.1550,0.1700,-0.2521,6.8926,-5.7616,-3.9327,0.0171,-0.0047,0.0141
4.1900,-0.1319,0.1334,-0.2613,6.8937,-5.7599,-3.9333,0.0111,-0.0007,0.0193
4.2000,-0.1143,0.0812,-0.2329,6.8947,-5.7583,-3.9339,0.0098,-0.0013,0.0129
4.2100,-0.1083,0.0389,-0.2056,6.8953,-5.7573,-3.9342,0.0115,-0.0098,0.0025
4.2200,-0.1048,0.0208,-0.2101,6.8957,-5.7570,-3.9340,0.0131,-0.0172,-0.0069
4.2300,-0.0912,0.0060,-0.2155,6.8957,-5.7573,-3.9336,0.0126,-0.0138,-0.0142
4.2400,-0.0750,-0.0062,-0.2071,6.8949,-5.7581,-3.9338,0.0091,-0.0009,-0.0209
4.2500,-0.0669,-0.0015,-0.2026,6.8934,-5.7594,-3.9345,0.0056,0.0074,-0.0260
4.2600,-0.0538,-0.0026,-0.1893,6.8915,-5.7610,-3.9355,0.0103,0.0051,-0.0276
4.2700,-0.0281,0.0348,-0.1648,6.8901,-5.7621,-3.9364,0.0205,-0.0065,-0.0190
4.2800,-0.0216,0.1315,-0.1025,6.8900,-5.7617,-3.9371,0.0286,-0.0173,0.0016
4.2900,-0.0567,0.2411,-0.0503,6.8915,-5.7596,-3.9377,0.0305,-0.0211,0.0250
4.3000,-0.1328,0.3127,-0.0394,6.8943,-5.7560,-3.9379,0.0242,-0.0200,0.0430
4.3100,-0.1858,0.3059,-0.0260,6.8977,-5.7520,-3.9378,0.0172,-0.0166,0.0480
4.3200,-0.1714,0.2301,-0.0459,6.9008,-5.7484,-3.9377,0.0136,-0.0113,0.0367
4.3300,-0.1217,0.1295,-0.0814,6.9024,-5.7462,-3.9381,0.0146,-0.0056,0.0096
4.3400,-0.0484,0.0341,-0.0958,6.9024,-5.7458,-3.9385,0.0142,-0.0070,-0.0167
4.3500,0.0134,-0.0096,-0.1291,6.9014,-5.7471,-3.9386,0.0067,-0.0093,-0.0302
4.3600,0.0355,-0.0203,-0.1874,6.8996,-5.7491,-3.9387,0.0087,0.0001,-0.0360
4.3700,0.0369,-0.0443,-0.2384,6.8972,-5.7511,-3.9401,0.0162,0.0209,-0.0345
4.3800,0.0211,-0.0493,-0.1932,6.8947,-5.7523,-3.9427,0.0070,0.0255,-0.0155
4.3900,-0.0418,-0.0097,-0.1293,6.8939,-5.7521,-3.9443,-0.0062,0.0214,0.0213
4.4000,-0.0880,-0.0010,-0.1607,6.8948,-5.7500,-3.9458,-0.0102,0.0359,0.0447
4.4100,-0.1125,0.0091,-0.1369,6.8955,-5.7475,-3.9481,-0.0128,0.0435,0.0353
4.4200,-0.1687,0.0821,-0.0682,6.8955,-5.7465,-3.9498,-0.0155,0.0268,0.0104
4.4300,-0.1316,0.1248,-0.0920,6.8949,-5.7470,-3.9501,-0.0151,0.0080,-0.0061
4.4400,-0.0682,0.0907,-0.1463,6.8942,-5.7480,-3.9498,-0.0112,0.0071,-0.0059
4.4500,-0.0784,0.0575,-0.1572,6.8935,-5.7485,-3.9503,-0.0057,0.0210,0.0019
4.4600,-0.1305,0.0799,-0.1627,6.8927,-5.7484,-3.9518,-0.0021,0.0241,0.0051
4.4700,-0.1851,0.1017,-0.1764,6.8924,-5.7485,-3.9522,-0.0063,-0.0110,-0.0053
4.4800,-0.0875,0.0416,-0.1548,6.8927,-5.7496,-3.9500,-0.0067,-0.0380,-0.0185
