time,seconds_elapsed,z,y,x
1759157851032318700,0.023318603515625,0.005631283885240554,0.0766664755731821,-0.04331424106955528
1759157851042378800,0.033378662109375,0.11570903067290782,0.04995908591151237,-0.0046671150282025335
1759157851052438800,0.043438720703125,0.1378618257701397,0.037725627282261844,0.03854629601538181
1759157851062499800,0.053499755859375,0.07028466558158397,0.010771569383144377,0.06577332563698292
1759157851072559600,0.0635595703125,-0.019861615420132876,0.04283317955434322,0.12387743182033299
1759157851082619600,0.07361962890625,-0.13984233206287025,0.09120236592590808,0.16335136407464743
1759157851092680700,0.0836806640625,-0.22924071730673312,0.10273498280942439,0.09048632661104201
1759157851102740700,0.09374072265625,-0.34951895559132096,0.09240589649677276,-0.06735474960952997
1759157851112800500,0.103800537109375,-0.36951135778427124,0.045613165661692615,-0.07577771003991365
1759157851122861600,0.113861572265625,-0.23662688203528523,0.05808335565626621,-0.029024142171442505
1759157851132921600,0.123921630859375,0.00652034167945385,0.039217911666631695,-0.08072218070477247
1759157851142982000,0.13398193359375,0.22328034759759902,0.01587327643632889,-0.061739247815310955
1759157851153042700,0.144042724609375,0.30962665179446336,0.00933539910018444,-0.054902095271646974
1759157851163102700,0.154102783203125,0.3572457504510879,-0.012198971837759018,-0.036170214533805846
1759157851173162800,0.164162841796875,0.3677532620705664,-0.010936989077925681,-0.037025954580307004
1759157851183223800,0.174223876953125,0.419902405372262,-0.039788405030965805,0.0676452569887042
1759157851193283800,0.184283935546875,0.3529138587266207,-0.09762684601545334,0.10278934334516525
1759157851203343600,0.194343505859375,0.2832154686003923,-0.12490648260712622,0.06427987220883369
1759157851213404700,0.20440478515625,0.20260873096883295,-0.263241771107912,0.18318769892305134
1759157851223464700,0.214464599609375,0.09585501403734087,-0.3581166880667209,0.3281953047946095
1759157851233524700,0.224524658203125,0.05550546799227595,-0.2596270877420902,0.35087709220200775
1759157851243585500,0.23458544921875,0.06613967473134398,-0.17718962755203246,0.34145401481837034
1759157851253645600,0.2446455078125,0.14575688986890017,-0.18512334316074847,0.3620540275156498
1759157851263706600,0.25470654296875,0.14956746113300323,-0.16904665310680866,0.48575610276907677
1759157851273766700,0.2647666015625,0.21102292357087135,-0.2773532985687256,0.6627388095721602
1759157851283826700,0.27482666015625,0.18849311185479162,-0.3530360238015651,0.7480678995504975
1759157851293887500,0.284887451171875,0.22581951068639755,-0.35030279944539067,0.7300348147317767
1759157851303947800,0.29494775390625,0.4040684380330145,-0.03369827146232128,0.7953665340811014
1759157851314007800,0.3050078125,0.6275338598739355,0.5974795709371566,0.6284302972570062
1759157851324068900,0.31506884765625,0.7392465874522924,0.6505331157326698,0.2911138206347823
1759157851334128600,0.325128662109375,0.8649644595075399,0.6412877330034971,-0.23012451440393925
1759157851344188700,0.335188720703125,1.0257851360607892,0.6693845311969518,-0.7451908828094601
1759157851354249700,0.345249755859375,1.184909457024932,0.666545508378744,-1.1602692290261387
1759157851364309800,0.355309814453125,1.2812363263577222,0.5324789832383394,-1.3596224653303624
1759157851374369500,0.36536962890625,1.2794728238165378,0.4600251569241285,-0.9795596106544137
1759157851384430600,0.3754306640625,1.3119587968796491,0.4636725735157728,-0.9729659114778041
1759157851394490600,0.38549072265625,1.0991250244945288,0.4780722702682018,-0.7399889302521944
1759157851404551000,0.395551025390625,0.6605144115209579,0.4850561378061771,-0.7824886400684714
1759157851414611500,0.405611572265625,0.6670967125207186,0.4879401688098907,-0.7738757100239395
1759157851424671700,0.415671630859375,0.7295376788645982,0.4562929846584797,-0.7921236066371202
1759157851434731800,0.425731689453125,0.2838789374778047,0.4994090728074312,-0.9236714269548654
1759157851444792800,0.435792724609375,0.27633856856822964,0.5041618202924728,-0.9064414752125739
1759157851454852600,0.4458525390625,0.35863515898287296,0.08263035241365432,-0.965243208271265
1759157851464912600,0.45591259765625,0.35644261737465854,0.09071545919179916,-0.9371084161549806
1759157851474973700,0.4659736328125,0.839866185542941,-0.40701135961711404,-0.6601181056797504
1759157851485033700,0.47603369140625,0.8667612797964364,-0.38059038568139075,-0.4969947051420808
1759157851495093500,0.486093505859375,0.8491115682721138,-0.3689250823289156,-0.45192163770645855
1759157851505154600,0.496154541015625,0.6856558670401572,-0.31660978868007655,0.019364625683426857
1759157851515214600,0.506214599609375,0.656683455055952,-0.3049152592331171,0.06901391499340534
1759157851525275600,0.516275634765625,-0.18452128561437128,-0.08842121077477931,0.8413426878362894
1759157851535335700,0.526335693359375,-0.512066821263358,-0.12191840670704841,1.1926039570502935
1759157851545395700,0.536395751953125,-0.8601210380643606,-0.12035714873969554,1.318278501420468
1759157851555456500,0.54645654296875,-1.2028672115851193,-0.11052198342382907,1.4444104341693222
1759157851565516800,0.556516845703125,-1.2180051594842225,-0.10440437732636929,1.4736822674915193
1759157851575576800,0.566576904296875,-1.551073257946968,0.08380407236814498,1.6419010914720593
1759157851585638000,0.576637939453125,-1.7894594047397374,0.2975865237802267,1.6304342333011328
1759157851595697700,0.58669775390625,-1.8531331277489662,0.44277416239380835,1.4776426955550908
1759157851605757700,0.5967578125,-1.7876058858275412,0.5981365735411643,1.328270172472298
1759157851615818800,0.60681884765625,-1.5899632528334855,0.7508686361849307,1.131255754379183
1759157851625878800,0.616878662109375,-1.3649421990483999,0.7981289845317602,0.7795740677960217
1759157851635938600,0.6269384765625,-1.1208102020800113,0.668468585395813,0.39498394495397804
1759157851645999600,0.63699951171875,-0.8474673081964254,0.4782365209192037,0.13739698473736642
1759157851656059600,0.6470595703125,-0.5997936930984258,0.26750644281506536,0.028734511575102803
1759157851666119700,0.65711962890625,-0.4405524312237277,0.08647942905724049,-0.10728037115409969
1759157851676180500,0.667180419921875,-0.28351006763279435,-0.07680442273914813,-0.25157237610220906
1759157851686240800,0.67724072265625,-0.10162791661666705,-0.25336861186921594,-0.43085809915065765
1759157851696301800,0.6873017578125,0.06958498374647461,-0.4332850340366363,-0.5343754645094275
1759157851706361900,0.69736181640625,0.2556488317608833,-0.48148529358208175,-0.5914109185479581
1759157851716421600,0.707421630859375,0.4335913235068321,-0.4566887059777975,-0.6329711555570363
1759157851726482700,0.717482666015625,0.5716214915812016,-0.35042262643277644,-0.6016796529754996
1759157851736542700,0.727542724609375,0.5892752216935158,-0.286962838435173,-0.5303456244714558
1759157851746602800,0.737602783203125,0.48293081621527667,-0.2967144171208143,-0.479958376275748
1759157851756663800,0.747663818359375,0.1345873158778064,-0.3129150258153677,-0.308594093876332
1759157851766723600,0.7577236328125,-0.031833025579713285,-0.25702888794243334,-0.20145488475859163
1759157851776783600,0.76778369140625,-0.1792494461586699,-0.16573475207984448,-0.17289806783795356
1759157851786844700,0.7778447265625,-0.3157844437718391,0.020823007798194883,-0.11795096438080072
1759157851796904700,0.78790478515625,-0.3825344689538702,0.2005547210484743,-0.01627937301918864
1759157851806964700,0.79796484375,-0.39159105111267417,0.164342420938611,0.06985621103644371
1759157851817025500,0.808025634765625,-0.3888262991070747,-0.012602876463532448,0.12167319977432489
1759157851827085800,0.8180859375,-0.4010661874771118,-0.12099018594622611,0.05933671671822667
1759157851837147000,0.82814697265625,-0.38472061735391616,-0.11237082616090774,0.009681143797934055
1759157851847206700,0.83820654296875,-0.44974520698282866,0.2152688905775547,-0.16272563339173793
1759157851857266700,0.8482666015625,-0.5074749268958345,0.23488193806409835,-0.17608765765950082
1759157851867327700,0.85832763671875,-0.4982744792869314,0.19692893176674842,-0.24127090844884513
1759157851877387300,0.86838720703125,-0.5674667099893093,0.15737316644787788,-0.25965353735759855
1759157851887447300,0.878447265625,-0.495873299896717,-0.029691373908519742,-0.13097411208301782
1759157851897508400,0.88850830078125,-0.33825342867877334,-0.12752046449780463,-0.016792875499278305
1759157851907568000,0.898568115234375,-0.18073183020353317,-0.28243337831199167,-0.05791647465676069
1759157851917628400,0.90862841796875,-0.013003200892731546,-0.3621750235468149,-0.022952128781378266
1759157851927689200,0.918689208984375,0.15091186147928237,-0.33867139836251736,-0.026586393630504607
1759157851937749500,0.92874951171875,0.26860417492389677,-0.3457107954800129,-0.0031365444600582122
1759157851947809300,0.938809326171875,0.3565326337456703,-0.37111703941524027,-0.16672025598585605
1759157851957870300,0.948870361328125,0.3771815270859748,-0.372137614634633,-0.16252397333979607
1759157851967930400,0.958930419921875,0.2824409040313214,-0.36581601039767264,-0.19815102090761064
1759157851977991400,0.968991455078125,0.18231829567737876,-0.31515491369664667,-0.0026829554736614225
1759157851988051500,0.979051513671875,0.13659458231329918,-0.24222704012989996,0.13808818187192082
1759157851998111200,0.989111328125,0.08589198455810547,-0.13458265796899796,0.24552082097828387
1759157852008172300,0.99917236328125,0.06781264944486319,0.008050035464763641,0.3296484262123704
1759157852018232300,1.009232421875,0.07963065914101898,0.178525844591856,0.4851381170012056
1759157852028292400,1.019292236328125,0.13340901107974348,0.2990086655378342,0.6697700233832001
1759157852038353200,1.029353271484375,0.16562654246501624,0.37023791849315163,0.8415928632050752
1759157852048413200,1.0394130859375,0.2020014127254486,0.3664320964694023,0.8183573874376714
1759157852058473500,1.049473388671875,0.19316344175338743,0.2420171967715025,0.6158062318749725
1759157852068534300,1.0595341796875,0.14140293244309723,0.21295418389439583,0.3388992157690227
1759157852078594300,1.06959423828125,0.03322553938403725,0.07235211950540542,0.11670096431970596
1759157852088654300,1.079654296875,-0.1179926846306771,-0.007815057665109634,-0.08059709302037954
1759157852098715400,1.08971533203125,-0.22669738949947058,-0.07260697104930877,-0.28611835043504835
1759157852108775400,1.099775390625,-0.2238331591747701,-0.2406879939943552,-0.5073258372813463
1759157852118836500,1.10983642578125,0.003639087154716253,-0.3649468263477087,-0.7394412332415581
1759157852128896300,1.119896240234375,0.32143443235754965,-0.4117676142334938,-0.9030801820859312
1759157852138956300,1.129956298828125,0.7944974230963736,-0.4101555028617382,-1.0749702419251204
1759157852149017300,1.140017333984375,0.8061398570299149,-0.41234395281672476,-1.0813722179219125
1759157852159077400,1.150077392578125,0.6693393768809736,-0.5008838215351105,-1.1151385861843823
1759157852169137200,1.16013720703125,0.5631096838235855,-0.4918757546931505,-1.0796934710547328
1759157852179198200,1.1701982421875,0.4762764728926122,-0.42226621189415453,-1.0334932992853223
1759157852189258200,1.18025830078125,0.4646610000312328,-0.32684418244659896,-0.881670314310491
1759157852199318500,1.190318603515625,0.46893721604570743,-0.27186346898078917,-0.6399114762142301
1759157852209379300,1.20037939453125,0.41995676590800285,-0.14473580319285392,-0.37613223722875117
1759157852219439400,1.210439453125,0.4089315140247345,-0.14234335509836674,-0.36759631794318554
1759157852229500400,1.22050048828125,0.17004662392958997,0.06837970874309539,0.06945186801925302
1759157852239560400,1.230560546875,0.02778349446058273,0.207433374646306,0.17787950951233505
1759157852249620500,1.240620361328125,-0.10380991856455803,0.4176636865347624,0.2407810791052878
1759157852259681300,1.250681396484375,-0.14318798922896384,0.4654962818115949,0.2617987326927483
1759157852269741300,1.2607412109375,-0.09395487950444222,0.4463531899243593,0.26140505720004437
1759157852279801300,1.27080126953125,0.03400061540976167,0.32552199393212794,0.24666443805545568
1759157852289862400,1.2808623046875,0.20447050625272095,0.14335633153319358,0.18904533891007302
1759157852299922200,1.290922119140625,0.21398075046315787,0.14423019175827503,0.2036946265093982
1759157852309983200,1.300983154296875,0.44498847744241354,-0.15007073448002337,0.12842230870835483
1759157852320043300,1.311043212890625,0.42510662295185025,-0.1639683269292116,0.11226721965596079
1759157852330103300,1.321103271484375,0.3387552041884512,-0.08983692279160022,0.09588862404599785
1759157852340164400,1.331164306640625,0.3388298037946224,-0.08842939408123493,0.10740611642561852
1759157852350224400,1.341224365234375,0.23446225134730336,-0.017084405791759488,0.1250089200682938
1759157852360284400,1.351284423828125,0.07945764066167176,0.11087035847008228,0.24014037004895508
1759157852370345500,1.361345458984375,-0.07076806518435477,0.2092564984202385,0.3833148422092199
1759157852380405500,1.371405517578125,-0.13942147630229593,0.23913024315834044,0.4928699533622712
1759157852390465300,1.38146533203125,-0.2258954985320568,0.25725042173862456,0.5363482989523559
1759157852400526300,1.3915263671875,-0.33934184496998787,0.3616039456605911,0.5357846006549895
1759157852410586400,1.40158642578125,-0.4209902006089687,0.4144166674375534,0.5100980054084211
1759157852420647400,1.4116474609375,-0.4818740006387233,0.3965858271926641,0.3953381652191281
1759157852430707200,1.421707275390625,-0.3937409591555595,0.28298925862908364,0.24698146811537444
1759157852440767200,1.431767333984375,-0.4068202209591865,0.002907411879301071,-0.004758592703938484
1759157852450828300,1.441828369140625,-0.4501788126271218,-0.23457681763768196,-0.32615532339960335
1759157852460888300,1.451888427734375,-0.216151372500509,-0.39022798259854313,-0.5002281341053545
1759157852470948000,1.461947998046875,-0.12509236056804657,-0.4887479780614376,-0.7238435588762163
1759157852481009200,1.472009033203125,0.04605681777596474,-0.5943395193457603,-1.016569052491337
1759157852491069400,1.4820693359375,0.218079344888404,-0.7387965055972338,-1.3804191696435213
1759157852501130200,1.492130126953125,0.3674503336012363,-0.778401370754838,-1.716317450030893
1759157852511190500,1.5021904296875,0.6166575880073011,-0.6831786632716655,-1.9482532516404985
1759157852521250300,1.512250244140625,0.6992611985445022,-0.5494125823825597,-2.0738649599075316
1759157852531311400,1.522311279296875,0.6654315557874739,-0.013724573969841003,-1.9465977395184337
1759157852541371400,1.532371337890625,0.8144504431270062,0.19688918427824972,-1.725197652709484
1759157852551431400,1.542431396484375,0.9491982285298407,0.24054244804382321,-1.5151685624815523
1759157852561492200,1.5524921875,1.1175627445913852,0.2795785734027624,-1.187619300505519
1759157852571552300,1.56255224609375,1.2474131133414805,0.31876492088735103,-0.8083154475033283
1759157852581613300,1.57261328125,1.0697146594844757,0.33657822547554966,-0.72677888167575
1759157852591673300,1.58267333984375,0.711138829473406,0.29314357289671894,-0.6724081168018281
1759157852601733000,1.592733154296875,0.4334555682979524,0.2878209165692329,-0.661963441285491
1759157852611794200,1.602794189453125,0.3964356050670147,0.27316812183856964,-0.7432045312978327
1759157852621854200,1.612854248046875,0.5061912802934646,0.3039811932533979,-0.7648862017519772
1759157852631914500,1.62291455078125,0.5808231812991201,0.20456395668983457,-0.9130022950328885
1759157852641975300,1.632975341796875,0.6105531336523592,0.033623452660441394,-1.1282074727244675
1759157852652035300,1.643035400390625,0.5106583427049219,-0.20802841793000698,-1.4760646325834095
1759157852662096400,1.653096435546875,0.3135727590717375,-0.3187216662675142,-1.8315521411903202
1759157852672156400,1.663156494140625,0.11858560902252793,-0.2959621374487877,-1.9757780951648949
1759157852682216400,1.673216552734375,0.019392098212242127,-0.27716508252024646,-1.9047643846563993
1759157852692277500,1.683277587890625,0.06442132650613784,-0.1902016693383455,-1.6839472123019397
1759157852702337300,1.693337158203125,0.2680580853484571,-0.11720073053538799,-1.2777476074591279
1759157852712397300,1.703397216796875,0.4990075062692165,-0.10504618236124515,-0.9139232092700899
1759157852722458400,1.713458251953125,0.7780138327419758,-0.030709026518464088,-0.6460970329813659
1759157852732518400,1.723518310546875,0.8124011093817651,-0.035168344014883036,-0.6412919707871974
1759157852742579200,1.7335791015625,0.7393582311332225,0.15884733065366743,-0.4491853446103632
1759157852752639200,1.74363916015625,0.4462365778073668,0.2365004791766405,-0.3683823537543416
1759157852762699300,1.75369921875,0.22604747422337532,0.3334749987632036,-0.4277184859506786
1759157852772760300,1.76376025390625,0.042327568119764326,0.49145489893257616,-0.5113454481862485
1759157852782820400,1.7738203125,0.18435235878825187,0.4621779510438442,-0.7246763564385473
1759157852792881200,1.783881103515625,0.5497697252571583,0.493446949532628,-0.8292907232537865
1759157852802941400,1.79394140625,0.899439049104601,0.5608996065586805,-0.9526724805116653
1759157852813001500,1.80400146484375,1.1953154079660773,0.624383359953761,-1.1126000076174736
1759157852823062500,1.8140625,1.3193418928682803,0.437159245121479,-1.4000015297308563
1759157852833122300,1.824122314453125,1.3291662445291876,0.17271861961781979,-1.6966766377545892
1759157852843182300,1.834182373046875,1.3582099681839346,-0.05921732812225818,-1.994254832097888
1759157852853243400,1.844243408203125,1.2434414332315324,-0.33325171140134335,-2.430825755937397
1759157852863303400,1.854303466796875,0.9887313436254859,-0.5786445220857859,-2.761441565877199
1759157852873364200,1.8643642578125,0.5092983063980937,-0.8584259245842695,-3.174831228354573
1759157852883424500,1.874424560546875,0.06527794333547353,-0.9908025969415902,-3.4508716907590626
1759157852893484300,1.884484375,-0.2019837309382856,-0.905699132412672,-3.2764392529606816
1759157852903545300,1.89454541015625,-0.23174159421175716,-0.8397370062053203,-2.9724887471064925
1759157852913605400,1.90460546875,0.38720483538508416,-0.8070096256017685,-1.8627451518334448
1759157852923666400,1.91466650390625,0.7367549167670309,-0.6624398266255855,-1.0752090191170574
1759157852933726500,1.9247265625,0.8306254789888858,-0.6181839207917451,-0.6716274878181516
1759157852943786500,1.934786376953125,1.234915596948564,-0.5953004733324051,-0.14339885550066828
1759157852953847300,1.944847412109375,1.8485095596015453,-0.8118436216294765,0.2979870674051344
1759157852963907600,1.954907470703125,2.3733868356645105,-1.1502134066969156,0.7498655966222286
1759157852973967600,1.964967529296875,3.108282534430921,-1.7876316047906875,0.8079381386235356
1759157852984028400,1.9750283203125,3.65271674387902,-2.484291680926084,-0.09846768075376748
1759157852994088400,1.98508837890625,3.47114933963418,-2.712040698370337,-1.6617926636390388
1759157853004149500,1.9951494140625,2.9779402905106545,-2.5146423955261707,-3.043762131464481
1759157853014209500,2.00520947265625,2.4693714674308893,-2.1876064898997543,-3.736791742143035
1759157853024269300,2.015269287109375,2.1286616951085624,-2.2479507762253284,-4.094638673357665
1759157853034330400,2.025330322265625,1.8051997024461626,-2.8662369883477687,-4.511663477467001
1759157853044390400,2.035390380859375,1.4453566289782522,-3.758364107003808,-5.170562562745809
1759157853054451500,2.045451416015625,0.8223300904609262,-4.470371389874816,-5.901198558241129
1759157853064511500,2.055511474609375,0.22633403607979416,-4.669690431648492,-6.389812680789828
1759157853074571300,2.0655712890625,0.39184009397029873,-4.348931122073531,-6.456886567631363
1759157853084632300,2.07563232421875,1.2279974881231783,-3.6651872261345386,-5.935746724531054
1759157853094692400,2.0856923828125,2.3653519977688786,-2.835098338240385,-4.697873154559732
1759157853104752600,2.095752685546875,3.028314386963844,-2.107078662723303,-3.1994021905094385
1759157853114813400,2.1058134765625,2.898308535391092,-2.072681887602806,-3.1502716643765565
1759157853124873500,2.11587353515625,2.9322306787371635,-1.5532354044169188,-1.7026603883393108
1759157853134934500,2.1259345703125,2.6832033109426496,-1.1455261256635187,-0.5220044971056282
1759157853144994600,2.13599462890625,2.1451449201367794,-1.0080138439834117,0.4856808455757797
1759157853155054300,2.146054443359375,1.1951216389596462,-1.210381751933694,1.2462449463449419
1759157853165115400,2.156115478515625,-0.0482101233523339,-1.4553344176352023,1.9392282336637376
1759157853175175400,2.166175537109375,-1.1575380504965782,-1.6362766757190226,2.615283620926738
1759157853185236500,2.176236572265625,-1.9322201084673403,-1.779536561140418,3.275501095327735
1759157853195296500,2.186296630859375,-2.2730665127813814,-1.751350331097841,3.5151509784460067
1759157853205356300,2.196356201171875,-2.3971868134468792,-1.5835510477036236,3.695261461880803
1759157853215417300,2.206417236328125,-2.267017295745015,-1.0934107385009526,3.867873406253755
1759157853225477400,2.216477294921875,-1.723972494828701,-0.26433950321674343,4.051266564621031
1759157853235538400,2.226538330078125,-0.9435013320624828,0.7210562662452459,4.114719046095013
1759157853245598500,2.236598388671875,-0.6573604044694453,1.6229495766341686,3.842181038853526
1759157853255658500,2.246658447265625,0.23153664622418582,1.6636194406747817,3.0578783351004124
1759157853265719300,2.25671923828125,0.2615139244019985,1.0673089135169982,2.22796874929592
1759157853275779600,2.266779541015625,-0.8590659760534762,0.38589725991785523,1.1037430396839976
1759157853285839600,2.276839599609375,-2.7681267427295446,0.08457096508741378,-0.23751542837284503
1759157853295900400,2.286900390625,-2.0825736054114996,-0.467954196357727,-1.1708826121728866
1759157853305960400,2.29696044921875,-1.5371994847647845,-0.49552083319723605,-1.8885767815738916
1759157853316021500,2.307021484375,-1.5046071287177503,-0.5117611893802881,-2.9813714340031146
1759157853326081500,2.31708154296875,-1.2315974123112856,-0.34942426304519175,-3.031574850064516
1759157853336141300,2.327141357421875,-1.9459476050466298,-0.2505056236535311,-3.102687490902841
1759157853346202400,2.337202392578125,-2.930383589565754,-0.2541431033730507,-2.9979306468769904
1759157853356262400,2.347262451171875,-3.014114596697688,-0.26078970178067684,-2.862338811865449
1759157853366323500,2.357323486328125,-2.5103771392971277,0.6022077685028314,-0.8644945039082318
1759157853376383500,2.367383544921875,-1.9567982310153542,0.6576268733859062,0.0733291295777075
1759157853386443300,2.377443359375,-2.4368852021068332,0.9255337136954068,0.5896002523967996
1759157853396504300,2.38750439453125,-2.727569106891751,0.8664835588335991,0.8808068293489515
1759157853406564400,2.397564453125,-2.23731715400815,0.8520102123230695,1.6794759121067822
1759157853416625400,2.40762548828125,-2.2982100141271946,0.8373872282087802,1.7693132732897996
1759157853426685400,2.417685546875,-2.111212547657639,0.7475316007167101,1.7651789499640465
1759157853436745500,2.427745361328125,-1.9988979817286132,1.074808329361677,1.4828141068436205
1759157853446806500,2.437806640625,-1.706099861268699,1.1193044736921787,1.33334879091084
1759157853456866600,2.447866455078125,-1.6729703296050429,1.116394723725319,1.3678838054582476
1759157853466927600,2.457927734375,-1.7206909889400004,1.6450409969329833,1.363194478598237
1759157853476987400,2.4679873046875,-1.2021993222609162,2.243181077605486,1.2553468289501963
1759157853487047400,2.47804736328125,-0.9023691112071275,2.46221838080585,1.3214521630205214
1759157853497108500,2.4881083984375,-0.8936486291348934,2.45790986995697,1.399111010631919
1759157853507168500,2.49816845703125,-0.6239673264987766,2.5084523087143897,1.493242269616574
1759157853517229600,2.5082294921875,-0.4427779617860913,3.0199300049781796,1.8696721746176481
1759157853527289300,2.518289306640625,-0.4675415239036083,3.492346441441774,1.8627515815742313
1759157853537349400,2.528349365234375,-0.4242547553628683,3.519978544732928,1.5891364466205238
1759157853547410400,2.538410400390625,-0.2728194545313716,3.4909026723742484,1.4563748665988445
1759157853557470500,2.548470458984375,-0.27992928653657434,3.451339308270812,1.2733268684074281
1759157853567531300,2.55853125,0.056629649716615674,3.181981684631109,1.2166314599782229
1759157853577591300,2.56859130859375,0.3307517112791538,2.5315631351888177,0.9701561147540807
1759157853587651600,2.578651611328125,0.48587066905945536,2.114725962606072,0.7408910667236894
1759157853597712600,2.588712646484375,1.1408809302061795,1.4983616584569215,0.2553152158923447
1759157853607772400,2.5987724609375,1.600896734780073,0.9433727372467517,-0.3316157076973468
1759157853617832400,2.60883251953125,2.1028804803811014,0.2546557290703058,-0.993883173430711
1759157853627893500,2.6188935546875,2.3522040546432135,-0.37338615339100356,-1.8919746073186396
1759157853637953500,2.62895361328125,2.570968678382039,-0.7380091546118259,-2.44496197944805
1759157853648014600,2.6390146484375,2.7165394710943103,-1.3050941718071698,-3.064370911990106
1759157853658074400,2.649074462890625,2.7264456558197736,-1.6299030490338802,-3.3389830951571464
1759157853668134400,2.659134521484375,3.2160347608804702,-1.9125445171386002,-3.312903189744055
1759157853678195500,2.669195556640625,3.328216786471009,-1.9951959123402834,-2.9992265319064257
1759157853688255500,2.67925537109375,2.895706828460097,-1.4482026660591363,-2.137043008354306
1759157853698316300,2.68931640625,2.126093159794807,0.5664753608644009,-0.2976481177743524
1759157853708376300,2.699376220703125,1.7415180883914232,1.6821411857932804,0.2840373063772917
1759157853718436400,2.709436279296875,1.7568546276025474,1.6898633044779299,0.2459383888032287
1759157853728497400,2.719497314453125,-0.2872103834554553,4.1842514320045705,1.626404393263161
1759157853738557400,2.729557373046875,-1.153825167453289,4.817639351668953,2.7148282832622526
1759157853748618200,2.7396181640625,-1.538021760933101,4.413668090400099,3.33528307159543
1759157853758678500,2.749678466796875,-1.6721797637492417,3.0828982100665567,3.6918414243042466
1759157853768738600,2.759738525390625,-1.5011780310519038,1.1395219168126582,3.8715781059905883
1759157853778799600,2.769799560546875,-0.5637678554713725,-1.1337637916773557,4.0093177666857835
1759157853788859400,2.779859375,2.9526258165121075,-5.392284574985504,4.4203614505589
1759157853798920400,2.78992041015625,6.0066334476590155,-12.54928866572976,4.571439316254854
1759157853808980500,2.79998046875,3.9130332751899957,-18.044279581952093,5.347314383402466
1759157853819040500,2.81004052734375,1.8700462686270474,-18.156631703412533,6.366389135104417
1759157853829101600,2.8201015625,-1.1950481353320181,-10.592619175660609,6.843645412814617
1759157853839161300,2.830161376953125,-4.7801469486206765,-1.971296565836668,6.438275390663742
1759157853849222400,2.840222412109375,-4.165115354380012,2.806401236066222,5.92937543593347
1759157853859282400,2.850282470703125,-2.891426959183812,5.361403699031472,5.449646630629897
1759157853869342200,2.86034228515625,-3.2213316982448097,6.840820418521761,4.9943496712714435
1759157853879402800,2.87040283203125,-4.559330945309997,7.684784687033295,4.465209477066994
1759157853889463000,2.880463134765625,-4.504369521066546,7.6921835651129475,4.445250100360811
1759157853899524000,2.890524169921875,-5.360293107441067,7.3774769797056905,3.8257474981859323
1759157853909584100,2.900584228515625,-5.264764695009589,6.820497761461138,3.2943811523646116
1759157853919644000,2.910643798828125,-4.433950415450334,6.191376851591468,3.096849286268651
1759157853929705000,2.920705078125,-3.901855463093519,5.4512037969440215,2.709458280661702
1759157853939765000,2.930764892578125,-3.45434491982758,4.533686216443777,2.3549176975160835
1759157853949826000,2.940825927734375,-2.9764462525606152,3.3528152211546898,1.9654813036866485
1759157853959885800,2.9508857421875,-2.6005127527743577,1.490285319507122,1.5572902327656746
1759157853969945900,2.96094580078125,-2.683944484698772,-0.47843759644925593,1.3096373681947588
1759157853980007000,2.9710068359375,-3.5298382599681615,-2.0338234568983315,1.42190882563442
1759157853990067000,2.98106689453125,-4.837698389357328,-3.412861985838413,1.4599854583114384
1759157854000128000,2.9911279296875,-6.503782758840918,-4.869318685501813,0.5000437905143946
1759157854010187800,3.001187744140625,-8.20927033343017,-6.057696110898256,-1.548972340144962
1759157854020248000,3.011248046875,-8.826707819768785,-5.227617159876227,-4.737845683985948
1759157854030308900,3.021308837890625,-6.731994133099914,-3.425044006541371,-6.577911240369081
1759157854040369200,3.031369140625,-3.613191665959358,-2.6049124490380287,-6.415456240612268
1759157854050430000,3.041429931640625,-0.8106605493247508,-2.4380191745728252,-6.185490131640434
1759157854060490000,3.051489990234375,1.5601999827325344,-1.8014251523435114,-5.6406841662704945
1759157854070550000,3.061550048828125,4.946877726000547,1.0296914227843283,-3.5876644259929655
1759157854080611000,3.071611083984375,6.051152972865104,1.818954963815212,-3.0183117561265824
1759157854090671000,3.081671142578125,6.144520992392301,1.8732009332656858,-2.8626991696104405
1759157854100731000,3.09173095703125,5.171626392585039,1.3846335724681615,-2.9156892937809227
1759157854110792000,3.1017919921875,3.749801445841789,0.6333060865998268,-2.673548762890696
1759157854120852000,3.11185205078125,2.5297253983676433,-0.06830255185365676,-2.2123029781304298
1759157854130913000,3.1219130859375,1.5443218839906154,-0.5031657949924468,-1.145958014274761
1759157854140972800,3.131972900390625,0.9708533032380043,-0.8816875577062367,-0.0740471599202603
1759157854151032800,3.14203271484375,0.9243313521683215,-1.1872843694627284,0.8465938863627612
1759157854161094000,3.152093994140625,1.5113072108782828,-0.9079214846372604,1.530463016116619
1759157854171154000,3.16215380859375,2.196978421618044,-0.22117782236039638,1.951604461764544
1759157854181215000,3.172215087890625,2.2636980881944297,-0.23488193806409835,1.942709646038711
1759157854191275000,3.18227490234375,3.277992035360634,1.0445476311326027,1.9486884281873702
1759157854201335000,3.1923349609375,3.137007109133899,0.7145142972558737,0.8020002730071544
1759157854211396000,3.20239599609375,2.240997449956089,0.633313100862503,-0.4857778762094676
1759157854221456100,3.2124560546875,2.2101346941806375,0.6279664791375398,-0.5704635537177324
1759157854231517000,3.222516845703125,-0.13158873685002326,0.8464689448088407,-2.109070859453827
1759157854241577000,3.232576904296875,-0.7512194954492152,0.7127016948759556,-2.735790407270193
1759157854251637000,3.242636962890625,-1.2931086965896188,0.3869306946188211,-3.43963016577661
1759157854261698000,3.252697998046875,-1.6882991239011287,-0.1476683495134115,-3.740937171384692
1759157854271757800,3.2627578125,-1.6458217720471322,-0.16472119112312794,-3.7921994488492605
1759157854281819000,3.27281884765625,-1.8668810825943947,-0.9366887294381856,-4.1484293002560735
1759157854291879000,3.28287890625,-1.651393580830097,-1.7130407664477825,-4.581572003212571
1759157854301939000,3.29293896484375,-0.8835982136331498,-2.1787030524760485,-4.6678702304840085
1759157854312000000,3.303,-0.04645999174937605,-2.5360417419075962,-4.714425645431876
1759157854322059800,3.313059814453125,0.7691878444686532,-2.9252111553639173,-4.576607074281573
1759157854332120800,3.323120849609375,1.9528432097792625,-3.0652368811696764,-4.007039884881675
1759157854342180900,3.333180908203125,3.0604291886270043,-2.979391073840856,-3.2462036891728636
1759157854352241200,3.3432412109375,4.289287969754636,-2.824344889035821,-2.233832380632311
1759157854362302000,3.353302001953125,5.889235733246803,-2.6046236952245234,-0.8925859683394431
1759157854372362000,3.363362060546875,6.459592319458722,-2.727304902997613,-0.42519846595376726
1759157854382423000,3.373423095703125,5.715536870419979,-3.2488428055047986,-0.764650493299961
1759157854392483000,3.383483154296875,4.7577951238200065,-4.049381189265847,-1.435587076244503
1759157854402542800,3.39354296875,4.183296615497768,-4.562790730375052,-2.5162545068979263
1759157854412604000,3.40360400390625,4.622960244655609,-4.305779962611198,-3.578336625677347
1759157854422664000,3.413663818359375,4.647733451384306,-3.7225866911798713,-4.668810141682624
1759157854432724000,3.423723876953125,3.951124813175201,-3.228420195201039,-5.799222869366407
1759157854442785000,3.433784912109375,3.1768519205272194,-2.734253699222207,-6.408580509623885
1759157854452844800,3.4438447265625,2.812699459427595,-1.8321400240808725,-7.203496377328038
1759157854462905900,3.45390576171875,2.548442958319187,-1.7930097906976936,-7.1243977061718695
1759157854472966000,3.4639658203125,0.6369523341476917,-1.2503396683126686,-6.234974585777521
1759157854483026000,3.47402587890625,-1.807757862496376,-1.959405052512884,-4.628470532509684
1759157854493087000,3.4840869140625,-3.393829368588328,-3.1040427049040793,-2.334007157564908
1759157854503147000,3.49414697265625,-4.702395015898347,-4.102317245161533,0.6282311214230955
1759157854513207800,3.504207763671875,-5.470227061843872,-4.1791181607693435,3.147211984544992
1759157854523268000,3.51426806640625,-5.455898092240095,-4.412302062743902,4.568857775329053
1759157854533328100,3.524328125,-5.397904168432951,-5.033977917304635,4.749640166676044
1759157854543389000,3.534388916015625,-5.047116800341009,-4.8704976661533115,4.663213929110765
1759157854553449000,3.544448974609375,-4.459010037904978,-4.168144931334257,4.754772268867493
1759157854563510000,3.554510009765625,-3.5665503262937066,-2.832610613077879,5.428423809859156
1759157854573570000,3.564570068359375,-2.341040124941617,-0.3325444399148226,7.28202806225121
1759157854583629800,3.5746298828125,-1.3087844046272337,1.0741384672760963,7.047534246721863
1759157854593691000,3.58469091796875,1.168409573122859,0.5046978268653154,4.461117239317297
1759157854603751000,3.5947509765625,1.5391877359725534,0.2899479917258024,2.698278714999556
1759157854613811000,3.60481103515625,-0.9641783555187284,0.26417291447818275,0.6890796309437602
1759157854623872000,3.6148720703125,-2.081618204382807,0.2316249820947647,-1.6775480127841234
1759157854633931800,3.624931884765625,-1.6327585845954715,0.1150695637255907,-3.6215158421903846
1759157854643992800,3.634992919921875,-2.1956331444889305,0.47581309316456316,-3.3266414999783036
1759157854654052900,3.645052978515625,-2.1932522407017645,0.4708896652877331,-3.1150878305315968
1759157854664113200,3.655113037109375,-3.660879299807548,1.3879986649870872,-1.8650521136015652
1759157854674174000,3.665174072265625,-4.872786653873324,2.2361656458854675,-1.4285843578755855
1759157854684234000,3.67523388671875,-4.63368154515624,2.8178385758817193,-1.1040431916743516
1759157854694295000,3.685294921875,-4.066469978971779,2.9125007268726826,-1.0045335275869816
1759157854704355000,3.69535498046875,-3.9320916114032265,2.703201558354497,-0.806641742137447
1759157854714414800,3.705414794921875,-3.724188865679502,2.332614680293202,-0.19665581391379236
1759157854724476000,3.715475830078125,-3.8756460860818622,2.2557968135505915,0.7043393055263907
1759157854734536000,3.725535888671875,-3.610291268342733,2.0811966179698707,1.749515516886115
1759157854744596000,3.735595947265625,-3.214406867417693,2.0840701275795697,2.9692095793053506
1759157854754657000,3.745656982421875,-3.417024950736761,2.1209563814282415,3.762349377247691
1759157854764716800,3.755716796875,-3.432605381706357,2.1768372586041687,4.222929245445132
1759157854774777900,3.76577783203125,-2.951991902522743,2.2647709781229493,5.12624762020111
1759157854784838000,3.775837890625,-2.904364182168245,2.8672978955775497,5.4463914282262325
1759157854794898000,3.78589794921875,-2.7587103873476386,3.5937031216353175,4.910752519652247
1759157854804959000,3.795958984375,-2.422253450164199,4.022717054224014,4.284323040823638
1759157854815019000,3.80601904296875,-1.6724547812983392,4.233317952990531,3.8212636307701464
1759157854825079800,3.816079833984375,-0.5064397020965814,4.323580992239713,3.425613038600981
1759157854835140000,3.82614013671875,0.5565229989096522,4.241494829705357,3.229957487770915
1759157854845200100,3.8362001953125,1.3347633338838816,3.6948487894266844,2.52368845629096
1759157854855261000,3.846260986328125,1.7906009759902952,3.2784482546955345,2.289487340097874
1759157854865321000,3.856321044921875,2.577773974482715,2.3922125321656464,1.9405784792289136
1759157854875381800,3.8663818359375,3.685169399194419,1.0335428375154734,0.7776170154441148
1759157854885442800,3.87644287109375,5.375512888404726,-0.4342103321880102,-0.29100349212810395
1759157854895502800,3.8865029296875,6.659864716434479,-1.4588462251484393,-1.0343671595104038
1759157854905564000,3.89656396484375,7.041969598332047,-2.2161633068203925,-2.039536573848128
1759157854915624000,3.9066240234375,7.208855274012684,-3.0224311741441485,-3.438011332403123
1759157854925683700,3.91668359375,6.555120147368312,-4.102468636330962,-4.518262437340617
1759157854935744800,3.926744873046875,4.384617352482676,-5.206213137319684,-4.752472175231576
1759157854945804800,3.9368046875,1.7976121699266134,-5.331883590036631,-4.609971583744883
1759157854955865900,3.946865966796875,0.9033785805106163,-3.7228789521247148,-3.6152047593474386
1759157854965926000,3.95692578125,1.1404863779306411,-1.285668171325326,-2.7030738403216
1759157854975985700,3.966985595703125,1.3733078763335942,0.4698281735360622,-1.8689955905303357
1759157854986046700,3.977046630859375,0.9849933261409402,1.9301625914156435,-0.9759895701479167
1759157854996106800,3.987106689453125,0.4283087069287896,3.4081799655020233,-0.06433554791882634
1759157855006167000,3.9971669921875,-0.4101690929956734,4.590234033095836,1.245372401294112
1759157855016227800,4.007227783203125,-1.5649708503961561,4.94066133570373,2.542062901893258
1759157855026287900,4.017287841796875,-1.783870790952444,4.40143346272707,3.8331454994827507
1759157855036349000,4.027348876953125,-0.6574398263812065,2.963940406730771,5.267116811093688
1759157855046409000,4.037408935546875,-0.5437200698293745,3.000605711305141,5.126445773121715
1759157855056468700,4.04746875,0.6635948418796062,0.5556055918037891,5.742549965029955
1759157855066529800,4.05752978515625,2.049890794602036,-4.0603725388795135,6.225005564948916
1759157855076589800,4.06758984375,3.252307266744971,-12.116432670760155,6.838461288174987
1759157855086649900,4.07764990234375,-0.5379536152571439,-18.302724766433236,7.320829794332385
1759157855096711000,4.0877109375,-4.3444215356945985,-15.503849249696732,8.371076513889431
1759157855106770700,4.097770751953125,-5.669656578254699,-6.488921289795637,7.635919241577386
1759157855116831700,4.107831787109375,-5.005566646334529,0.4244721975058317,5.679471869826316
1759157855126891800,4.117891845703125,-4.134720800638199,4.116946074494719,4.413378167542815
1759157855136951800,4.127951904296875,-3.747231887614727,6.059429218301177,3.981910412061214
1759157855147012600,4.1380126953125,-4.126324143692851,6.814808609908819,3.6800384660467502
1759157855157073000,4.148072998046875,-4.630180259037018,6.487587995365262,3.2558366099148985
1759157855167133000,4.1581328125,-4.991299051529169,5.745592985987663,2.7769030466422437
1759157855177194000,4.168194091796875,-5.206605936029553,4.933336691904068,2.4159525964543223
1759157855187253800,4.178253662109375,-4.953514387536049,4.061666670343279,2.4685446612179276
1759157855197314800,4.188314697265625,-4.498558788961172,3.073969638201594,2.3554735778331755
1759157855207374800,4.198374755859375,-3.74558528945148,2.09729259724617,2.057243203191459
1759157855217435000,4.208434814453125,-3.35121129308939,0.9975053094506263,1.8474445607185364
1759157855227496000,4.218495849609375,-4.623699080324172,-0.9523182602465152,1.2614015989445149
1759157855237555700,4.2285556640625,-5.040161574375629,-1.9849550888329743,0.9651681702736764
1759157855247615700,4.23861572265625,-5.826605966332554,-3.541174477496743,0.4582083898257464
1759157855257676800,4.2486767578125,-5.811560957413912,-4.77863128336072,-0.7361426300875842
1759157855267736800,4.25873681640625,-4.432185743865371,-4.8146910232573745,-2.6277982345849273
1759157855277798000,4.2687978515625,-2.2136118687719106,-3.961569634822011,-4.189581979377568
1759157855287857700,4.278857666015625,-0.12751869266582652,-3.1055759058207273,-5.768142671447992
1759157855297918000,4.28891796875,2.209679790019989,-2.0690818172842262,-6.445205482187867
1759157855307978800,4.298978759765625,3.6554222034454344,-0.9604904607862234,-5.9313856067121025
1759157855318038800,4.309038818359375,4.06791345577836,0.22302315796613692,-4.564888579437136
1759157855328098800,4.319098876953125,3.7195840022325513,1.115372394940257,-2.989158434617519
1759157855338159900,4.329159912109375,2.772102076101303,1.6811398997962474,-1.871975483123958
1759157855348220000,4.339219970703125,1.87227972676754,2.170223393422365,-1.2899673298239707
1759157855358279700,4.34927978515625,1.8880689781822264,2.165923065879941,-1.316759475159645
1759157855368340700,4.3593408203125,-0.3216307586472481,2.303361113280058,-1.2342281992062925
1759157855378400800,4.36940087890625,-1.270475862890482,1.1980150223135948,-1.5923120079167186
1759157855388461800,4.3794619140625,-1.3576093719422817,0.12182663677036762,-2.1492767592445015
1759157855398521900,4.38952197265625,-1.0513866833724081,-0.19681787260770797,-1.8615829761862754
1759157855408581600,4.39958154296875,-0.4034954604506492,-0.20163199489116668,-1.2463221032343803
1759157855418642700,4.409642578125,0.4822853579185903,-0.24787001445293425,-0.4485179667428136
1759157855428702700,4.41970263671875,0.5885432541571557,-0.2638455822199583,-0.4571674294054508
1759157855438763000,4.429762939453125,1.5390404364563524,-0.17956161738038062,0.2745567997179925
1759157855448823800,4.43982373046875,2.516288409167528,-0.06244856512844562,0.30851489116027947
1759157855458883800,4.4498837890625,3.1114462591588494,-0.20308920796215532,0.09734145320281386
1759157855468945000,4.45994482421875,2.889011130213737,-0.3404319782942533,-0.3250222277164459
1759157855479005000,4.4700048828125,2.037942582654953,-0.6341670873433352,-1.0635011917971073
1759157855489065000,4.48006494140625,1.1162791345216334,-0.7479068637698888,-1.6618619294829666
1759157855499125800,4.490125732421875,0.42266427130103107,-0.41883916005492206,-2.012278564566374
1759157855509185800,4.500185791015625,-0.05946706509962678,-0.11638181536793708,-2.4598878920316696
1759157855519245800,4.510245849609375,-0.33387422721385956,-0.07610533455908298,-3.0453020543828604
1759157855529307000,4.520306884765625,-0.4223465836539864,-0.12213760241568088,-3.407539329510927
1759157855539366700,4.53036669921875,-0.3762228381216526,-0.3054582800686359,-3.5408027215749023
1759157855549426700,4.5404267578125,-0.06680252255424857,-0.7785247048735618,-3.5137332206025715
1759157855559487700,4.55048779296875,0.587042348074913,-1.4939391658395529,-3.530873448234796
1759157855569547800,4.5605478515625,1.441934837836027,-2.101367883861065,-3.49194429038167
1759157855579607800,4.57060791015625,2.3515292241215704,-2.391868248772621,-3.414057040841877
1759157855589668900,4.5806689453125,2.840812624233961,-2.654336112898588,-3.6089112121611833
1759157855599729000,4.59072900390625,2.4549381606698035,-2.8386276814103124,-3.8561172097474334
1759157855609790000,4.6007900390625,2.036860924898088,-2.8924329213559625,-4.160244533473253
1759157855619850000,4.61085009765625,3.006458528986573,-3.005100684636831,-3.68797481200397
1759157855629909800,4.62090966796875,4.506703516972065,-3.09807298284471,-2.959237928128242
1759157855639970800,4.630970703125,4.967769707381725,-3.490021213364601,-2.859736520412564
1759157855650030800,4.64103076171875,5.294487048578262,-4.249237991178036,-3.0940549793750045
1759157855660091000,4.6510908203125,5.4138464184522626,-4.972689628127217,-3.7904561123132705
1759157855670151700,4.661151611328125,5.62427897491455,-4.652551080799102,-4.4798108338713645
1759157855680211700,4.671211669921875,5.293517911285162,-3.5453590697050092,-4.72461970718801
1759157855690271700,4.681271728515625,5.096425313389301,-3.507332413649559,-4.7077615113675595
1759157855700332800,4.691332763671875,2.7561352761626243,-2.340425646305084,-5.342483309984207
1759157855710392800,4.701392822265625,1.5253800137639044,-2.034909498569369,-5.314217000442743
1759157855720452900,4.711452880859375,1.2811270207643508,-1.9908739574879406,-5.222783163848519
1759157855730514000,4.721513916015625,-0.7578583489418029,-1.5108084675759077,-4.1735093809768555
1759157855740574000,4.731573974609375,-1.4380010055184362,-1.6141653816759585,-3.2623440921127793
1759157855750633700,4.7416337890625,-2.359728897190094,-2.430928924050927,-2.0810379202768203
1759157855760694800,4.75169482421875,-3.306668387007713,-3.1845161715447903,-0.6218234463378787
1759157855770754800,4.7617548828125,-3.630686990639567,-3.1953041075408457,1.049589716953039
1759157855780814800,4.77181494140625,-3.758902451664209,-3.230923117932677,2.343022092539072
1759157855790876000,4.7818759765625,-4.160353254544734,-3.717141285255551,3.10770619584769
1759157855800935700,4.791935791015625,-4.543465267658234,-4.153285215854645,3.600813245901465
1759157855810995700,4.80199560546875,-4.753757538866997,-4.173136748272181,3.615338322599232
1759157855821056800,4.812056884765625,-4.947721775609255,-4.162957884085178,4.009842082820833
1759157855831116800,4.82211669921875,-4.058391009673476,-3.5970676296323534,4.790988076108694
1759157855841177600,4.832177490234375,-1.796705722606182,-2.6519068399250507,6.351326006007194
1759157855851238000,4.84223779296875,-0.04404533182308078,-1.8152964413076638,5.713641850453615
1759157855861298000,4.8522978515625,0.5835625431351363,-0.9580962591260671,4.097737808416784
1759157855871359000,4.86235888671875,0.8015816092036664,-0.2855383585900068,3.37948403237164
1759157855881418200,4.872418212890625,-0.5687947437226772,0.40375674173533915,3.0318706181406974
1759157855891478300,4.882478271484375,-2.696787599658966,1.1854250053316353,2.2770098435796795
1759157855901539300,4.892539306640625,-3.337780733630061,1.2813292653381825,0.8180354620069265
1759157855911599400,4.902599365234375,-3.3298382501929997,1.3179162439793348,-0.8135414385233074
1759157855921659100,4.9126591796875,-3.313047274389863,1.6751789455652235,-1.648165558694303
1759157855931720200,4.92272021484375,-2.7335370753854513,1.7780536291062832,-1.6611862221784888
1759157855941780200,4.9327802734375,-3.7022044128865,2.252996369177103,-0.7999355224970728
1759157855951840500,4.942840576171875,-5.118710210433602,2.7246184403926135,-0.3197642341230064
1759157855961901300,4.9529013671875,-4.605691422207653,2.829387559378147,-0.20710275445245205
1759157855971961300,4.96296142578125,-3.4608927340358493,2.6003192760288716,0.02827858450114727
1759157855982021400,4.973021484375,-3.0783310482814907,2.2120728226363657,0.5935912582617253
1759157855992082400,4.98308251953125,-3.0871716496020554,2.228818205732107,1.5878595585525035
1759157856002142500,4.993142578125,-2.685353182452917,2.6197002683252095,3.0209722075074907
1759157856012202200,5.0032021484375,-3.1922879745900627,2.6811352724969386,3.4915997147276996
1759157856022263300,5.01326318359375,-3.2648487684100864,2.65979671639204,3.514020513111353
1759157856032323300,5.0233232421875,-3.9993198120236393,3.16689166752696,3.9427202651843425
1759157856042383400,5.03338330078125,-4.062576770925522,3.792150641271472,3.9023505531340836
1759157856052444200,5.043444091796875,-3.602216682958603,4.019392878237366,3.808856569139659
1759157856062504200,5.053504150390625,-2.9534263192400334,4.026042983776331,3.4332775818794965
1759157856072564500,5.063564453125,-1.7858413603730499,3.9212633433967827,2.9534155055850744
1759157856082625300,5.073625244140625,-0.6543921292483806,3.6123365104347465,2.5517016678541897
1759157856092685300,5.083685302734375,0.5638689777582884,3.0148429109722374,2.2084511250078678
1759157856102745300,5.093745361328125,1.4500725515842436,2.3602964679449796,1.7256452503465114
1759157856112806400,5.103806396484375,2.137189577218145,1.8078396955609322,1.4434085636503993
1759157856122866400,5.113866455078125,2.974560000422597,0.9980220268011093,1.1559480778913944
1759157856132926200,5.12392626953125,3.828466986277699,0.1710007097840309,0.49863319306410847
1759157856142987300,5.1339873046875,4.61404277870655,-0.5542606069356203,-0.17760383437611163
1759157856153047300,5.14404736328125,5.345334607762098,-1.1717518692880868,-0.7441529180638492
1759157856163107300,5.154107421875,5.607355897164345,-1.8338713779181242,-1.3253379184126852
1759157856173168400,5.16416845703125,5.417332507002353,-2.6967466831266877,-1.6019813151463864
1759157856183228200,5.174228271484375,5.063807238379121,-3.7951165053397413,-2.09933462446779
1759157856193288400,5.184288330078125,4.0004426785737275,-4.866846157908439,-3.188533590492606
1759157856203349200,5.194349365234375,2.4382673041149974,-5.438680415457487,-4.134105883610248
1759157856213409500,5.204409423828125,2.444386371517181,-5.4389954727560275,-4.110875522409379
1759157856223469300,5.21446923828125,1.3989602039843796,-4.879322777643799,-3.9416228253364562
1759157856233529300,5.224529296875,1.1516641900271176,-2.805893871065974,-2.5301181970775124
1759157856243590400,5.23459033203125,1.215205080436915,-0.21352292369306086,-1.5865012758113444
1759157856253650400,5.244650390625,1.0514227775990963,1.9034049328714608,-0.8935693533536047
1759157856263710200,5.254710205078125,0.7476699862740933,3.6633489047914742,-0.1570060867011547
1759157856273771300,5.264771240234375,0.17216610030159354,5.288550059744716,0.8258609680008143
1759157856283831300,5.274831298828125,-0.1457280291005969,6.410978802937269,1.7347260901637374
1759157856293891300,5.284891357421875,0.18436857927069067,6.41728053342998,2.8881057058066126
1759157856303952100,5.2949521484375,0.7978546976350247,5.338669304654002,4.563144073857367
1759157856314012400,5.305012451171875,1.4853845418535172,2.7836528131633997,6.0803673769116395
1759157856324072400,5.315072509765625,3.1675475010871885,-2.7260294762343165,6.627050242069363
1759157856334133500,5.325133544921875,2.5485861661821603,-10.978362706321477,7.732230328819155
1759157856344193300,5.335193359375,-2.505325701126456,-18.203702082145213,8.444834408539533
1759157856354253300,5.34525341796875,-5.9818245850950476,-17.03979858826995,8.195549266591668
1759157856364314400,5.355314453125,-5.9633612921655175,-8.626013982510566,6.666355247497558
1759157856374374400,5.36537451171875,-4.893031569522619,-0.8432119888395071,5.093513225334882
1759157856384434200,5.37543408203125,-4.006234121456742,2.925890369799733,3.9190526816099878
1759157856394495200,5.3854951171875,-4.490854790455103,5.618139156985283,3.744312785297632
1759157856404555300,5.39555517578125,-5.103935835149884,5.07675089110434,2.9133567591801284
1759157856414615300,5.405615234375,-5.1497915773957965,4.259995532035828,2.387739916796237
1759157856424675300,5.41567529296875,-4.864074355107546,3.4106939941495655,1.9645728105396032
1759157856434736000,5.425736083984375,-4.637679674881697,2.5416163271695376,1.4462638069510458
1759157856444796400,5.43579638671875,-4.346320062792301,1.8095804017484187,1.0838491294294594
1759157856454856400,5.4458564453125,-3.725138421489298,1.1173813966751098,1.1612328864265233
1759157856464917500,5.45591748046875,-3.246281430584192,0.650441345795989,1.3151280745655298
1759157856474977300,5.465977294921875,-3.0841321357756852,0.29248657029271125,1.430579769476503
1759157856485037300,5.476037353515625,-3.309671075955033,-0.46844227213561535,0.9026986354224383
1759157856495098400,5.486098388671875,-4.026732135084271,-1.5236872383713722,-0.025394188171252607
1759157856505158400,5.496158447265625,-4.455868817269802,-2.4306278952777385,-1.1641888136226684
1759157856515218200,5.50621826171875,-4.462392081558704,-2.8630963522344826,-2.6319135609492657
1759157856525279200,5.516279296875,-3.9488393325865268,-2.8120366116046904,-4.042510134452582
1759157856535339300,5.52633935546875,-2.418379239079356,-2.082045343753695,-4.653514665134251
1759157856545399600,5.536399658203125,-0.8172691538095473,-0.861806214672327,-4.386871561150253
1759157856555459300,5.546459228515625,0.4108084138125181,0.36862405355572697,-3.8212601236388086
1759157856565520400,5.556520263671875,1.645381188672781,0.9270300897330045,-3.4723663142085073
1759157856575580400,5.566580322265625,2.6975907327353954,1.1459411362051963,-2.995107698410749
1759157856585640400,5.576640380859375,2.8329765237808227,1.1437433338999747,-2.971388969171047
1759157856595701200,5.586701171875,2.9110850148558614,1.2545067248642443,-2.1979957819670437
1759157856605761300,5.59676123046875,2.1534464461445806,1.2516764698743819,-1.2842758401840924
1759157856615821300,5.6068212890625,1.2206243290066718,1.272711659118533,-0.8971250730738043
1759157856625881300,5.61688134765625,0.5297791496951133,0.9500012154757976,-0.7378269299127161
1759157856635942100,5.626942138671875,-0.10983166307210922,0.1823240678310394,-1.0994397164668888
1759157856646002200,5.637002197265625,-0.42464346241950984,-0.4713245495736599,-1.801263532041013
1759157856656062500,5.6470625,-0.2779730379022658,-0.813489635270834,-1.9976561649739741
1759157856666123300,5.657123291015625,0.05099705065712332,-1.0352578247398136,-1.7731670261085033
1759157856676183300,5.667183349609375,0.4965710729025304,-1.0490829364746808,-1.4007717834509907
1759157856686243300,5.677243408203125,1.1914356439232825,-0.8074713978946209,-0.8305787172377109
1759157856696304400,5.687304443359375,1.8271571211017668,-0.37991760098636146,-0.029584990924596783
1759157856706364400,5.697364501953125,2.3821290911771356,0.08926116873025894,0.27854937648549677
1759157856716424200,5.707424072265625,2.568749248766899,0.4348416158288717,0.04623728890940547
1759157856726484200,5.717484130859375,2.4359694024361667,0.6523655918568372,-0.3707335930556059
1759157856736545300,5.727545166015625,1.992264535063505,0.7605652698129415,-0.989391268838942
1759157856746605300,5.737605224609375,1.466792361847311,0.6400012003242969,-1.6014147673048078
1759157856756665300,5.747665283203125,1.0144166967630386,0.33039749101400373,-2.087679696378857
1759157856766726100,5.75772607421875,0.708839320359379,0.07218143911361694,-2.415496815510839
1759157856776786400,5.767786376953125,0.31629429299011824,-0.3545259700983763,-2.7154236188068985
1759157856786846500,5.777846435546875,0.04547229588627815,-0.5436047728866339,-2.7833210969910023
1759157856796906200,5.78790625,-0.35393867172971366,-0.66996613047719,-2.878015104424953
1759157856806967300,5.79796728515625,-0.979041578129679,-0.7511433614730835,-3.181303054717183
1759157856817027300,5.80802734375,-1.123554970743507,-0.9653782328277826,-3.5678596553266044
1759157856827087400,5.81808740234375,-1.0561144425466655,-1.3566560167402029,-3.910771759998798
1759157856837148400,5.8281484375,-0.6209028243616223,-1.9142530746221542,-4.246559127357602
1759157856847208200,5.838208251953125,0.6552545912966132,-2.438672085523605,-4.56082469099909
1759157856857268200,5.848268310546875,2.601157480418682,-2.8263842859089374,-4.575766531804204
1759157856867328500,5.85832861328125,4.223856297162175,-2.993320230472088,-4.180312923511862
1759157856877389300,5.868389404296875,5.889461358696222,-2.873446481335163,-3.283835208430886
1759157856887449300,5.878449462890625,6.062576868677139,-2.9096605350106954,-2.9719401733130213
1759157856897509400,5.88850927734375,6.14592150683999,-3.1805724023550748,-2.585269298674166
1759157856907569200,5.898569091796875,5.917665708917379,-4.082408429598808,-2.5096961712956425
1759157856917630200,5.908630126953125,4.963627785271406,-5.055321149584651,-3.118202163159847
1759157856927690200,5.918690185546875,4.389315154910087,-4.921127198672294,-3.637735740107298
1759157856937750300,5.928750244140625,4.307581459075212,-4.026298419842123,-4.029598045909404
1759157856947811000,5.93881103515625,3.5736394077718256,-3.3218875834494828,-4.9071810909062625
1759157856957871000,5.94887109375,2.4502127395831046,-2.9692934581965207,-5.91894990350902
1759157856967931400,5.958931396484375,1.8061001584172247,-2.3495500330030916,-6.319943610271811
1759157856977991400,5.968991455078125,1.5781003810822962,-2.311076217702031,-6.234657774913311
1759157856988052200,5.97905224609375,1.4178151265799999,-1.5182120218306778,-5.968847614622116
1759157856998112300,5.9891123046875,1.1312170298039912,-1.0646955161482095,-5.357290418493747
1759157857008172300,5.99917236328125,0.047388363207248034,-1.1830337262809276,-4.444064982229471
1759157857018232300,6.009232421875,-1.8634587069302797,-2.047342279163003,-3.462214338028431
1759157857028293000,6.019293212890625,-4.003361196368933,-3.6301609209388492,-2.324261570228636
1759157857038353200,6.029353271484375,-5.64680878663063,-4.689239181727171,-0.630121172953397
1759157857048413200,6.0394130859375,-6.1054334291070695,-4.534640156167745,1.7091726928427815
1759157857058473500,6.049473388671875,-5.6737219279974695,-4.444522662869096,3.1186426004037258
1759157857068534000,6.059533935546875,-5.840655534473061,-4.796116671168804,3.3086484549090263
1759157857078594300,6.06959423828125,-5.472040833267569,-4.868762220662832,3.504351644273102
1759157857088654300,6.079654296875,-4.2287487453788515,-4.439902017331123,3.9891614061027765
1759157857098715400,6.08971533203125,-3.02990662459135,-3.249937615004182,5.584373665505647
1759157857108775200,6.099775146484375,-1.7468834148168564,-1.8181781342238186,6.104514560696482
1759157857118835200,6.109835205078125,-1.4980628216408192,-0.9023544981598853,4.1103608508855105
1759157857128895200,6.119895263671875,-1.072726408521086,-0.4806225392729044,1.9822772479258477
1759157857138956300,6.129956298828125,-1.0520037923574448,-0.3113414928883314,0.7088045413069427
1759157857149016000,6.14001611328125,-0.8430379474468529,0.2104886705636978,0.6528451190020889
1759157857159076000,6.150076171875,-1.5495283665925264,0.07970131322443484,-1.6265701052188872
1759157857169136400,6.160136474609375,-3.9661961255788802,0.7505366277515888,-2.035388368127495
1759157857179197200,6.170197265625,-5.277217349347472,1.635395801231265,-1.228420535840839
1759157857189257200,6.18025732421875,-4.859409285905957,2.436507016444206,-0.21057021136730908
1759157857199317200,6.190317138671875,-4.650207148021459,2.9780554413229225,-0.11336655919998884
1759157857209377300,6.200377197265625,-5.011504219689965,3.6740333804130554,0.16126776273362337
1759157857219438300,6.210438232421875,-5.0546325827986,3.6586037560909985,0.2311956507667899
1759157857229498000,6.220498046875,-4.75544856069386,3.652161155822873,0.576249078316614
1759157857239558100,6.23055810546875,-3.710691962985694,3.690115915685892,2.1881135626390575
1759157857249618200,6.2406181640625,-3.2860487928271294,3.7391304142236708,3.0198931800991295
1759157857259679200,6.25067919921875,-3.3040047207564114,3.549606205755472,3.475567448337376
1759157857269739300,6.2607392578125,-3.071554978275299,3.2478859431713816,3.9363592057198282
1759157857279799300,6.27079931640625,-3.3709909293144937,3.3809675489276647,4.529442003002763
1759157857289859300,6.280859375,-3.2092440778270364,3.4904806475698944,5.052765619882941
1759157857299920400,6.29092041015625,-3.282309898559749,3.5577941883862017,5.0332987028688185
1759157857309980200,6.300980224609375,-3.2309482523739335,3.7345243817329403,4.909794488275051
1759157857320040200,6.311040283203125,-2.6964170127809046,3.8025107072442768,4.553029799339175
1759157857330100200,6.321100341796875,-1.8653525578528642,3.635760056120157,4.0094516221985215
1759157857340161300,6.331161376953125,-0.531892123261094,3.3356478132545946,3.7879640032365915
1759157857350221000,6.341220947265625,0.5271826303958892,2.7888381068468093,3.5389839817151425
1759157857360281300,6.35128125,0.5820610525310039,2.805394104850292,3.4989480316638946
1759157857370341400,6.36134130859375,1.6737274315826594,2.211249815815687,3.1288498139023777
1759157857380402400,6.37140234375,2.727521176096797,1.4422194999963045,2.3170099916651843
1759157857390462200,6.381462158203125,3.9989036324381826,0.34605274078547954,1.7881325400501489
1759157857400522200,6.391522216796875,5.539604549452662,-1.0110632946819067,1.1493286597516388
1759157857410582300,6.401582275390625,6.677142598971724,-2.1472686342924834,0.32328619770407674
1759157857420642000,6.41164208984375,7.389184368634224,-2.8594582879930734,-0.8499113403476775
1759157857430703000,6.421703125,7.937831227341293,-3.3952480032145975,-2.29169566379711
1759157857440763100,6.43176318359375,7.891557551944255,-3.896577814951539,-3.429460653939843
1759157857450823400,6.441823486328125,6.491334196156263,-4.529504546844959,-4.839008595173061
1759157857460883200,6.45188330078125,3.9284593923807143,-4.82603776217997,-6.165120712828636
1759157857470944300,6.4619443359375,0.5457543521359562,-4.600108361378312,-6.614111850041151
1759157857481004300,6.47200439453125,-0.7238701546221971,-3.2916806612342593,-4.814251170535385
1759157857491064300,6.482064208984375,0.5509332160785794,-1.4373855039685963,-2.6826459693208333
1759157857501124000,6.4921240234375,0.9856738557510077,0.20531682088375092,-1.9101207971230147
1759157857511185200,6.50218505859375,0.40783436643779275,2.0432535485446452,-1.0555926106296478
1759157857521245200,6.5122451171875,-0.09634440498948096,3.7496781117230653,-0.4729134262003004
1759157857531305200,6.52230517578125,-1.050071070729196,5.369079055964947,0.27589681615009903
1759157857541365200,6.532365234375,-1.8181228969052432,6.732196377673745,1.3327740597628057
1759157857551425300,6.54242529296875,0.2398503741264343,6.150094408610463,3.5361283000230785
1759157857561486300,6.552486328125,2.081881969885528,3.3387983862400055,4.680812714165449
1759157857571546400,6.56254638671875,4.657358773341775,-2.3552649035185573,5.539840696296095
1759157857581606100,6.572606201171875,3.5122710390955207,-10.99766011198759,6.9859928595662115
1759157857591666200,6.582666259765625,-4.817846272417903,-18.38286037942171,7.868799776691198
1759157857601727200,6.592727294921875,-6.561045445764065,-18.50950756821632,7.305980600246786
1759157857611787300,6.602787353515625,-4.554789210227131,-10.527202992898225,6.2815481209039685
1759157857621847000,6.612846923828125,-4.00659243337512,-1.1095604937911032,6.048959846735
1759157857631907300,6.6229072265625,-3.4207302349954842,3.5508939074784514,5.900067508384585
1759157857641967400,6.63296728515625,-3.295442644116282,5.820708724987506,5.210606988364458
1759157857652028400,6.6430283203125,-3.52801338262856,6.497609623163938,5.00535914106369
1759157857662088200,6.653088134765625,-3.8349575173407793,6.343326239424943,4.344800013618171
1759157857672148200,6.663148193359375,-4.591174528816342,5.958042727491259,3.6574747520610686
1759157857682208300,6.673208251953125,-4.75796609647274,4.956147658649087,2.8264316321820018
1759157857692269300,6.683269287109375,-4.660111871442198,4.96880489564836,2.7631132984817026
1759157857702329000,6.6933291015625,-4.388481042173504,2.621930219334364,1.774437776696682
1759157857712389000,6.70338916015625,-4.422967249143124,1.7055372589498756,1.5284611747749148
1759157857722449400,6.713449462890625,-4.149175442448258,0.6955828022927045,1.5547161444939672
1759157857732509200,6.72350927734375,-3.870855929195881,-0.34988311272859574,2.044768044760823
1759157857742570200,6.7335703125,-3.853594413271546,-0.34958851369619365,2.006733205398917
1759157857752630300,6.74363037109375,-3.7672441635519265,-1.1432172641992568,2.302246576166898
1759157857762690300,6.753690185546875,-3.8403947399586436,-1.780772824937105,2.1426292840540406
1759157857772750000,6.76375,-4.1884307635158295,-2.551152217277884,1.3028382095739244
1759157857782810000,6.77381005859375,-4.987024442949891,-3.718566349622607,-0.25352709036655724
1759157857792871200,6.78387109375,-4.968482239565253,-4.270653119650483,-2.3461036919414995
1759157857802931200,6.79393115234375,-4.047597812980413,-3.673095222780108,-4.079434674485028
1759157857812991200,6.8039912109375,-2.8766344637215138,-2.6485195355743167,-5.100252762722969
1759157857823051300,6.81405126953125,-1.3914204561293124,-1.6181570816606283,-5.465597648477554
1759157857833111300,6.824111328125,0.028227767629362643,-0.4556944342434406,-5.2205672413647175
1759157857843172400,6.83417236328125,1.9692144988656042,0.8133505190610885,-4.369763482221961
1759157857853232000,6.844232177734375,3.350498176383972,1.6798194648474454,-3.3567280106842516
1759157857863292200,6.854292236328125,3.246572522485256,2.1656442489385603,-2.82365632224977
1759157857873352200,6.864352294921875,2.1082171652339396,2.654008196118474,-2.220691013377905
1759157857883412000,6.874411865234375,1.770705896691978,2.628776139706373,-1.5651694417081772
1759157857893473000,6.88447314453125,1.390734081300348,2.164456500458717,-1.2802613438457249
1759157857903532800,6.89453271484375,0.47547217077240345,1.1753572003036736,-1.5780325765430927
1759157857913592800,6.9045927734375,0.06372808354496956,-0.1949427263855934,-1.6888436060413716
1759157857923652900,6.91465283203125,0.31339740250483156,-1.2149404381513595,-1.5934684844754636
1759157857933712600,6.924712646484375,1.919470663139969,-1.5637503686904906,-0.5623632493704557
1759157857943773700,6.934773681640625,2.6872224834561345,-1.2084089905560016,-0.02636106044203043
1759157857953833700,6.944833740234375,3.4140625937998292,-0.556708000087738,0.4736613219581544
1759157857963894000,6.95489404296875,3.559402792626619,-0.11584230166375636,0.5898746488913893
1759157857973953800,6.964953857421875,3.04768076621294,-0.14519231478869915,-0.28761194999366996
1759157857984013800,6.975013916015625,2.0028443812668324,-0.181431502905488,-1.2153108788989484
1759157857994073900,6.985073974609375,1.9853459878467021,-0.19413199452459812,-1.3048507184401155
1759157858004135000,6.995135009765625,-0.1351170571066439,0.25961715086996556,-2.552087452301383
1759157858014194700,7.005194580078125,-0.7448154736258089,0.2896341034710407,-3.248456436535716
1759157858024254700,7.015254638671875,-0.7156827565133571,0.26742460975050925,-3.3302009460255504
1759157858034314800,7.025314697265625,-0.4929366619229316,-0.7101882507503032,-4.359282127957046
1759157858044374800,7.035374755859375,-0.33899332379326225,-1.3247329382568598,-4.3339980490967625
1759157858054435800,7.045435791015625,0.2906102550268173,-2.120177798271179,-4.179281826898455
1759157858064495900,7.055495849609375,0.9533186694607138,-2.9289205312758684,-4.136077768205106
1759157858074556000,7.065555908203125,1.109825866729021,-3.4447570072710514,-4.199724895468354
1759157858084615700,7.07561572265625,1.354611651431024,-3.5942356210768223,-4.130198939299583
1759157858094675700,7.08567578125,1.6605439787521958,-3.425090768292546,-4.013245461523533
1759157858104736800,7.09573681640625,1.8685554455474018,-3.118530079939961,-4.245095484545827
1759157858114796800,7.105796875,2.304334926748276,-2.9546120218932628,-4.354327135898172
1759157858124856800,7.11585693359375,2.3045383403658866,-2.958379265472293,-4.369287096881866
1759157858134916900,7.125916748046875,3.0930069316267965,-2.792642759826779,-4.123906853418052
1759157858144977000,7.135976806640625,4.121826247751713,-2.683131414750218,-3.855903274735808
1759157858155037000,7.146036865234375,5.477805972665548,-2.9328987872570753,-3.3180703632488844
1759157858165097700,7.15609765625,6.27852263560295,-3.7139404433876275,-3.170020028680563
1759157858175157800,7.16615771484375,6.130010821002721,-4.585383670455217,-3.8397742699727413
1759157858185217800,7.1762177734375,5.554451989972591,-4.313775053018332,-4.3633731966629625
1759157858195277800,7.18627783203125,4.5806431979298585,-3.0086358730256557,-4.610051078721881
1759157858205337900,7.196337890625,3.6264170582354067,-1.7856699493288992,-4.65240611937046
1759157858215398000,7.20639794921875,2.373707299790531,-1.0014981784790753,-4.921779525101185
1759157858225459000,7.216458984375,0.9500490732055157,-0.7840478522092104,-5.517548784989118
1759157858235519000,7.22651904296875,-0.3082522947013378,-1.0654875433087347,-6.178557702028751
1759157858245578800,7.236578857421875,-1.4009972627699374,-1.5113719466775655,-6.0795320951312775
1759157858255638800,7.246638671875,-2.2516057916015386,-2.056534470400214,-4.640076799151301
1759157858265698800,7.25669873046875,-3.4108301877498626,-3.384111107650399,-2.6550106511592864
1759157858275758800,7.2667587890625,-4.631194989037513,-4.674126952791214,-0.7567690924003719
1759157858285819600,7.276819580078125,-4.894090138664842,-4.417731102055311,1.4441858316332101
1759157858295880000,7.2868798828125,-5.042413737216592,-4.362569186803698,3.181608759665489
1759157858305940000,7.29693994140625,-5.275237573707104,-5.344930703136325,4.041918598300218
1759157858315999700,7.306999755859375,-4.513904826653003,-5.975252220967412,5.114430341157317
1759157858326059800,7.317059814453125,-2.9864088436484337,-4.678121575385332,6.622522535511851
1759157858336119800,7.327119873046875,-0.46551396359875796,-1.9985300251990556,9.395904130029678
1759157858346180900,7.337180908203125,0.3149620214730501,-0.011631401082873343,10.318350983625649
1759157858356240600,7.34724072265625,0.23426073742583392,-0.017115969973802565,10.433818606758116
1759157858366301000,7.357301025390625,0.03268661020174622,0.4601245256453752,5.211977692195773
1759157858376361000,7.36736083984375,-0.08764891122803091,0.607742021754384,2.942427663102746
1759157858386420700,7.377420654296875,-1.7997224400788545,1.1202210040152072,0.34826376789845526
1759157858396480800,7.387480712890625,-2.685069689336419,1.1158154625326395,-2.429680239164084
1759157858406540800,7.397540771484375,-2.0284376722067594,0.8542220431536436,-3.101782651017606
1759157858416601900,7.407601806640625,-2.84834886495769,1.5417635778099297,-2.299505606895685
1759157858426661600,7.41766162109375,-4.330019500854611,2.206803942322731,-1.9084972875744104
1759157858436722000,7.427721923828125,-4.854451955759525,2.6917940291553735,-1.2985026645876467
1759157858446782000,7.437781982421875,-4.593607016660273,3.118972563010454,-0.4509326997343451
1759157858456841700,7.447841796875,-4.144892066040635,3.1405759075313804,0.02476078563854098
1759157858466901800,7.45790185546875,-3.717747434455156,3.0186154152482745,0.3117113491140306
1759157858476962800,7.467962890625,-3.0484564267605543,2.9180004933327437,1.2461851789817213
1759157858487022800,7.47802294921875,-2.577488143278658,2.869700865066051,2.4751196556940673
1759157858497082600,7.48808251953125,-2.5287536307260394,3.098565734797716,3.795595228767395
1759157858507142700,7.498142578125,-2.889998387685418,3.110950584596395,4.431587485711276
1759157858517203000,7.508202880859375,-2.990727291369438,3.0823481749683617,4.446204040084779
1759157858527263000,7.518262939453125,-3.218886058658361,3.0194232244998216,4.581318320712447
1759157858537322800,7.52832275390625,-3.7432653220713137,2.999868044680357,4.576857541911304
1759157858547383800,7.5383837890625,-4.4083620929464695,3.3371512035548685,4.526205797560513
1759157858557443800,7.54844384765625,-4.475406461432576,3.822637549471855,4.202918138551712
1759157858567504000,7.55850390625,-3.957675257731974,3.9641087979108094,3.3812241540372368
1759157858577563600,7.568563720703125,-3.11416837759912,4.0257939774513245,2.4892139397591353
1759157858587624000,7.5786240234375,-2.192280911451578,4.119268964484334,1.7596521493665873
1759157858597684000,7.58868408203125,-1.1902496490091086,3.702673199442029,1.3754384586215018
1759157858607743700,7.59874365234375,-0.016941782450675964,3.480597551459074,1.1838106289375572
1759157858617804800,7.6088046875,1.1881500463813544,3.1432968569278716,0.8935636542651801
1759157858627864800,7.61886474609375,2.672083951035142,2.5080945813179016,0.7786934125039726
1759157858637924900,7.6289248046875,3.8433141345366835,1.5491238774448632,0.5148997796669602
1759157858647984600,7.638984619140625,5.399930705824494,0.0908271028727293,-0.19094649635627864
1759157858658045000,7.649044921875,7.747873888152838,-1.8581021483331919,-1.3667936721339822
1759157858668105000,7.65910498046875,9.612007133343814,-4.168286385631561,-2.8663515546381473
1759157858678164700,7.669164794921875,9.714636902213096,-6.61953972030878,-3.9663668059706687
1759157858688224800,7.679224853515625,6.585303104186058,-8.635044845706224,-5.719654242610931
1759157858698285800,7.689285888671875,2.0253829608112572,-8.767164328432083,-7.087398639598488
1759157858708345900,7.699345947265625,0.7787485767573118,-2.168570950040221,-1.9956458480648696
1759157858718405600,7.709405517578125,0.7731120321750641,-2.172351637622714,-1.9728867576375602
1759157858728466000,7.7194658203125,0.5393278262197971,2.2168594723910093,-0.23314831920452414
1759157858738526000,7.72952587890625,-0.04752396771907806,4.055079693168402,1.0339393625523894
1759157858748585700,7.739585693359375,-0.5355272648930549,5.507309715047478,2.2447113559126852
1759157858758645800,7.749645751953125,-0.7048727548159659,6.166854404753447,3.435042545725405
1759157858768705800,7.759705810546875,-0.6190310391403734,6.39370676561892,4.282852968271077
1759157858778766800,7.769766845703125,-0.5546425919905305,5.618526110476255,4.843742637957632
1759157858788826600,7.77982666015625,-0.25131314064413307,3.7135879766881463,4.943004683959484
1759157858798886700,7.78988671875,1.1142249784708023,0.25759996582865713,4.978332602450251
1759157858808947000,7.799947021484375,4.954583478072285,-6.494531530892848,4.684564760175347
1759157858819007000,7.810007080078125,2.01927938323915,-15.5293835039258,4.0964983297497035
1759157858829066800,7.820066650390625,-4.448508517634869,-18.913206442284583,4.654049502663314
1759157858839126800,7.830126708984375,-5.028844061547518,-13.50463708745241,6.007492694836855
1759157858849186800,7.840186767578125,-4.522957317158579,-3.916291984724998,5.73453850800991
1759157858859246800,7.850246826171875,-3.3509394904106853,1.9864894587934017,4.712416643697023
1759157858869307600,7.8603076171875,-2.140520475206524,4.878319738081097,4.279389091552794
1759157858879368200,7.8703681640625,-2.3759425114966928,6.3586617557227605,4.293306850007176
1759157858889428200,7.88042822265625,-3.7047108427494764,6.520566135859489,4.569907284381985
1759157858899488300,7.89048828125,-4.766184474241733,5.958351939570903,4.5490565117940305
1759157858909548300,7.90054833984375,-4.710867076167464,5.9676692184925075,4.493047332063317
1759157858919608300,7.9106083984375,-5.511839759692549,4.9252001471996305,3.644838557849824
1759157858929668000,7.920668212890625,-5.4459495296776295,3.7817391373723743,2.989289367520809
1759157858939728400,7.930728271484375,-4.9715579937487835,2.7160218769609927,2.48818839610368
1759157858949788400,7.940788330078125,-4.782151274180412,1.76269180932343,2.054802678171545
1759157858959849200,7.95084912109375,-4.44395450759232,0.9963111312299966,1.7872087032034991
1759157858969909200,7.9609091796875,-3.93368910972774,0.23475626585781573,1.862582654748112
1759157858979969300,7.97096923828125,-3.8589913038790224,-0.6146990012854338,2.150569575534016
1759157858990029300,7.981029296875,-4.194880378046632,-1.8545359802842138,1.885754125368595
1759157859000089000,7.991089111328125,-4.829404023742676,-3.5774218489199874,0.883013253352046
1759157859010149000,8.001149169921876,-5.248959223112464,-4.964435594522953,-0.6061882895063608
1759157859020209400,8.01120947265625,-4.2092473415732385,-5.304075545656681,-2.2419486132010817
1759157859030269200,8.021269287109375,-2.5897148799061775,-4.417753313887119,-4.181849631559849
1759157859040329200,8.0313291015625,-0.46702948272824285,-3.3213486542671915,-5.17311575435996
1759157859050390300,8.041390380859376,1.4790531468749046,-1.8639917908936738,-5.3051405445396895
1759157859060450300,8.0514501953125,3.445861753642559,-0.13380582837760446,-4.898075993430615
1759157859070510000,8.061510009765625,4.376095607852935,1.282888769739866,-4.068150479404628
1759157859080570000,8.071570068359375,4.411947842478752,2.110681071129441,-3.3119898742914198
1759157859090630400,8.08163037109375,1.5032032532691955,3.053488575708866,-1.4241767705664037
1759157859100690200,8.091690185546875,0.38231355621218677,2.9151316598981616,-0.510120509501174
1759157859110750200,8.101750244140625,-0.2559282332241535,2.395755319339037,-0.007144026535749435
1759157859120810200,8.111810302734375,-0.5282394459724425,1.5923334890961647,-0.13577471729777751
1759157859130870300,8.121870361328124,-0.9199205499887466,0.8802034566283226,-0.4921323598027229
1759157859140930000,8.131929931640625,-1.0163561403930186,0.31891514301300045,-0.6646012424431741
1759157859150990300,8.141990234375,-0.6228665256500244,-0.15669453653395174,-0.6429459485393018
1759157859161051400,8.152051513671875,0.04363119806423783,-0.46469373325705526,-0.5148938613828271
1759157859171111400,8.162111328125,1.0541818670488894,-0.7188923662096262,-0.15339491046667098
1759157859181171200,8.172171142578126,1.9556559291124342,-0.6968336791366339,0.1450138894818723
1759157859191231200,8.182231201171875,2.640798585933447,-0.5405132366120815,0.12497545619010925
1759157859201291300,8.192291259765625,2.968143703639507,-0.6419061571627855,-0.10216463557556271
1759157859211351000,8.20235107421875,2.79594238589406,-0.8789052335113287,-0.5268589513994753
1759157859221411300,8.212411376953124,2.830581153076887,-0.8977192395746707,-0.610960983800888
1759157859231471400,8.222471435546876,1.9291478614151476,-0.1956704561382532,-1.6147060644239186
1759157859241531100,8.23253125,1.3187256606660782,0.1931687024503946,-2.1911726579487323
1759157859251591200,8.242591064453125,0.9549825110197067,0.274196880364418,-2.796106636545062
1759157859261651200,8.252651123046874,0.6184593767322599,0.14121288976371288,-3.2843107169881463
1759157859271711200,8.262711181640626,0.06308744755387306,-0.20004969413578508,-3.658418170391023
1759157859281771300,8.272771240234375,-0.6158206987917423,-0.7412041512608528,-3.9079344907462596
1759157859291832300,8.282832275390625,-1.0483891089916229,-1.247694706761837,-4.009396384879946
1759157859301892400,8.292892333984375,-1.0035399134397507,-1.2614654579609632,-4.032527669620514
1759157859311952400,8.302952392578124,-1.326766343780607,-1.638596058577299,-4.062139840812981
1759157859322012200,8.31301220703125,-1.0908511171460151,-2.172854910969734,-4.146701161289215
1759157859332072200,8.323072265625,-0.6599823504708707,-2.6780764694482087,-4.309837713569403
1759157859342132200,8.33313232421875,0.10005231959670781,-3.2869682457596063,-4.596169268363714
1759157859352192300,8.343192138671874,1.3859239045396445,-3.4832255618751047,-4.493898395934701
1759157859362252300,8.353252197265626,3.3094507112026212,-3.3358734387040134,-3.9948599100053306
1759157859372312300,8.363312255859375,5.257492658179998,-2.908838697233796,-3.210732855080068
1759157859382372000,8.3733720703125,6.767766288226842,-2.609160169610381,-2.4865502735078335
1759157859392432000,8.38343212890625,7.06932346920371,-2.641266203445196,-2.0445671153612435
1759157859402492200,8.3934921875,5.934768819409609,-3.12563786611855,-2.127987156847864
1759157859412552200,8.40355224609375,4.699543133598565,-3.699506259843707,-2.67555601105988
1759157859422612200,8.4136123046875,3.584520867270231,-4.046244644805789,-3.7865778095752
1759157859432673300,8.42367333984375,3.3201837021410463,-4.015346817716956,-4.7742000229150054
1759157859442733300,8.4337333984375,3.3532910219728946,-3.795580031198263,-5.711007994818687
1759157859452793000,8.44379296875,2.875601029020548,-3.587607142847776,-6.4486687743842595
1759157859462853000,8.45385302734375,1.965787885417789,-3.060196548914909,-6.387209220293164
1759157859472913200,8.4639130859375,0.24857144072055815,-2.2890163615852592,-5.7851429060876365
1759157859482973400,8.473973388671874,-2.3117186072587965,-1.6073562861829995,-5.15090450707376
1759157859493033200,8.484033203125,-3.2687913685560224,-1.55174078194499,-4.757640517780184
1759157859503093200,8.49409326171875,-3.8953029727101325,-1.496788710051775,-3.952111778385937
1759157859513153300,8.5041533203125,-3.871871828240156,-1.353431209474802,-2.63412480725795
1759157859523213000,8.514213134765624,-3.4146178895950317,-1.3540461265027521,-0.7901416390396654
1759157859533273300,8.5242734375,-2.9468542473733423,-1.825555384993553,0.5585273244693875
1759157859543333400,8.53433349609375,-3.1115806991934774,-2.8150410541176796,1.516283099594712
1759157859553393200,8.54439306640625,-3.4435160672992464,-4.211106121182442,2.537557407167554
1759157859563453200,8.554453125,-3.5732343341022728,-5.351231849107146,4.013000546851754
1759157859573513200,8.56451318359375,-3.139702047306299,-5.876459253782033,6.421680814215541
1759157859583573200,8.5745732421875,-1.8624689652405677,-5.568204036471247,8.989270371553301
1759157859593633300,8.58463330078125,-1.929723615476489,-3.5395395697712897,9.511908344256877
1759157859603693300,8.594693359375,-1.9363681680575011,-1.8828525587081908,7.757122193491458
1759157859613754400,8.60475439453125,-0.9035266106791794,-1.3682371489405631,5.837333696573972
1759157859623814400,8.614814453125,-1.6651919506885111,0.04703881455063819,3.5448327077433466
1759157859633874200,8.624874267578125,-2.116953575527668,0.4915396546065807,1.098502727877721
1759157859643934200,8.634934326171875,-1.1296386745713651,0.25124738193154333,-1.0446215000864119
1759157859653994200,8.644994140625,-0.6457610790252685,0.28963293442726135,-2.5057950722038744
1759157859664054300,8.65505419921875,-1.9290157594680786,0.601119388744235,-2.230544445002824
1759157859674114300,8.6651142578125,-1.9884226188130676,0.5852116255164146,-2.050134394099563
1759157859684174300,8.67517431640625,-4.69250373648107,2.217272729367018,-1.1948754091136158
1759157859694234000,8.685234130859374,-4.740761863693595,2.2000889548540115,-1.067786760161817
1759157859704294100,8.695294189453126,-5.492985421618819,2.8406641556739807,-1.1866131922028957
1759157859714354200,8.705354248046875,-4.175746638509631,3.4994197408288716,0.12244191912449896
1759157859724414500,8.71541455078125,-3.13735957583338,3.6603245885342357,1.5462611814901233
1759157859734474200,8.72547412109375,-3.6971208260118957,3.4342712690919637,1.8318898487120865
1759157859744534300,8.7355341796875,-3.5714909975662827,3.5830016948789356,2.5029490351229904
1759157859754594300,8.74559423828125,-2.772786551234126,3.8801036500126123,3.222812292191386
1759157859764654000,8.755654052734375,-2.505162327258289,3.9285371337920423,3.640546121352911
1759157859774714000,8.765714111328125,-2.7625603407740593,4.04570045492649,4.098774165727198
1759157859784774400,8.7757744140625,-2.915856467041373,4.135232841813564,4.330315561191737
1759157859794834200,8.785834228515625,-3.118610451699793,4.357704795637726,4.193040303137898
1759157859804894200,8.795894287109375,-3.1425100904643535,4.503270619913935,4.117311400675773
1759157859814954200,8.805954345703125,-3.104273006528616,4.530850116235017,3.6628710581466555
1759157859825014300,8.81601416015625,-2.7758573369815944,4.39082029877603,2.7772113819390536
1759157859835074300,8.82607421875,-2.0816627741768956,4.0175142248839135,2.090864025503397
1759157859845134300,8.83613427734375,-0.9591013445153832,3.7660803804695604,1.9857494540810583
1759157859855194400,8.8461943359375,-0.25225071375519037,3.306463804346323,1.7988070787996053
1759157859865254100,8.856254150390624,1.1215043218240142,2.3152175552904604,1.3463076412051915
1759157859875314200,8.866314208984376,1.9965344674676655,1.3218284489870071,0.9131552205722778
1759157859885374500,8.87637451171875,3.5764427747547622,0.20290917522013185,0.11740772434957325
1759157859895434500,8.8864345703125,5.766804700842499,-1.1199784274309872,-1.0341357619073241
1759157859905494500,8.89649462890625,7.8571379804700605,-2.77328222579658,-2.5623680232971906
1759157859915554600,8.906554443359376,9.280413126021623,-4.719713230445981,-4.109854070407152
1759157859925615600,8.91661572265625,8.644037130457162,-6.872371156561374,-5.686134250324964
1759157859935675400,8.92667529296875,5.838733041977882,-8.118305867913366,-6.71687488990128
1759157859945735400,8.9367353515625,2.2162901480704544,-7.600938529089093,-6.462658136770129
1759157859955795500,8.94679541015625,0.4094809646010399,-5.154896207058429,-3.6278929760068652
1759157859965855500,8.95685546875,0.5110816826835275,-2.4842881737947464,-1.3789710166618228
1759157859975915500,8.96691552734375,0.4020679118655622,-0.41355508217215536,-0.5579074390053749
1759157859985975600,8.9769755859375,0.31204218850359317,1.781905043837428,0.3114177729949355
1759157859996035300,8.987035400390624,0.5546002141535282,3.5351322747230527,1.180275148287788
1759157860006095400,8.997095458984376,0.0016714403435587881,4.8715036283254625,2.426590164194256
1759157860016155400,9.0071552734375,-0.23098040058091282,5.329153288289905,3.747208506739139
1759157860026215700,9.017215576171875,-0.17013064895123242,5.345719223165512,3.722261112487316
1759157860036275500,9.027275390625,-0.009311141441762446,3.343934580084681,5.169775796282291
1759157860046335500,9.03733544921875,1.0397672649882734,0.9192156165897846,4.827985681377351
1759157860056395500,9.0473955078125,3.0112215056046843,-2.9837194584339857,4.5960120319753885
1759157860066455300,9.057455322265625,3.0980139461338516,-2.960667084148526,4.477809723182022
1759157860076515300,9.067515380859374,1.0680465801417827,-8.454895783826709,4.887131990090012
1759157860086575600,9.07757568359375,-4.215597587382793,-12.813034294706583,5.050647897076606
1759157860096635400,9.087635498046875,-6.6237073613822455,-11.994143677175044,4.4559652633816
1759157860106695400,9.0976953125,-6.805058200266957,-6.122555244299769,3.63484118770957
1759157860116755500,9.10775537109375,-4.157120263972878,0.2688864989966154,3.3023563690274953
1759157860126815500,9.1178154296875,-0.8587358673162758,3.929095936718583,3.901900471279025
1759157860136875300,9.127875244140625,-0.49098450494185086,5.714650735235214,4.661040384463965
1759157860146935600,9.137935546875,-2.1986937011033296,6.2141369649320835,4.991516493672132
1759157860156995600,9.14799560546875,-3.5620044995576143,5.907808331769704,5.017787245482206
1759157860167055400,9.158055419921874,-3.817098035523295,5.234263758283853,4.601164592432975
1759157860177115400,9.168115478515626,-3.628866789475083,4.464831875926256,3.8530642519176004
1759157860187175400,9.178175537109375,-3.5574025587201117,3.9277386768907308,3.0232687940120697
1759157860197235500,9.1882353515625,-3.4935336053997275,3.2216660447657106,2.4377749905534087
1759157860207295500,9.19829541015625,-3.356425228345394,2.2390157746195793,2.1829396671324965
1759157860217355500,9.20835546875,-3.343725905770063,0.6450538075387477,2.0804747334361076
1759157860227415600,9.21841552734375,-3.6587434568226334,-1.1319494357317685,2.058632611723244
1759157860237475300,9.228475341796875,-5.175851316803693,-2.5941478939175604,1.4331475741378963
1759157860247535400,9.238535400390624,-5.693168971267342,-3.638941608765721,0.9634992872133851
1759157860257595600,9.248595703125,-6.589576543721556,-5.211841498595476,-2.509237029351294
1759157860267655400,9.258655517578125,-4.985743755489588,-4.402006294178962,-4.466051188588142
1759157860277714400,9.26871435546875,-3.073285163068771,-3.921751419174671,-5.698400442180037
1759157860287774500,9.2787744140625,-0.43934477246701714,-3.1045103224158286,-6.2920087246418
1759157860297834500,9.28883447265625,1.5320552537441252,-1.754353604567051,-6.665963617831468
1759157860307894500,9.29889453125,3.012334727543592,-0.01125906063914299,-6.254050457647442
1759157860317954600,9.30895458984375,4.275125296628475,1.2652280253648758,-5.1113329596638675
1759157860328014300,9.319014404296874,4.095037609547377,1.8718419198721645,-4.415189016357064
1759157860338074400,9.329074462890626,3.1811364659786223,2.417594226181507,-3.7724049073159693
1759157860348134400,9.339134521484375,2.447114919698238,2.4621079061686992,-2.6361118894219397
1759157860358194400,9.3491943359375,2.4986253267049787,2.4552479572713373,-2.6485031689614056
1759157860368254500,9.35925439453125,1.6510614262662826,1.0932079094052314,-2.0060026991672815
1759157860378314500,9.369314453125,1.2810953104518352,0.6199836636900902,-1.4196695222750306
1759157860388374300,9.379374267578125,1.2411175203286111,0.26964930006265636,-0.6189576816432177
1759157860398434300,9.389434326171875,1.1764132852278648,0.07335399002432823,0.19867372960746288
1759157860408494600,9.39949462890625,1.2197485690854488,-0.08937690406441688,0.8142515595540404
1759157860418554600,9.4095546875,1.343835698133707,0.07288871060013771,1.2688169897675514
1759157860428614400,9.419614501953125,1.3952584268569945,0.3494564117491245,1.578059756810963
1759157860438674400,9.42967431640625,1.3926609577096998,0.5346925676345825,1.4237301958426831
1759157860448734500,9.439734375,0.9195407568909227,0.41074996162354943,0.7019171198807657
1759157860458794200,9.449794189453126,0.9289620807088911,0.39356092641353607,0.6025467911988497
1759157860468854500,9.4598544921875,0.26902751490250226,0.026225159102678298,-0.3658173255719244
1759157860478914600,9.46991455078125,-0.39040085494741794,-0.2911854245662689,-0.8404623978704213
1759157860488974300,9.479974365234375,-0.7563513053797185,-0.5915875902891159,-1.2054301208756864
1759157860499034400,9.490034423828124,-0.596933481361717,-0.9451485147476196,-1.8912873557068406
1759157860509094400,9.500094482421876,0.03857376854419708,-1.275333824315667,-2.6025451353847977
1759157860519154400,9.510154541015625,1.128231291991472,-1.543859088784456,-3.24046719134748
1759157860529214500,9.52021435546875,2.5609035037025807,-2.0573621533960105,-4.0768876203507185
1759157860539274500,9.5302744140625,3.6552231737419962,-2.974898438596725,-4.909881582036614
1759157860549334500,9.54033447265625,3.881438990269601,-3.8856811578840014,-5.887316163361072
1759157860559394300,9.550394287109375,3.1170985858321187,-4.232945612546802,-6.830071645492315
1759157860569454300,9.560454345703125,2.1496794948264957,-3.7142572542518377,-7.301219669455289
1759157860579514600,9.5705146484375,1.1899287464916706,-2.8448721287578342,-7.263446695899963
1759157860589574400,9.580574462890626,1.3091755959019065,-2.088829304805398,-6.697389268186688
1759157860599633400,9.59063330078125,2.4172997732795776,-1.775196486109495,-5.65160186612606
1759157860609693400,9.600693359375,3.741834412485361,-1.8488889143079519,-4.268901307547092
1759157860619753500,9.61075341796875,4.797692542183399,-2.3541642488002776,-3.004138269345462
1759157860629813500,9.6208134765625,5.783733039289713,-2.9608377645403143,-1.8170074830092489
1759157860639873500,9.63087353515625,5.961606557452678,-2.9118408016592263,-1.2861682298019528
1759157860649933300,9.640933349609375,4.497430661714077,-2.2803233520418402,-2.2800461425356566
1759157860659993300,9.650993408203124,2.2983880010426043,-1.7454548433184622,-3.265021202367544
1759157860670053400,9.661053466796876,-0.5703554171681404,-1.2409124992758034,-3.8539460031881925
1759157860680113700,9.67111376953125,-3.1487469390273093,-1.3096470128059385,-4.389014126136899
1759157860690173400,9.68117333984375,-4.2824809200882905,-1.7369085487693547,-4.415528039053082
1759157860700233500,9.6912333984375,-4.253459992787242,-2.418490882760286,-3.051233490258455
1759157860710293500,9.70129345703125,-4.326239982315898,-3.3554783028841015,-1.3284155722923576
1759157860720353300,9.711353271484375,-4.500976956018805,-3.343444750741124,-1.1859607196435331
1759157860730413300,9.721413330078125,-3.9686265675961967,-4.8820858126163476,1.8496156211473047
1759157860740473600,9.7314736328125,-3.8361055183321233,-5.641656226173043,2.6527555657088757
1759157860750533400,9.741533447265626,-3.1752205199331045,-6.18146920556128,3.2316385727256534
1759157860760593400,9.751593505859375,-2.001377231323719,-6.37953269431591,4.659496954414248
1759157860770653400,9.7616533203125,-0.4373955380953848,-5.985113689768314,6.25414807280302
1759157860780713500,9.77171337890625,1.4451790804542601,-4.901103232297301,6.474605179673433
1759157860790772500,9.7817724609375,1.3235206398576498,-4.911241179952025,6.666738109335303
1759157860800832500,9.79183251953125,1.2239298002928494,-1.1256681635051966,6.386477398887276
1759157860810892300,9.801892333984375,-2.9515818604171273,-0.20378245092332362,5.610840816670656
1759157860820952300,9.811952392578124,-7.376902979210018,0.25611820283830167,3.172643947443366
1759157860831012600,9.8220126953125,-5.648254893785714,0.7273831311792135,1.748859098803997
1759157860841072600,9.83207275390625,-5.612484492224454,0.7329150463432074,1.8141402570098637
1759157860851132400,9.84213232421875,0.3024789719969034,0.7142839956313372,0.5230051985807717
1759157860861192400,9.8521923828125,0.589798953306675,1.2511983309686183,-1.2137846922449766
1759157860871252500,9.86225244140625,-1.6320460524119436,2.1045278091967106,-1.8081870476938784
1759157860881312300,9.872312255859375,-2.7780501708507535,2.782221903577447,-1.027029583163932
1759157860891372300,9.882372314453125,-2.853660123108327,3.3099873022973534,0.1346823189511895
1759157860901432300,9.892432373046875,-2.4868635772407055,3.4459026701748368,0.6997075540725142
1759157860911492400,9.902492431640624,-2.729238501408696,3.2095880689591167,0.8813577412299811
1759157860921551000,9.912551025390625,-3.746973528939485,3.3870471611022945,0.8604350724495947
1759157860931611400,9.922611328125,-3.8234231468915936,3.4346202286601066,1.289090985380858
1759157860941671400,9.93267138671875,-2.9673873323142526,3.0972084749698636,1.9780583150565623
1759157860951731200,9.942731201171876,-2.8032573850825426,2.864205774781108,2.7727517721816897
1759157860961791200,9.952791259765625,-2.8139634880140423,2.758470441111922,3.718529232482612
1759157860971851300,9.962851318359375,-2.586227914573252,2.9244232198566196,4.3107820086821915
1759157860981911300,9.972911376953125,-2.1181389859199524,3.366244611570239,4.467637873257696
1759157860991971300,9.982971435546874,-1.95423700222522,3.914272461596131,4.254467708525062
1759157861002031400,9.99303125,-2.1476336682125923,4.380852446991205,3.8107191481411453
1759157861012091400,10.00309130859375,-1.9683157964602112,4.7829076455056665,3.6800320363059638
1759157861022151200,10.013151123046875,-1.7494564801752566,4.892312023076415,3.368991279929876
1759157861032211200,10.023211181640624,-1.1331959286615252,4.0134646572321655,2.5216478903740644
1759157861042271500,10.033271484375,-1.0826581660792232,4.029133935528994,2.508688455557823
1759157861052330200,10.043330322265625,-0.3050789253622293,2.9759032317250966,1.439711901089549
1759157861062390300,10.053390380859375,0.39802959626018997,2.4006986209601164,1.0337769385322928
1759157861072450300,10.0634501953125,1.2656962273985146,1.7526964850097895,0.754900741245225
1759157861082510300,10.07351025390625,2.292128794517368,0.8772440223008394,0.41141631657779215
1759157861092570400,10.0835703125,3.669634268671274,-0.1578255863904953,-0.20301891920492052
1759157861102630400,10.09363037109375,5.031967162004113,-1.3889701403677464,-1.3071787229962646
1759157861112690200,10.103690185546874,6.377265918427705,-2.8367314924001694,-2.732804669457674
1759157861122750200,10.113750244140626,7.619464950382709,-4.4622897902280085,-4.292802407616376
1759157861132810200,10.123810302734375,7.92041948929131,-6.123403385561704,-5.766043653342128
1759157861142870500,10.13387060546875,6.104871119049191,-6.657732965102792,-6.562091155424714
1759157861152929300,10.14392919921875,2.7306866543903947,-5.408422055315971,-6.578657674822211
1759157861162989300,10.1539892578125,0.6983820776224136,-2.9087089333742857,-4.882486210110783
1759157861173049000,10.164049072265625,0.888119636580348,-0.7791442980766295,-2.362738162008673
1759157861183109400,10.174109375,0.7583683442905544,0.6652858637064695,-0.8742220441311598
1759157861193169400,10.18416943359375,0.5986112053155899,1.9895149440944193,0.5403345190443098
1759157861203229400,10.1942294921875,0.5080838160417974,3.040582332384586,2.19593241969645
1759157861213289200,10.204289306640625,0.19154373159706592,3.3976620786190033,3.537871928820014
1759157861223349200,10.214349365234375,0.09802665898799896,3.007306670248508,4.680774135720729
1759157861233409300,10.2244091796875,0.15739040984362362,3.0278181278795,4.59598076005429
1759157861243469300,10.23446923828125,0.7639880838684737,2.0476509067207576,5.788341409868002
1759157861253528300,10.2445283203125,1.9128125204250215,0.20596271757185458,6.519671232846379
1759157861263588400,10.25458837890625,3.415896823489666,-3.347735725933313,6.766093386578559
1759157861273648400,10.2646484375,4.564634312415123,-9.108730863714218,6.562270019122958
1759157861283708400,10.27470849609375,0.9209148217231035,-13.602163395702838,5.573890849936008
1759157861293768400,10.2847685546875,-3.937524157845974,-12.855640095245837,4.552421896573901
1759157861303828200,10.294828125,-5.855230587792396,-6.379859442052245,4.216954554949701
1759157861313888300,10.30488818359375,-6.6646887755900615,0.6607371143609285,4.223323505459725
1759157861323948300,10.3149482421875,-5.281646271705627,4.658295761930942,4.305087596432864
1759157861334008300,10.32500830078125,-2.977335894876718,6.420365639963745,3.6701889799445864
1759157861344067300,10.3350673828125,-2.6344559389084576,7.378290049654245,3.5504973093762993
1759157861354127400,10.34512744140625,-3.627598376974463,7.441962019097804,3.7588027906820174
1759157861364187100,10.355187255859375,-4.331300772836804,6.278433203753829,3.8796214194536205
1759157861374247400,10.365247314453125,-4.310353846397995,4.7279275165617465,3.4627456684261557
1759157861384307500,10.375307373046875,-4.151340511527657,3.112056500011682,3.0486788373395797
1759157861394367200,10.3853671875,-3.900020648881793,1.7087357627302406,2.63292215346992
1759157861404427300,10.39542724609375,-3.812909936183691,0.7605974185168742,2.2733650573365387
1759157861414487300,10.4054873046875,-4.063040296784043,-1.140717848598957,2.2783035366520283
1759157861424546300,10.41554638671875,-4.1258927665382625,-1.1518453918129206,2.177139894812554
1759157861434606300,10.4256064453125,-5.415232319852709,-3.575186637213826,1.0576043157782404
1759157861444666400,10.435666259765625,-6.677745241039991,-4.95901356947422,-0.9765072373464703
1759157861454726100,10.44572607421875,-6.608181290948391,-5.082898307818174,-3.501379058203101
1759157861464786200,10.4557861328125,-4.985673612862825,-4.4100551605999465,-5.2563072477877135
1759157861474846500,10.465846435546876,-2.6703146032750604,-3.2482629597902295,-5.444728463450073
1759157861484906500,10.475906494140625,-0.2618441975359805,-1.6004969218075273,-5.05578935161829
1759157861494966300,10.48596630859375,2.4204805952727795,-0.27079379392266273,-4.745323764781654
1759157861505025300,10.496025390625,4.347098645949363,0.7109913838267325,-4.14674675399661
1759157861515085300,10.506085205078126,4.785763619458675,1.5069003542214632,-3.5829651622608303
1759157861525145300,10.516145263671875,3.636865971535444,2.320128708207607,-3.0111405493229624
1759157861535205400,10.526205322265625,2.2494038976430892,3.199762840515375,-2.0034081526294347
1759157861545265400,10.536265380859374,0.843363453074172,3.1004888118147846,-0.7452591988053172
1759157861555325200,10.5463251953125,0.07956877288594842,2.6043413711518046,0.013395415080711244
1759157861565385200,10.55638525390625,-0.17182254756093024,2.117883549854159,-0.06371566245481372
1759157861575444200,10.5664443359375,0.025284151925519107,1.1096961028695105,-0.3683035894297063
1759157861585504300,10.576504150390624,0.6902281433917582,0.07735036618411541,-0.8741141267772763
1759157861595564300,10.586564208984376,1.4307948735319078,-0.5105214184522628,-0.9199265413381159
1759157861605624300,10.596624267578125,2.0402304013311863,-0.9365122038275003,-0.41038405092060565
1759157861615684400,10.606684326171875,2.160021002229303,-0.9567489361703395,-0.4218453561335802
1759157861625744400,10.616744384765624,2.5280700323760508,-1.1265338404238223,-0.037188451665639874
1759157861635804400,10.626804443359376,2.727949630641937,-0.8667956935226917,0.3011697890944779
1759157861645863200,10.63686328125,2.5300433782756326,-0.5451613546788692,0.5285559645757079
1759157861655923500,10.64692333984375,1.6412031723357736,-0.24563889440000056,0.21992738390788436
1759157861665983200,10.656983154296874,0.4468472570516169,-0.13846972853541373,-0.47073681281358
1759157861676043300,10.667043212890626,-0.7834101388275623,-0.10075929882228374,-1.384778241635859
1759157861686103300,10.677103271484375,-1.575712024641037,0.13710428540110586,-2.3201750315673646
1759157861696163300,10.687163330078125,-1.4891558770857751,0.28694471825659273,-3.0004543201357126
1759157861706223400,10.697223388671874,-0.8873720330834388,0.10373393071889876,-3.6124691969037053
1759157861716282400,10.707282470703126,0.055579848402738566,-0.3587327741384506,-4.094525568372011
1759157861726342100,10.717342041015625,1.1800815984770654,-0.9493605794847011,-4.104901416435838
1759157861736402200,10.727402099609375,1.84280316465348,-1.8553350217074154,-3.8688790761649607
1759157861746462500,10.73746240234375,2.7761963596776127,-2.7935768258064986,-3.24744170653522
1759157861756522500,10.7475224609375,3.15467632907629,-3.512265193876624,-2.7459289394468067
1759157861766582300,10.757582275390625,2.9411560357317326,-3.97945658916831,-2.456796940279007
1759157861776641300,10.767641357421875,3.0092057818681,-4.134204667809605,-2.4401833668693897
1759157861786701300,10.777701416015624,2.382052664940059,-3.9234669909209012,-2.811677130642533
1759157861796761300,10.78776123046875,1.739410886979103,-3.252475609049201,-3.138683225652575
1759157861806821400,10.7978212890625,1.734811868751049,-2.4919383962869643,-3.556045883414149
1759157861816881400,10.80788134765625,4.598261856728792,-2.067226544806361,-4.146789424094558
1759157861826941200,10.817941162109374,5.612300952351093,-2.827774278962612,-4.318515233282745
1759157861837000400,10.82800048828125,5.745375543844699,-3.9389252568155526,-4.79985351960957
1759157861847060200,10.838060302734375,5.501532885211706,-4.463547681334615,-5.434344432079792
1759157861857120300,10.848120361328125,4.783640635955334,-4.061194961178303,-6.114071493592858
1759157861867180300,10.85818017578125,3.6852713982641694,-3.2346447688043116,-6.669142247867584
1759157861877240300,10.868240234375,2.4302269132614134,-2.40906546728909,-7.11691991763711
1759157861887300400,10.87830029296875,1.0494237858016042,-1.720751194694638,-7.485920987811684
1759157861897359000,10.888359130859374,-0.1096527263086289,-1.2904162426352501,-7.566735815235972
1759157861907419100,10.898419189453126,-0.9098363783478737,-1.4661311214596031,-6.899730288130044
1759157861917479200,10.908479248046875,-1.53976743555665,-2.3044015622437,-5.115607568243146
1759157861927539200,10.918539306640625,-2.659569337376952,-3.9862446418732405,-2.640634335282445
1759157861937599200,10.92859912109375,-3.8152211357355115,-5.060224703717232,0.5050388953879476
1759157861947659300,10.9386591796875,-4.441898744106292,-4.785150455996394,3.3501977321326732
1759157861957718000,10.948718017578125,-5.150308879268169,-5.391872487053274,4.861712886673212
1759157861967778300,10.9587783203125,-5.520470809915661,-6.413200570639968,5.097362301978468
1759157861977838300,10.96883837890625,-5.104448460847139,-6.636313160455226,5.263093546926975
1759157861987898000,10.978898193359376,-3.6812107246965167,-5.845919738611578,5.794799792227149
1759157861997958100,10.988958251953125,-0.9691745563708245,-3.9485675299078222,7.366056591024995
1759157862008018200,10.99901806640625,1.3967119866661726,-1.3230366557329893,9.176375828441977
1759157862018077200,11.0090771484375,1.2376606578730045,-1.3396984521985054,9.324576092875004
1759157862028137200,11.01913720703125,2.029328483566642,0.7453028187513351,9.86916461610198
1759157862038197200,11.029197265625,-0.5018289934307336,1.8804332226067781,8.327169567623734
1759157862048257000,11.039257080078125,-4.939658880662917,1.3665893817335366,4.54992365001738
1759157862058317300,11.0493173828125,-4.767474514052272,0.7347872699558734,0.8864492922153323
1759157862068376300,11.059376220703125,-1.8757646462738513,0.6308312209188938,-1.7371338819578288
1759157862078436000,11.06943603515625,-0.28920696410015223,0.21650398533046245,-3.4645533023700117
1759157862088496000,11.07949609375,-1.032903662829101,0.26629998963475227,-4.003913277293742
1759157862098556200,11.08955615234375,-3.3111958013042804,1.1321750611811876,-2.4713857298627495
1759157862108616200,11.0996162109375,-4.7604196271046995,1.9301959091633558,-1.1656354322344065
1759157862118675200,11.10967529296875,-4.760053424140811,2.346695812615752,-1.1113896819796412
1759157862128735200,11.1197353515625,-4.791911036172509,2.6238252393007278,-1.176766847905889
1759157862138795300,11.129795166015626,-4.406351045385003,2.995988572898507,-0.6664488430712372
1759157862148855300,11.139855224609375,-3.8394068979650733,3.087165219861269,0.37308629366159435
1759157862158915300,11.149915283203125,-3.9444291149288415,3.0914445046156644,1.2843201177172363
1759157862168974000,11.15997412109375,-4.022742188665271,2.8345997410684824,2.5973253549098967
1759157862179034000,11.1700341796875,-4.4596296311080454,2.9572546453565356,3.897860840499401
1759157862189094400,11.180094482421875,-4.6122018270149825,3.446092639788985,4.16741252540648
1759157862199154200,11.190154296875,-4.305810942271352,3.6338171053588386,4.513405644959211
1759157862209214200,11.200214111328124,-4.27462290006429,4.199716712161899,4.773447158721089
1759157862219273200,11.210273193359376,-4.297033761575817,4.195094313058257,4.755638238047063
1759157862229333200,11.220333251953125,-3.76526029625833,5.1259658806502815,4.39594830931425
1759157862239393300,11.230393310546875,-3.050041650125384,5.10073616232574,3.833761877815425
1759157862249453300,11.240453369140624,-2.040213450196385,5.0909606182426215,3.5276749444544313
1759157862259513000,11.25051318359375,-0.6997299851000308,4.984814950206876,3.0238229207634926
1759157862269572400,11.260572265625,0.5850307159915566,4.518974385002255,2.6466306530877945
1759157862279632100,11.270632080078125,1.9302119835153222,3.861088568419218,2.2720606967397035
1759157862289692200,11.280692138671874,3.459845855331421,2.8888989020109177,2.0810579401515423
1759157862299752200,11.290752197265626,4.885584760648012,1.6722645194232464,1.8728313693009315
1759157862309812200,11.300812255859375,6.838941180646419,-0.06724106010198592,1.0789159108109772
1759157862319871200,11.310871337890624,9.646969141131638,-2.505499304127693,-0.4043856142234057
1759157862329931300,11.32093115234375,11.845056693035364,-5.789308793595433,-2.978161239784956
1759157862339991000,11.330990966796875,10.5736502712965,-8.832452500900626,-5.5448629083722825
1759157862350051000,11.341051025390625,5.64046789317131,-10.165079991799592,-7.447258956462145
1759157862360111400,11.351111328125,0.5639151549875736,-9.322118178328871,-7.957363026285171
1759157862370170000,11.361170166015626,0.024984803652763364,-6.346515975376963,-4.662131394571066
1759157862380230100,11.371230224609375,1.6217372782349586,-2.7649229782521725,-1.6404960469797252
1759157862390290200,11.381290283203125,1.6142048369035125,-2.770171400299668,-1.6077707122027873
1759157862400350200,11.39135009765625,1.63799750816226,-0.13358546362519264,-0.8377019201811402
1759157862410409200,11.4014091796875,0.8120446971595287,2.0449539227217435,-0.07412256324402988
1759157862420469200,11.41146923828125,-0.5269874000847339,4.217696020966768,1.0196559856560081
1759157862430529000,11.421529052734375,-1.5699487849391995,5.945396011886,2.25267575892061
1759157862440589300,11.43158935546875,-2.330340013359487,6.710944915330409,3.2913954145520923
1759157862450649300,11.4416494140625,-2.481862407952547,6.500445138850807,4.623148460704088
1759157862460708000,11.4517080078125,-1.5547721124649048,5.301207296743988,5.98172755446136
1759157862470768000,11.46176806640625,-0.6499414334498346,2.81815480222404,6.447622480201721
1759157862480828200,11.471828125,1.951606799852103,-2.3879881924688813,6.9748249843418595
1759157862490888200,11.48188818359375,6.305519948121905,-11.921819614720343,7.572038597819208
1759157862500947200,11.491947265625,-0.8399049101181327,-19.228329207277298,7.389411747649311
1759157862511007200,11.50200732421875,-4.909048638343811,-16.79676724601984,8.219909216344355
1759157862521067300,11.5120673828125,-4.531429961949587,-7.023839482879638,7.460812850040197
1759157862531127300,11.522127197265625,-3.7205893798828122,0.3863654619514942,5.382869680908322
1759157862541186000,11.53218603515625,-2.3048516440987585,4.544334451708197,4.829994975373149
1759157862551246000,11.54224609375,-2.3208580453954637,6.543535508036613,4.241341977231205
1759157862561306000,11.55230615234375,-3.3328058678269383,6.786327196311951,3.6062419929519294
1759157862571366400,11.562366455078125,-4.730453820168972,6.0647384306252,3.4891847625404595
1759157862581426200,11.57242626953125,-4.680461416509747,4.152009204569459,2.3940792028203606
1759157862591485200,11.582485107421874,-4.235215311044454,3.4427141032665967,2.0803684965826568
1759157862601545200,11.592545166015626,-3.642610068145394,2.5275375329345464,1.8524676495775578
1759157862611605200,11.602605224609375,-3.248780846184492,1.4727870722174643,1.7766576447032392
1759157862621665300,11.612665283203125,-3.4392508110702034,0.20300269872248172,1.6947338331237434
1759157862631724000,11.62272412109375,-4.3380034853458405,-0.9926946942985058,1.3809953620962798
1759157862641784000,11.6327841796875,-5.86881896816194,-2.494013448995352,0.24109299459867178
1759157862651844400,11.64284423828125,-7.700942625629901,-4.26802978540957,-0.9807439250681549
1759157862661904100,11.652904052734375,-8.612435539013147,-5.9606309904187915,-2.2077099512517453
1759157862671963100,11.662963134765626,-8.097468831589817,-5.198251364660263,-3.340779915446043
1759157862682023200,11.673023193359375,-5.6138709781467915,-3.4695758067071436,-4.177311695869267
1759157862692083200,11.683083251953125,-2.30317055914402,-2.2687077330499887,-4.475439779180288
1759157862702143200,11.693143310546875,0.9827706816554069,-1.3959762197375296,-4.92945312846899
1759157862712202200,11.7032021484375,3.629097675621509,-0.5131383229523897,-5.150302449527382
1759157862722262300,11.71326220703125,4.822541736757755,0.47403497757613655,-4.996369194400311
1759157862732322300,11.723322265625,4.744123449081182,1.5855489435225725,-4.450925515648723
1759157862742382300,11.73338232421875,3.913239611417055,2.209445981264114,-3.5143975297302004
1759157862752441000,11.743441162109375,2.865148608589172,2.3891630814671516,-2.237741078508645
1759157862762501000,11.753501220703125,1.8495289657771585,1.9832745884001255,-1.2341332143992185
1759157862772561400,11.7635615234375,0.9090447895787656,1.4465654202461242,-1.4531303317196667
1759157862782621200,11.77362109375,0.9632217854462564,1.430388776949048,-1.524322759795934
1759157862792680200,11.78368017578125,0.10339373897910117,0.9393594099521636,-2.1482421554997564
1759157862802740200,11.793740234375,-0.042413931228965515,0.36021570617258547,-2.728971374905109
1759157862812800300,11.80380029296875,0.4228254532121122,-0.024754502028226853,-2.7105639038160443
1759157862822860300,11.8138603515625,1.5173533591747284,-0.4131728048563003,-2.035918675611913
1759157862832919000,11.8239189453125,2.739057884633541,-0.6277291632503271,-1.063265044953674
1759157862842979000,11.83397900390625,3.6542215954840183,-0.6096861415594815,-0.24206615047976374
1759157862853039400,11.844039306640624,4.41053329950571,-0.32431963240504263,0.2724798473134637
1759157862863099100,11.85409912109375,4.286738577532768,-0.05291501310765743,0.29984657766669987
1759157862873158100,11.864158203125,3.06261997666955,0.13025661146342754,-0.2821979621209204
1759157862883218200,11.87421826171875,1.4560440272092818,0.21884674906432627,-1.0798716041006147
1759157862893278500,11.884278564453124,-0.3620576807774603,0.2198088720947504,-2.053587603293359
1759157862903337500,11.89433740234375,-1.5767361069917678,-0.05962357083559036,-3.152280958372354
1759157862913397500,11.9043974609375,-1.755952710326761,-0.530411529314518,-3.968353595873713
1759157862923457300,11.914457275390625,-1.4815116459429263,-0.9785720609217882,-4.433410901746154
1759157862933517600,11.924517578125,-0.7499344240747392,-1.474438346555829,-4.631486665460467
1759157862943576300,11.934576416015625,0.29601854381114245,-1.9854799894899129,-4.698752275481819
1759157862953636400,11.94463623046875,1.2692621031865476,-2.5923463974535466,-4.57739500978887
1759157862963696400,11.9546962890625,2.0277854919083413,-3.16480317081511,-4.505748115943372
1759157862973756700,11.964756591796874,2.8566952530205247,-3.339073696050048,-4.156149665375054
1759157862983815400,11.9748154296875,3.025419834566116,-3.1810078711628913,-4.155098987278342
1759157862993875500,11.98487548828125,3.621569618204236,-2.7016578360438346,-3.764586927041411
1759157863003935200,11.994935302734374,4.744647180694342,-2.4184359377026556,-3.443344217863679
1759157863013994500,12.004994384765626,5.133709626644849,-2.496213004866242,-3.4898540401041505
1759157863024054500,12.015054443359375,4.861337915880978,-3.2029338717669247,-3.3519814006790516
1759157863034114300,12.0251142578125,4.694450778895616,-4.040850676807761,-3.0163731892794368
1759157863044174300,12.03517431640625,4.997106861025094,-4.298912999451161,-2.5953765589296816
1759157863054233600,12.045233642578125,5.144890361350774,-3.8962832159191367,-2.669948108050227
1759157863064293400,12.05529345703125,4.184209930950403,-3.4058331101149317,-3.700326928576827
1759157863074353400,12.065353515625,2.4377745521619913,-2.9619898571848866,-4.885852179412543
1759157863084412400,12.075412353515626,0.9225511176880449,-2.673271114993095,-5.9337669488906855
1759157863094472400,12.085472412109375,0.1318179424960166,-2.187842636743188,-6.200421158790588
1759157863104532500,12.095532470703125,-0.391263828452304,-1.9477356575071811,-5.765171546682715
1759157863114592500,12.105592529296874,-0.8772153807282447,-2.343086974468827,-4.693433418546617
1759157863124651500,12.115651611328126,-1.7177438295722007,-3.47446825492382,-3.3271672774180767
1759157863134711600,12.125711669921875,-2.6071955915391443,-4.719842994305491,-1.697518057014793
1759157863144771300,12.135771240234375,-2.9457202749073503,-4.802471008631587,0.6347155150063335
1759157863154830300,12.145830322265626,-3.5403730979859827,-4.622594333952665,2.776836118885875
1759157863164890600,12.155890625,-3.788791393971443,-4.629176050430536,2.865201215559244
1759157863174950400,12.165950439453125,-5.114850027874112,-5.448363605082035,4.296392833323776
1759157863185010400,12.176010498046875,-5.963629587712884,-6.128636610040068,4.92053916965127
1759157863195069400,12.1860693359375,-6.220043558627367,-5.86426846525073,5.202660997796058
1759157863205129500,12.19612939453125,-5.8950102249950165,-5.009822550213337,5.132442967709899
1759157863215189500,12.206189453125,-3.751528708025813,-2.966381370142102,6.768217539125681
1759157863225248300,12.216248291015624,-2.2227596363455056,-0.30244799233675,8.758381887039542
1759157863235308300,12.226308349609376,-1.4300637827783822,0.5478513244152069,7.687059061706066
1759157863245368600,12.23636865234375,1.3766817366808652,0.6566887157529592,5.469622666209935
1759157863255427300,12.24642724609375,0.5849865845888853,0.9459621692180633,3.2481308578431602
1759157863265487400,12.2564873046875,-0.8658804783739149,0.7083166116595268,0.6466170382674783
1759157863275547400,12.26654736328125,-0.47027007208466526,0.16389643073678015,-1.541260450593382
1759157863285606400,12.2766064453125,-1.6755198679573833,-0.06927344271242618,-2.354847408758849
1759157863295666400,12.28666650390625,-3.515937160387635,0.737747873327136,-1.540165641093999
1759157863305726500,12.2967265625,-4.607037868380546,1.850149143502116,-0.6722929659895599
1759157863315786200,12.3067861328125,-4.458289322414994,2.7225422186404464,-0.18676278093084692
1759157863325845500,12.316845458984375,-4.644508059597015,3.1837960405766963,-0.305233019945398
1759157863335905500,12.326905517578124,-4.700608132481575,3.1435189752459523,-0.14960596651248634
1759157863345965300,12.33696533203125,-4.463584506213665,2.986357405722141,0.06506028199680149
1759157863356024600,12.347024658203125,-2.60979554490447,2.7105396461576223,2.021166512160003
1759157863366084400,12.35708447265625,-2.6947347587823867,2.6835978632181883,2.0665834245972334
1759157863376144400,12.367144287109374,-3.255636703428626,3.440232807844877,4.451362153500318
1759157863386203600,12.37720361328125,-3.0836823461815714,3.6308430579841136,4.484411021143198
1759157863396263400,12.387263427734375,-3.1095591302379963,3.9993601440340276,4.7882872927173965
1759157863406323500,12.397323486328125,-3.0650732150405644,4.421999280893802,5.1615346221596
1759157863416382500,12.407382568359376,-3.0885125428169964,4.805789923921227,5.173345471462607
1759157863426442500,12.4174423828125,-2.999128916750848,4.979197110325098,4.913627782827615
1759157863436502500,12.42750244140625,-2.9900699965044852,5.096170461845397,4.486960997886955
1759157863446561300,12.437561279296874,-2.70758751835376,5.350080340984463,3.7978675576135514
1759157863456621300,12.447621337890626,-1.8992966207697985,5.077586172884702,3.223794581227004
1759157863466681600,12.457681640625,-1.4200716733351348,4.536221287879347,2.5373376269370316
1759157863476741600,12.46774169921875,-0.25345570563077924,3.7208015613287686,2.1191132377795876
1759157863486800400,12.47780029296875,0.8098099238447845,2.8276538674533365,1.6962826700009404
1759157863496860400,12.4878603515625,2.300621897574514,1.7369032880723476,1.2745064335808156
1759157863506920400,12.49792041015625,4.038291639974713,0.3673480422705412,0.6930367710717023
1759157863516979500,12.5079794921875,6.334520417156815,-1.2468565023720264,-0.1455268805053085
1759157863527039500,12.51803955078125,9.348699895784259,-3.453735263496637,-1.7514936850912868
1759157863537099300,12.528099365234375,11.827910327923297,-6.065718673834204,-3.7290219849243758
1759157863547158500,12.538158447265625,10.766540156805515,-8.553191907405854,-5.911033723556995
1759157863557218600,12.548218505859374,10.723701716554164,-8.5646093734771,-5.886105034005642
1759157863567278300,12.5582783203125,6.407770946806669,-9.957388842999935,-7.608428592583537
1759157863577337600,12.568337646484375,1.5652888303041457,-8.57632319214642,-7.91905930685401
1759157863587397400,12.5783974609375,-0.5426135698921978,-4.698817741933465,-5.500374947348237
1759157863597457400,12.58845751953125,0.34907004278004167,-1.0258996292859315,-2.583602534505725
1759157863607516400,12.598516357421875,0.5837079429551959,0.9830570973813533,-1.9731942161515355
1759157863617576400,12.608576416015625,0.10585516065657138,2.489517891141772,-0.7365740803074091
1759157863627636500,12.618636474609374,-0.41006271001175043,3.6470401595473287,1.04030531738773
1759157863637695500,12.628695556640626,-0.5757984850049018,4.040654861974716,2.7167829244613646
1759157863647755300,12.63875537109375,-0.803470637820661,3.350692237651348,4.517812063224613
1759157863657815600,12.648815673828125,-0.6078863986611366,2.125048034656048,6.02702858543396
1759157863667874300,12.658874267578126,0.5497292471162974,0.09189619340896606,6.583409253263473
1759157863677934300,12.668934326171875,2.0157105848416683,-3.9978567537337537,7.170808744212985
1759157863687994400,12.678994384765625,2.928016860434413,-9.835368729484081,8.025705325627326
1759157863698053400,12.689053466796874,-0.5453282356783747,-13.393358148181438,6.764449126502871
1759157863708113400,12.699113525390626,-4.051430815272033,-10.620341879844664,4.593851346810162
1759157863718172700,12.709172607421875,-5.109534970331191,-3.2977228640079495,3.882659179714322
1759157863728232400,12.719232421875,-5.202465767484903,2.640306418502331,3.7147120122820136
1759157863738292500,12.72929248046875,-3.4648499472290277,5.6319052320092915,3.7599586827188727
1759157863748351200,12.739351318359375,-2.177234879619628,7.490583718925714,4.189066723331809
