time,seconds_elapsed,z,y,x
1759347271586978800,0.017978759765625,0.04673208296298981,-0.11468470096588135,0.07444265484809875
1759347271597036800,0.028036865234375,0.044556353241205215,-0.013524935580790043,0.0790165364742279
1759347271607096000,0.038095947265625,0.04658275470137596,0.07916158437728882,0.06474785506725311
1759347271617154800,0.04815478515625,0.052211832255125046,0.14270402491092682,0.04964553192257881
1759347271627213000,0.058213134765625,0.04838274046778679,0.16807356476783752,0.042557261884212494
1759347271637271800,0.068271728515625,0.03983154147863388,0.16090093553066254,0.040692154318094254
1759347271647331000,0.0783310546875,0.036493536084890366,0.14607645571231842,0.036311522126197815
1759347271657389800,0.088389892578125,0.019610242918133736,0.02308383397758007,0.06405523419380188
1759347271667448000,0.098447998046875,0.03558041900396347,-0.002222853945568204,0.07711777091026306
1759347271677506800,0.1085068359375,0.035170137882232666,-0.027465302497148514,0.08177138864994049
1759347271687566000,0.118566162109375,0.03741331771016121,0.04300779849290848,0.041167501360177994
1759347271697624800,0.128624755859375,0.02668222226202488,0.0793750137090683,-0.0037901969626545906
1759347271707682800,0.138682861328125,0.029481207951903343,0.07801360636949539,-0.0335366390645504
1759347271717742000,0.1487421875,0.03783285245299339,0.035557232797145844,-0.03134774789214134
1759347271727800800,0.15880078125,0.029522988945245743,-0.01634591445326805,-0.013251036405563354
1759347271737859800,0.16885986328125,0.02015450969338417,-0.05041525140404701,0.0035952331963926554
1759347271747917800,0.178917724609375,0.009363114833831787,-0.06910158693790436,0.007820338010787964
1759347271757977000,0.18897705078125,0.002831215038895607,-0.06960460543632507,-0.00017306767404079437
1759347271768035800,0.199035888671875,-0.003549985121935606,-0.0579194538295269,-0.015687312930822372
1759347271778094000,0.209093994140625,-0.003139431355521083,-0.021601393818855286,-0.028319649398326874
1759347271788152800,0.21915283203125,0.006362461019307375,0.04503569006919861,-0.03309176489710808
1759347271798212000,0.229212158203125,0.013307452201843262,0.10606255382299423,-0.020273171365261078
1759347271808270800,0.239270751953125,0.005751798395067453,0.13193702697753906,0.0036129853688180447
1759347271818328800,0.249328857421875,0.0009243576787412167,0.13556046783924103,0.023123381659388542
1759347271828388000,0.25938818359375,0.001158716157078743,0.14045563340187073,0.03225669264793396
1759347271838447000,0.269447021484375,0.015242356806993484,0.15883401036262512,0.028285140171647072
1759347271848505900,0.279505859375,0.010871309787034988,0.14578984677791595,0.023427534848451614
1759347271858563800,0.289563720703125,-0.010698199272155762,0.09919671714305878,0.019420204684138298
1759347271868623000,0.299623046875,-0.037374284118413925,0.04529300332069397,0.01491759903728962
1759347271878681900,0.309681884765625,-0.06750339269638062,0.00962161272764206,0.016027141362428665
1759347271888741000,0.3197412109375,-0.09489959478378296,-0.008005318231880665,0.014083034358918667
1759347271898799900,0.3297998046875,-0.12564407289028168,-0.014239147305488586,0.01596970483660698
1759347271908858000,0.339858154296875,-0.14368166029453278,-0.011869999580085278,0.014658631756901741
1759347271918916900,0.349916748046875,-0.14930810034275055,-0.013376661576330662,0.005393235944211483
1759347271928976100,0.35997607421875,-0.14920343458652496,-0.02831459790468216,-0.005585378967225552
1759347271939035000,0.370034912109375,-0.14887946844100952,-0.05315938591957092,-0.01734340563416481
1759347271949092900,0.3800927734375,-0.16657458245754242,-0.07624340057373047,-0.03463291376829147
1759347271959151900,0.39015185546875,-0.1764928549528122,-0.040198154747486115,-0.06132640689611435
1759347271969211100,0.400211181640625,-0.1584046632051468,0.0765974372625351,-0.10525764524936676
1759347271979270000,0.410269775390625,-0.1565708965063095,0.1651964783668518,-0.13497720658779144
1759347271989328000,0.420327880859375,-0.16030704975128174,0.2298833280801773,-0.1509724259376526
1759347271999387100,0.43038720703125,-0.16151759028434753,0.28438371419906616,-0.15723741054534912
1759347272009446000,0.44044580078125,-0.17645633220672607,0.3384045958518982,-0.16024945676326752
1759347272019505000,0.4505048828125,-0.18289169669151306,0.3850565552711487,-0.15848121047019958
1759347272029563000,0.46056298828125,-0.1630554050207138,0.39089393615722656,-0.14466020464897156
1759347272039622100,0.4706220703125,-0.11137204617261887,0.33160480856895447,-0.11692485958337784
1759347272049681000,0.480680908203125,-0.05697804316878319,0.21416233479976654,-0.07598914206027985
1759347272059740200,0.490740234375,-0.029431303963065147,0.054365355521440506,-0.029619291424751282
1759347272069799000,0.500798828125,0.017442993819713593,-0.09573333710432053,0.015472020953893661
1759347272079857000,0.51085693359375,0.07579343020915985,-0.20794197916984558,0.05474654585123062
1759347272089916000,0.520916015625,0.0983155146241188,-0.27402591705322266,0.07473064213991165
1759347272099975000,0.530974853515625,0.08998871594667435,-0.23295564949512482,0.05659932270646095
1759347272110034000,0.541033935546875,0.08328234404325485,-0.15302512049674988,0.015745101496577263
1759347272120092000,0.551091796875,0.12017273157835007,-0.08789427578449249,-0.026710670441389084
1759347272130151000,0.56115087890625,0.16638337075710297,-0.037493154406547546,-0.06765757501125336
1759347272140210000,0.5712099609375,0.21144382655620575,0.0009342759731225669,-0.09290885925292969
1759347272150269000,0.58126904296875,0.2519637942314148,0.1105654314160347,-0.06172909215092659
1759347272160328000,0.591327880859375,0.26933544874191284,0.2624499499797821,-0.007923167198896408
1759347272170386200,0.60138623046875,0.26190441846847534,0.16350391507148743,-0.08935171365737915
1759347272180445000,0.61144482421875,0.2435080111026764,-0.02700223959982395,-0.19682666659355164
1759347272190504200,0.621504150390625,0.23483863472938538,-0.1642405092716217,-0.2515402138233185
1759347272200563000,0.63156298828125,0.2265271693468094,-0.2522590160369873,-0.26421889662742615
1759347272210622000,0.6416220703125,0.19132257997989655,-0.29086074233055115,-0.25814419984817505
1759347272220680000,0.651679931640625,0.1664687842130661,-0.3127525746822357,-0.2391301989555359
1759347272230739000,0.661739013671875,0.17780186235904694,-0.3291621506214142,-0.20978695154190063
1759347272240798000,0.6717978515625,0.2646646797657013,-0.3517729640007019,-0.16718848049640656
1759347272250857000,0.68185693359375,0.440232515335083,-0.40385162830352783,-0.10105527192354202
1759347272260915000,0.6919150390625,0.5870769023895264,-0.34869757294654846,-0.0672827810049057
1759347272270974000,0.701973876953125,0.6969698071479797,-0.3183306157588959,-0.036139778792858124
1759347272281033000,0.712032958984375,0.7365029454231262,-0.2751351594924927,-0.049284134060144424
1759347272291092000,0.722092041015625,0.7528723478317261,-0.21257539093494415,-0.0958404541015625
1759347272301151000,0.73215087890625,0.7741809487342834,-0.1754123717546463,-0.1610434502363205
1759347272311209000,0.742208984375,0.7485962510108948,-0.11858158558607101,-0.2441045045852661
1759347272321268000,0.75226806640625,0.7380716800689697,-0.020158205181360245,-0.3304974138736725
1759347272331327000,0.762326904296875,0.7637965083122253,0.04490920901298523,-0.37349656224250793
1759347272341386000,0.772385986328125,0.7611404061317444,0.09307324886322021,-0.3875529170036316
1759347272351445000,0.782445068359375,0.7592080235481262,0.1559630036354065,-0.3449513912200928
1759347272361503000,0.7925029296875,0.7374638319015503,0.23861557245254517,-0.26744693517684937
1759347272371562000,0.80256201171875,0.6587218642234802,0.27704155445098877,-0.17189644277095795
1759347272381621000,0.81262109375,0.5568106174468994,0.2545395791530609,-0.08998143672943115
1759347272391680000,0.822679931640625,0.45810770988464355,0.18965430557727814,-0.03388620913028717
1759347272401739000,0.832739013671875,0.33828863501548767,0.10998775064945221,-0.033677034080028534
1759347272411797000,0.842796875,0.2470708042383194,0.015960058197379112,-0.07915983349084854
1759347272421856000,0.85285595703125,0.1957065761089325,-0.10415001958608627,-0.13183768093585968
1759347272431915000,0.8629150390625,0.1749376356601715,-0.21218115091323853,-0.1710335612297058
1759347272441974000,0.87297412109375,0.15354406833648682,-0.2831900715827942,-0.20003412663936615
1759347272452033000,0.883032958984375,0.12841688096523285,-0.33801203966140747,-0.20890271663665771
1759347272462092000,0.893092041015625,0.10062012821435928,-0.39489129185676575,-0.1810164898633957
1759347272472150000,0.90314990234375,0.09292493015527725,-0.4454127848148346,-0.12967073917388916
1759347272482209000,0.913208984375,0.0733524039387703,-0.4867580831050873,-0.08382049947977066
1759347272492268000,0.92326806640625,0.05649885535240173,-0.5137441754341125,-0.06467077881097794
1759347272502327000,0.9333271484375,0.0736132562160492,-0.5131413340568542,-0.07507690042257309
1759347272512386000,0.943385986328125,0.09989679604768753,-0.4797402322292328,-0.11351457238197327
1759347272522444000,0.953444091796875,0.10692871361970901,-0.44143956899642944,-0.1589084267616272
1759347272532502800,0.963502685546875,0.10751327872276306,-0.3715353012084961,-0.19158035516738892
1759347272542562000,0.97356201171875,0.10046737641096115,-0.2890450060367584,-0.21578332781791687
1759347272552620800,0.983620849609375,0.11847354471683502,-0.18596602976322174,-0.23482465744018555
1759347272562680000,0.99368017578125,0.18002437055110931,-0.023686924949288368,-0.2509298622608185
1759347272572738800,1.00373876953125,0.2441815286874771,0.18301990628242493,-0.31409525871276855
1759347272582797000,1.013797119140625,0.24601683020591736,0.24765940010547638,-0.44668129086494446
1759347272592855800,1.023855712890625,0.21836763620376587,0.16145074367523193,-0.5242003202438354
1759347272602915000,1.0339150390625,0.1633424013853073,-0.06893549859523773,-0.4380002021789551
1759347272612973800,1.043973876953125,0.17227251827716827,-0.08358554542064667,-0.36083537340164185
1759347272623033000,1.054033203125,0.17611876130104065,0.0803331509232521,-0.35823848843574524
1759347272633091800,1.064091796875,0.1625635325908661,0.14147134125232697,-0.3535606563091278
1759347272643150000,1.074150146484375,0.11151090264320374,0.11220463365316391,-0.30341702699661255
1759347272653209000,1.084208984375,0.028118010610342026,-0.0001879570190794766,-0.23686277866363525
1759347272663268000,1.09426806640625,-0.03197169303894043,-0.11481280624866486,-0.19831939041614532
1759347272673326800,1.104326904296875,-0.050050027668476105,-0.18605183064937592,-0.21261176466941833
1759347272683386000,1.11438623046875,-0.053530819714069366,-0.26007044315338135,-0.2303766906261444
1759347272693444900,1.12444482421875,-0.03592066466808319,-0.3164125382900238,-0.24621637165546417
1759347272703502800,1.1345029296875,-0.06492206454277039,-0.37995484471321106,-0.25496381521224976
1759347272713562000,1.14456201171875,-0.09374332427978516,-0.40313953161239624,-0.2506710886955261
1759347272723620900,1.154620849609375,-0.09884268790483475,-0.40416136384010315,-0.2231249362230301
1759347272733680000,1.16468017578125,-0.0903133824467659,-0.3929092288017273,-0.1820233166217804
1759347272743739000,1.17473876953125,-0.08705220371484756,-0.38329580426216125,-0.14442823827266693
1759347272753798000,1.1847978515625,-0.08585218340158463,-0.3744746148586273,-0.11424369364976883
1759347272763856000,1.19485595703125,-0.07572461664676666,-0.37929272651672363,-0.1019883006811142
1759347272773915100,1.2049150390625,-0.06741928309202194,-0.3783997595310211,-0.10152783989906311
1759347272783974000,1.214973876953125,-0.057938557118177414,-0.38528597354888916,-0.10482028126716614
1759347272794033200,1.225033203125,-0.0477471724152565,-0.3875640332698822,-0.11302734166383743
1759347272804092000,1.235091796875,-0.04630165174603462,-0.37444889545440674,-0.13330435752868652
1759347272814151200,1.245151123046875,-0.04955203831195831,-0.36213311553001404,-0.1647818684577942
1759347272824209700,1.255209716796875,-0.03167572245001793,-0.3424133360385895,-0.19459976255893707
1759347272834267600,1.265267578125,-0.019785506650805473,-0.33151620626449585,-0.23339270055294037
1759347272844326700,1.27532666015625,-0.025800753384828568,-0.3385773301124573,-0.2739412784576416
1759347272854385700,1.2853857421875,-0.031927354633808136,-0.3675365447998047,-0.31016239523887634
1759347272864444700,1.295444580078125,-0.040278542786836624,-0.4158245921134949,-0.3414348065853119
1759347272874503700,1.305503662109375,-0.048707712441682816,-0.4626315236091614,-0.356594055891037
1759347272884562700,1.315562744140625,-0.03875087946653366,-0.4787541627883911,-0.37649133801460266
1759347272894620700,1.32562060546875,-0.016402164474129677,-0.46410489082336426,-0.3933352828025818
1759347272904679700,1.3356796875,-0.019384119659662247,-0.4147931933403015,-0.40711429715156555
1759347272914738700,1.34573876953125,-0.02620234526693821,-0.35955098271369934,-0.39491355419158936
1759347272924797700,1.355797607421875,-0.03295708820223808,-0.29887300729751587,-0.3531436026096344
1759347272934856700,1.365856689453125,-0.04330400004982948,-0.224873349070549,-0.2956598103046417
1759347272944915700,1.375915771484375,-0.04288480430841446,-0.14990094304084778,-0.23562487959861755
1759347272954974700,1.385974609375,-0.03958994150161743,-0.07631807029247284,-0.18073979020118713
1759347272965033700,1.39603369140625,-0.030362416058778763,-0.02091141790151596,-0.1322372406721115
1759347272975091700,1.406091796875,-0.01529877819120884,0.003935341723263264,-0.09180726110935211
1759347272985150500,1.416150390625,-0.007279140874743462,0.0009096075082197785,-0.05532807856798172
1759347272995209700,1.426209716796875,-0.02189270593225956,0.011320702731609344,-0.02325616031885147
1759347273005268500,1.4362685546875,-0.050236091017723083,0.026909539476037025,0.006020238623023033
1759347273015327700,1.44632763671875,-0.08132903277873993,0.02903607301414013,0.03640637546777725
1759347273025386500,1.456386474609375,-0.10300979018211365,-0.006422387436032295,0.08064523339271545
1759347273035445800,1.46644580078125,-0.11683478951454163,-0.07137315720319748,0.11907491087913513
1759347273045503700,1.476503662109375,-0.1063683032989502,-0.1358761042356491,0.1486416906118393
1759347273055562800,1.486562744140625,-0.09509541094303131,-0.19597911834716797,0.1299806535243988
1759347273065621500,1.49662158203125,-0.08397772163152695,-0.24850372970104218,0.057565927505493164
1759347273075680800,1.5066806640625,-0.057135459035634995,-0.2950129210948944,-0.04514474421739578
1759347273085739500,1.516739501953125,-0.020376896485686302,-0.33798807859420776,-0.14818339049816132
1759347273095798800,1.526798828125,0.011669186875224113,-0.40605607628822327,-0.23655426502227783
1759347273105857500,1.536857421875,0.06549741327762604,-0.48311659693717957,-0.3013802468776703
1759347273115916800,1.546916748046875,0.10683473199605942,-0.4780118465423584,-0.35940226912498474
1759347273125974500,1.556974609375,0.1274316906929016,-0.370281457901001,-0.39951014518737793
1759347273136033800,1.56703369140625,0.13670429587364197,-0.199257493019104,-0.41528192162513733
1759347273146092500,1.577092529296875,0.14227063953876495,-0.014126304537057877,-0.4083525240421295
1759347273156151800,1.58715185546875,0.14099472761154175,0.14680612087249756,-0.3777458667755127
1759347273166210600,1.59721044921875,0.13928446173667908,0.27568522095680237,-0.33864086866378784
1759347273176269800,1.607269775390625,0.1425550878047943,0.35888877511024475,-0.30280113220214844
1759347273186328600,1.61732861328125,0.1337718516588211,0.37998148798942566,-0.27810171246528625
1759347273196387800,1.627387939453125,0.09554270654916763,0.33313170075416565,-0.2656991183757782
1759347273206446600,1.637446533203125,0.034015998244285583,0.23947803676128387,-0.27172785997390747
1759347273216505900,1.647505859375,0.0028556818142533302,0.13391779363155365,-0.2850455343723297
1759347273226563600,1.6575634765625,-0.016691148281097412,0.06945052742958069,-0.29637646675109863
1759347273236622600,1.66762255859375,0.0020436574704945087,0.06715647876262665,-0.301505446434021
1759347273246681600,1.677681640625,0.02208549529314041,0.1176203042268753,-0.3014790117740631
1759347273256740900,1.687740966796875,0.02593030035495758,0.19232091307640076,-0.29081010818481445
1759347273266799600,1.697799560546875,0.03160633146762848,0.2681202292442322,-0.26673516631126404
1759347273276859000,1.70785888671875,0.04447632282972336,0.3446999788284302,-0.2275550216436386
1759347273286917600,1.717917724609375,0.05163302272558212,0.42161527276039124,-0.1924123764038086
1759347273296977000,1.727976806640625,0.05136537551879883,0.48029083013534546,-0.174059197306633
1759347273307035600,1.73803564453125,0.05757226422429085,0.49105483293533325,-0.18612387776374817
1759347273317095000,1.748094970703125,0.06922917813062668,0.45904281735420227,-0.22930143773555756
1759347273327152600,1.758152587890625,0.06895472854375839,0.4155231714248657,-0.2839365303516388
1759347273337211600,1.768211669921875,0.054900698363780975,0.4052950441837311,-0.34547552466392517
1759347273347270700,1.778270751953125,0.053813181817531586,0.43794354796409607,-0.39718082547187805
1759347273357329700,1.78832958984375,0.04466735199093819,0.48356136679649353,-0.4262223243713379
1759347273367388700,1.798388671875,0.008798881433904171,0.5283541083335876,-0.4387979209423065
1759347273377447700,1.80844775390625,-0.041827015578746796,0.5456963777542114,-0.4481453597545624
1759347273387506700,1.818506591796875,-0.07481566816568375,0.5215071439743042,-0.44820305705070496
1759347273397565700,1.828565673828125,-0.09285139292478561,0.4850788116455078,-0.44466957449913025
1759347273407624700,1.838624755859375,-0.10010933876037598,0.4511485695838928,-0.4605702757835388
1759347273417683700,1.84868359375,-0.10716830939054489,0.42043113708496094,-0.4920043647289276
1759347273427741700,1.85874169921875,-0.10239101946353912,0.41323649883270264,-0.5332272052764893
1759347273437800700,1.86880078125,-0.0826018676161766,0.4499732255935669,-0.5604851841926575
1759347273447859700,1.878859619140625,-0.06588783115148544,0.5028707981109619,-0.5575774908065796
1759347273457918700,1.888918701171875,-0.056200578808784485,0.553747296333313,-0.514512836933136
1759347273467977700,1.898977783203125,-0.06469514966011047,0.5882734656333923,-0.4418964684009552
1759347273478036700,1.90903662109375,-0.0835452750325203,0.6249305009841919,-0.3545498251914978
1759347273488095700,1.919095703125,-0.09034346044063568,0.7211766242980957,-0.258171021938324
1759347273498154800,1.92915478515625,-0.07557064294815063,0.7517052292823792,-0.22649802267551422
1759347273508213800,1.9392138671875,-0.052208494395017624,0.6991518139839172,-0.2835463881492615
1759347273518272500,1.9492724609375,-0.026597408577799797,0.6357632875442505,-0.40849363803863525
1759347273528331800,1.959331787109375,-0.00488413218408823,0.6026321053504944,-0.5617560148239136
1759347273538390500,1.969390625,-0.015130111947655678,0.5760753154754639,-0.7043461799621582
1759347273548449800,1.97944970703125,-0.037815891206264496,0.5282939672470093,-0.8358885645866394
1759347273558507800,1.9895078125,-0.08493919670581818,0.45410043001174927,-0.9314026236534119
1759347273568566800,1.99956689453125,-0.14945055544376373,0.47184979915618896,-0.8926625847816467
1759347273578625800,2.009625732421875,-0.244881734251976,0.5458603501319885,-0.7463629245758057
1759347273588684800,2.019684814453125,-0.34562113881111145,0.5567041039466858,-0.5678339004516602
1759347273598743600,2.02974365234375,-0.428140789270401,0.46305108070373535,-0.4372926950454712
1759347273608802800,2.039802734375,-0.5236030220985413,0.36970606446266174,-0.3582613468170166
1759347273618861600,2.049861572265625,-0.6037956476211548,0.313088059425354,-0.3209424614906311
1759347273628920800,2.0599208984375,-0.6314465403556824,0.2904408574104309,-0.3098461329936981
1759347273638979600,2.0699794921875,-0.6427149176597595,0.26344436407089233,-0.29904356598854065
1759347273649038800,2.080038818359375,-0.6626081466674805,0.19112205505371094,-0.25864097476005554
1759347273659097600,2.09009765625,-0.6895662546157837,0.0732492059469223,-0.17251329123973846
1759347273669156900,2.100156982421875,-0.6995144486427307,-0.09093448519706726,-0.07030882686376572
1759347273679215600,2.110215576171875,-0.6542785167694092,-0.28504908084869385,0.06455524265766144
1759347273689275000,2.12027490234375,-0.5572859048843384,-0.40523168444633484,0.22157563269138336
1759347273699332600,2.13033251953125,-0.42221543192863464,-0.4519810676574707,0.4195944368839264
1759347273709391600,2.1403916015625,-0.2743491530418396,-0.49679672718048096,0.6798466444015503
1759347273719450600,2.15045068359375,-0.12005946040153503,-0.5660120248794556,0.9802983403205872
1759347273729509600,2.160509521484375,0.028957344591617584,-0.7014886140823364,1.2863314151763916
1759347273739568600,2.170568603515625,0.1592719405889511,-0.9261795282363892,1.574038028717041
1759347273749627600,2.180627685546875,0.26205873489379883,-1.1734446287155151,1.8332573175430298
1759347273759686700,2.190686767578125,0.3498748540878296,-1.339864730834961,2.060917615890503
1759347273769745700,2.20074560546875,0.4211944341659546,-1.4205148220062256,2.2686092853546143
1759347273779804700,2.2108046875,0.4524863064289093,-1.4202810525894165,2.449435234069824
1759347273789863700,2.22086376953125,0.42986443638801575,-1.341611385345459,2.5880374908447266
1759347273799922700,2.230922607421875,0.35588154196739197,-1.2539312839508057,2.6643435955047607
1759347273809981700,2.240981689453125,0.21713493764400482,-1.078927755355835,2.626967668533325
1759347273820041700,2.251041748046875,0.0397588312625885,-0.7692314386367798,2.4894165992736816
1759347273830100500,2.2611005859375,-0.092673160135746,-0.3387979567050934,2.346930742263794
1759347273840159700,2.27115966796875,-0.10751549154520035,0.19321750104427338,2.2785403728485107
1759347273850218500,2.281218505859375,0.026429392397403717,0.7508134245872498,2.294086217880249
1759347273860277800,2.29127783203125,0.17565056681632996,1.2458481788635254,2.322112798690796
1759347273870336500,2.30133642578125,0.24120968580245972,1.4557139873504639,2.3086729049682617
1759347273880395800,2.311395751953125,0.1991884708404541,1.4724059104919434,2.2277629375457764
1759347273890453500,2.32145361328125,0.13476848602294922,1.4795973300933838,2.0364298820495605
1759347273900512500,2.331512451171875,0.09308522194623947,1.451724648475647,1.7626278400421143
1759347273910571500,2.341571533203125,0.06460342556238174,1.343505620956421,1.413156509399414
1759347273920630500,2.351630615234375,0.06641996651887894,0.7223975658416748,0.8882243633270264
1759347273930689500,2.361689453125,0.1113559752702713,0.08320359140634537,0.4714941680431366
1759347273940748500,2.37174853515625,0.26591598987579346,-0.16969230771064758,0.3408256471157074
1759347273950807600,2.3818076171875,0.4491817355155945,0.004620106425136328,0.4925253987312317
1759347273960866600,2.391866455078125,0.6299570798873901,0.46011093258857727,0.7549008131027222
1759347273970925600,2.401925537109375,0.8055678009986877,0.9541330933570862,1.0094252824783325
1759347273980984600,2.411984619140625,1.015110731124878,1.2235496044158936,1.1414296627044678
1759347273991043600,2.422043701171875,1.0632240772247314,1.107818365097046,1.1003819704055786
1759347274001102300,2.432102294921875,0.9579746723175049,0.7573249936103821,0.9424682259559631
1759347274011161600,2.44216162109375,0.8367862105369568,0.32597416639328003,0.7823293805122375
1759347274021220600,2.452220703125,0.7939998507499695,-0.17428945004940033,0.634952187538147
1759347274031279600,2.462279541015625,0.7765322327613831,-0.5388547778129578,0.526070237159729
1759347274041338600,2.472338623046875,0.8019198775291443,-0.7805811166763306,0.5169169306755066
1759347274051397600,2.482397705078125,0.8196681141853333,-0.9277850389480591,0.5769901871681213
1759347274061456600,2.49245654296875,0.8406005501747131,-1.184541940689087,0.6854817867279053
1759347274071515600,2.502515625,0.8148479461669922,-1.4736663103103638,0.7938560247421265
1759347274081574700,2.51257470703125,0.7662506103515625,-1.6730960607528687,0.8866536021232605
1759347274091633700,2.522633544921875,0.721716046333313,-1.6952869892120361,0.9425928592681885
1759347274101692700,2.532692626953125,0.7056907415390015,-1.5356364250183105,0.9370630979537964
1759347274111751700,2.542751708984375,0.7048075795173645,-1.3471072912216187,0.8601151704788208
1759347274121810700,2.552810791015625,0.701920211315155,-1.1707921028137207,0.7194923162460327
1759347274131869400,2.562869384765625,0.6976050734519958,-1.0416760444641113,0.5593874454498291
1759347274141928700,2.5729287109375,0.7036528587341309,-0.9404534101486206,0.4099803566932678
1759347274151987500,2.582987548828125,0.6858791708946228,-0.8782790899276733,0.29303863644599915
1759347274162046700,2.593046630859375,0.6362103819847107,-0.9013351798057556,0.20475085079669952
1759347274172104700,2.603104736328125,0.5673961639404297,-0.9570841789245605,0.10901283472776413
1759347274182163500,2.61316357421875,0.4686110019683838,-1.0658369064331055,0.057786133140325546
1759347274192222700,2.62322265625,0.3631478250026703,-1.087542176246643,0.014220567420125008
1759347274202281500,2.633281494140625,0.27536365389823914,-1.0650901794433594,-0.039755046367645264
1759347274212340500,2.643340576171875,0.23529450595378876,-1.072830080986023,-0.0860835388302803
1759347274222399500,2.6533994140625,0.18930891156196594,-1.1042340993881226,-0.13115194439888
1759347274232458500,2.66345849609375,0.16535408794879913,-1.0904240608215332,-0.15092217922210693
1759347274242517500,2.673517578125,0.19898554682731628,-1.0264538526535034,-0.15717501938343048
1759347274252576500,2.683576416015625,0.2783139646053314,-0.9790216684341431,-0.1606457382440567
1759347274262635500,2.693635498046875,0.40704238414764404,-0.9190129041671753,-0.17413091659545898
1759347274272694500,2.703694580078125,0.5820298790931702,-0.8452504873275757,-0.1634303778409958
1759347274282753500,2.71375341796875,0.7879167199134827,-0.6836501359939575,-0.1393817663192749
1759347274292812500,2.7238125,0.9690605401992798,-0.5209447145462036,-0.09588465094566345
1759347274302871600,2.73387158203125,1.0693495273590088,-0.42469117045402527,-0.02372657135128975
1759347274312930600,2.7439306640625,1.0932053327560425,-0.37404680252075195,0.0269427802413702
1759347274322989600,2.753989501953125,1.0001481771469116,-0.3395918905735016,0.03780288249254227
1759347274333048600,2.764048583984375,0.8554197549819946,-0.30275946855545044,-0.0001703263260424137
1759347274343107600,2.774107666015625,0.6762124300003052,-0.265540212392807,-0.09615970402956009
1759347274353166600,2.78416650390625,0.5007697343826294,-0.21627938747406006,-0.26874735951423645
1759347274363225300,2.794225341796875,0.26197075843811035,-0.32377681136131287,-0.48651137948036194
1759347274373284600,2.80428466796875,0.03105618804693222,-0.4442250430583954,-0.7336454391479492
1759347274383343400,2.81434326171875,-0.18091490864753723,-0.5292614102363586,-1.0303484201431274
1759347274393402600,2.824402587890625,-0.3923614025115967,-0.5785580277442932,-1.326410174369812
1759347274403461400,2.83446142578125,-0.5979819297790527,-0.5715150237083435,-1.5520821809768677
1759347274413520600,2.844520751953125,-0.8890880942344666,-0.40494823455810547,-1.6837081909179688
1759347274423579400,2.854579345703125,-1.3627421855926514,-0.11620299518108368,-1.667636752128601
1759347274433638700,2.864638671875,-1.852840542793274,0.1573956310749054,-1.241011619567871
1759347274443697400,2.874697509765625,-2.2074341773986816,0.4065876007080078,-0.5245994329452515
1759347274453756700,2.884756591796875,-2.091726541519165,0.6309210062026978,-0.08804517984390259
1759347274463815400,2.8948154296875,-1.299705982208252,0.9989072680473328,0.29562926292419434
1759347274473874700,2.904874755859375,-0.45243537425994873,0.8846940994262695,0.6242362856864929
1759347274483933400,2.914933349609375,-0.08835487812757492,0.45453473925590515,0.4652649760246277
1759347274493992400,2.924992431640625,-0.09887772798538208,0.078261598944664,0.14275163412094116
1759347274504051500,2.935051513671875,-0.1567801684141159,-0.1420569270849228,-0.12943966686725616
1759347274514110500,2.9451103515625,-0.2052515149116516,-0.20895859599113464,-0.39681780338287354
1759347274524169700,2.955169677734375,-0.2916569709777832,-0.19351226091384888,-0.7364661693572998
1759347274534228500,2.965228515625,-0.3690161108970642,-0.16070067882537842,-1.1247111558914185
1759347274544287700,2.975287841796875,-0.40632912516593933,-0.08088894188404083,-1.4536477327346802
1759347274554346500,2.985346435546875,-0.38370561599731445,0.0465519055724144,-1.6625994443893433
1759347274564405800,2.99540576171875,-0.3325425684452057,0.15536920726299286,-1.7130612134933472
1759347274574464500,3.005464599609375,-0.2171049267053604,0.19027827680110931,-1.5636264085769653
1759347274584523800,3.015523681640625,-0.052059516310691833,0.12138629704713821,-1.27548086643219
1759347274594582500,3.02558251953125,0.080198734998703,-0.06886780261993408,-0.8914228081703186
1759347274604641800,3.035641845703125,-0.000028192996978759766,-0.2632000148296356,-0.5241513252258301
1759347274614700500,3.045700439453125,-0.2926853597164154,-0.39698052406311035,-0.21308332681655884
1759347274624759600,3.055759521484375,-0.7086575627326965,-0.5297939777374268,-0.0310932956635952
1759347274634818600,3.065818603515625,-1.0924218893051147,-0.5923742055892944,-0.1955862045288086
1759347274644877600,3.075877685546875,-1.2355386018753052,-0.1463192105293274,-1.0984447002410889
1759347274654936600,3.0859365234375,-1.0096566677093506,0.4149353802204132,-1.9512481689453125
1759347274664995600,3.09599560546875,-0.5617498755455017,0.8591980338096619,-2.393697738647461
1759347274675054600,3.1060546875,-0.09083334356546402,1.2029451131820679,-2.3864047527313232
1759347274685113600,3.116113525390625,0.3024787902832031,1.1836023330688477,-2.056650161743164
1759347274695172600,3.126172607421875,0.6208400130271912,1.0714528560638428,-1.5892319679260254
1759347274705231600,3.136231689453125,0.8249436020851135,1.1313798427581787,-1.1913772821426392
1759347274715290600,3.14629052734375,0.8888606429100037,1.4783130884170532,-1.0264912843704224
1759347274725349600,3.156349609375,0.7915775179862976,1.967718243598938,-1.0403075218200684
1759347274735408600,3.16640869140625,0.5675517916679382,2.3173234462738037,-1.1288336515426636
1759347274745467600,3.176467529296875,0.472641259431839,2.29951548576355,-1.208978295326233
1759347274755526700,3.186526611328125,0.5865147709846497,1.9040449857711792,-1.2669150829315186
1759347274765585700,3.196585693359375,0.7078204154968262,1.2819536924362183,-1.3138830661773682
1759347274775644400,3.20664453125,0.6867730021476746,0.6242082715034485,-1.315342903137207
1759347274785703700,3.21670361328125,0.48255807161331177,0.05844791233539581,-1.2129640579223633
1759347274795762400,3.226762451171875,0.18256159126758575,-0.25623345375061035,-1.0168012380599976
1759347274805821700,3.23682177734375,-0.11053206026554108,-0.31651994585990906,-0.7462091445922852
1759347274815880400,3.24688037109375,-0.3295060694217682,-0.11640972644090652,-0.4604777693748474
1759347274825939500,3.256939453125,-0.47562867403030396,0.17127478122711182,-0.22222046554088593
1759347274835998200,3.266998291015625,-0.5262889266014099,0.45455610752105713,-0.11471273750066757
1759347274846057500,3.277057373046875,-0.5116825699806213,0.6441609263420105,-0.12331794947385788
1759347274856116200,3.2871162109375,-0.47641491889953613,0.7087514996528625,-0.20495706796646118
1759347274866175500,3.297175537109375,-0.45107123255729675,0.5966014862060547,-0.38984036445617676
1759347274876234200,3.307234130859375,-0.4275715947151184,0.4049065113067627,-0.5961006879806519
1759347274886293500,3.31729345703125,-0.3891216814517975,0.23673957586288452,-0.7127735018730164
1759347274896352300,3.327352294921875,-0.3520291745662689,0.14063583314418793,-0.7297483086585999
1759347274906411500,3.33741162109375,-0.35905832052230835,0.09280040115118027,-0.6812452077865601
1759347274916470300,3.34747021484375,-0.3853920102119446,0.058895133435726166,-0.5720813870429993
1759347274926529300,3.357529296875,-0.3808861970901489,0.14292505383491516,-0.4698452949523926
1759347274936588300,3.36758837890625,-0.37278833985328674,0.2504251301288605,-0.40553849935531616
1759347274946647300,3.377647216796875,-0.34218913316726685,0.2515346109867096,-0.40808767080307007
1759347274956706300,3.387706298828125,-0.284406840801239,0.12327999621629715,-0.4864773750305176
1759347274966765300,3.397765380859375,-0.22149339318275452,-0.0659293383359909,-0.5965932011604309
1759347274976824300,3.40782421875,-0.18721258640289307,-0.20341628789901733,-0.6883454918861389
1759347274986883300,3.41788330078125,-0.19686414301395416,-0.2437645047903061,-0.7418635487556458
1759347274996942300,3.4279423828125,-0.20492859184741974,-0.2445441335439682,-0.7982913851737976
1759347275007001300,3.43800146484375,-0.24198488891124725,-0.006097478326410055,-0.7406110167503357
1759347275017060400,3.448060302734375,-0.25411322712898254,0.39087146520614624,-0.5872642397880554
1759347275027119400,3.458119384765625,-0.22769732773303986,0.7878286838531494,-0.40342703461647034
1759347275037178400,3.468178466796875,-0.1832544058561325,1.0495376586914062,-0.20410683751106262
1759347275047238400,3.47823828125,-0.12829315662384033,1.0894930362701416,-0.048335347324609756
1759347275057297400,3.48829736328125,-0.13036677241325378,0.8752443790435791,0.08433230221271515
1759347275067356400,3.4983564453125,-0.21213780343532562,0.4876956343650818,0.2708742022514343
1759347275077415400,3.50841552734375,-0.3284272849559784,0.20157864689826965,0.5564567446708679
1759347275087474400,3.518474365234375,-0.3801408112049103,0.12507055699825287,0.8619900345802307
1759347275097533400,3.528533447265625,-0.3467548191547394,0.12052448838949203,1.1453837156295776
1759347275107592400,3.538592529296875,-0.22332555055618286,0.10990060865879059,1.4194918870925903
1759347275117651500,3.5486513671875,-0.052268750965595245,0.10722695291042328,1.7111971378326416
1759347275127710500,3.55871044921875,0.1517842561006546,0.005891806446015835,2.030144691467285
1759347275137769500,3.56876953125,0.3542700409889221,-0.3555182218551636,2.3569893836975098
1759347275147828200,3.578828125,0.5285086631774902,-0.9582741856575012,2.622291088104248
1759347275157887500,3.588887451171875,0.7018014192581177,-1.6996667385101318,2.7500102519989014
1759347275167946200,3.5989462890625,0.866898238658905,-2.372532606124878,2.7454326152801514
1759347275178005500,3.609005615234375,0.9850916862487793,-2.849609613418579,2.623211145401001
1759347275188064300,3.619064208984375,0.992741048336029,-2.9899792671203613,2.418872356414795
1759347275198123500,3.62912353515625,0.8551493883132935,-2.6000659465789795,2.172969102859497
1759347275208182300,3.639182373046875,0.6553361415863037,-1.5853554010391235,1.9630064964294434
1759347275218241500,3.649241455078125,0.5033069849014282,-0.078623466193676,1.8371630907058716
1759347275228300300,3.65930029296875,0.5186819434165955,1.4965412616729736,1.8803459405899048
1759347275238359600,3.669359619140625,0.6104754209518433,2.669196128845215,2.0325300693511963
1759347275248418300,3.679418212890625,0.5904879570007324,3.317565441131592,2.1632745265960693
1759347275258477600,3.6894775390625,0.5419102907180786,2.8476336002349854,2.238924026489258
1759347275268536300,3.699536376953125,0.5851709246635437,1.87093985080719,2.1657159328460693
1759347275278595300,3.70959521484375,0.5790865421295166,1.2060645818710327,1.9573791027069092
1759347275288654300,3.719654296875,0.35421085357666016,1.0455878973007202,1.4828485250473022
1759347275298713300,3.72971337890625,0.2184295654296875,0.4155244827270508,0.47690168023109436
1759347275308772400,3.7397724609375,0.2742060124874115,-0.4076010584831238,-0.4882774353027344
1759347275318831400,3.749831298828125,0.5408574342727661,-0.4557439982891083,-0.7660734057426453
1759347275328890400,3.759890380859375,0.8731381893157959,0.32729005813598633,-0.35168689489364624
1759347275338949400,3.769949462890625,1.1257833242416382,0.7760727405548096,0.20427486300468445
1759347275349008400,3.78000830078125,1.2222989797592163,0.7737459540367126,0.7029895782470703
1759347275359067400,3.7900673828125,1.1091641187667847,0.26364877820014954,0.9807059168815613
1759347275369126400,3.80012646484375,0.8193562626838684,-0.3469645380973816,1.1017812490463257
1759347275379185400,3.810185302734375,0.6081992387771606,-0.9258226156234741,1.088486909866333
1759347275389244400,3.820244384765625,0.5593531131744385,-1.2748442888259888,1.089389681816101
1759347275399303400,3.830303466796875,0.546628475189209,-1.3435440063476562,1.1281180381774902
1759347275409362400,3.840362548828125,0.5371977090835571,-1.1138657331466675,1.1697909832000732
1759347275419421400,3.85042138671875,0.5554617047309875,-1.048205852508545,1.1723573207855225
1759347275429480200,3.860480224609375,0.5007989406585693,-1.1071232557296753,1.1672674417495728
1759347275439540500,3.87054052734375,0.44082194566726685,-1.252278447151184,1.1781238317489624
1759347275449599200,3.88059912109375,0.45388156175613403,-1.4118388891220093,1.1381365060806274
1759347275459658500,3.890658447265625,0.5270469784736633,-1.391078233718872,1.0073192119598389
1759347275469717200,3.90071728515625,0.6364046335220337,-1.2038103342056274,0.7737374305725098
1759347275479776300,3.9107763671875,0.7164298295974731,-0.9671803712844849,0.4280001223087311
1759347275489835300,3.920835205078125,0.7408472895622253,-0.7525157332420349,0.025024164468050003
1759347275499894300,3.930894287109375,0.7221725583076477,-0.6680678129196167,-0.315379798412323
1759347275509953300,3.940953369140625,0.6913190484046936,-0.7455165386199951,-0.5062165856361389
1759347275520012300,3.95101220703125,0.5808520913124084,-0.9387098550796509,-0.5275252461433411
1759347275530071300,3.9610712890625,0.44317492842674255,-1.0601806640625,-0.44786426424980164
1759347275540130300,3.97113037109375,0.29801711440086365,-1.1869397163391113,-0.3265548348426819
1759347275550189300,3.981189208984375,0.14787635207176208,-1.1616369485855103,-0.2600533068180084
1759347275560248300,3.991248291015625,0.004892440512776375,-1.0898303985595703,-0.24499264359474182
1759347275570307300,4.001307373046875,-0.1300070583820343,-1.036312222480774,-0.24205251038074493
1759347275580366300,4.011366455078125,-0.20394636690616608,-1.0242654085159302,-0.2564573884010315
1759347275590425300,4.02142529296875,-0.2632240653038025,-1.0847492218017578,-0.267140656709671
1759347275600484400,4.031484375,-0.272890567779541,-1.2327841520309448,-0.23211489617824554
1759347275610543400,4.04154345703125,-0.2575869858264923,-1.3675975799560547,-0.18313457071781158
1759347275620602400,4.051602294921875,-0.22803564369678497,-1.4589956998825073,-0.16890159249305725
1759347275630661400,4.061661376953125,-0.13872280716896057,-1.5082902908325195,-0.15563265979290009
1759347275640720400,4.071720458984375,-0.008446866646409035,-1.4661593437194824,-0.11351195722818375
1759347275650779100,4.081779052734375,0.1413985639810562,-1.2684180736541748,-0.059233807027339935
1759347275660838400,4.09183837890625,0.2684424817562103,-0.9526395797729492,-0.0028744498267769814
1759347275670897200,4.101897216796875,0.3360191285610199,-0.6552891135215759,0.08207053691148758
1759347275680956400,4.111956298828125,0.3683043420314789,-0.44102370738983154,0.1708454191684723
1759347275691015200,4.12201513671875,0.3991815745830536,-0.3405833840370178,0.2294972836971283
1759347275701074400,4.132074462890625,0.4148593246936798,-0.2734120786190033,0.1983039379119873
1759347275711133200,4.14213330078125,0.35465139150619507,-0.2468683421611786,0.07506615668535233
1759347275721192400,4.1521923828125,0.1855188012123108,-0.2280765175819397,-0.11502768099308014
1759347275731251200,4.162251220703125,-0.07608989626169205,-0.21978875994682312,-0.36718615889549255
1759347275741311200,4.172311279296875,-0.42100587487220764,-0.2149403840303421,-0.6434897184371948
1759347275751370500,4.18237060546875,-0.7793152928352356,-0.08871161192655563,-0.8896395564079285
1759347275761429200,4.19242919921875,-1.104015827178955,0.10917247086763382,-0.9844369292259216
1759347275771488500,4.202488525390625,-1.3296012878417969,0.28511446714401245,-0.9932786822319031
1759347275781547300,4.21254736328125,-1.4184974431991577,0.5024206638336182,-0.9338051676750183
1759347275791606500,4.2226064453125,-1.3392947912216187,0.8567327260971069,-0.8014399409294128
1759347275801665300,4.232665283203125,-0.9032948017120361,1.0328258275985718,-0.6677786111831665
1759347275811724500,4.242724609375,-0.4010111689567566,0.9704834222793579,-0.5648684501647949
1759347275821783300,4.252783203125,-0.14354662597179413,0.8617731928825378,-0.5306133031845093
1759347275831842300,4.26284228515625,-0.20926545560359955,0.8250048160552979,-0.6050992608070374
1759347275841901300,4.2729013671875,-0.35857754945755005,0.751306414604187,-0.7196961641311646
1759347275851960300,4.282960205078125,-0.4445246756076813,0.5721824765205383,-0.8721192479133606
1759347275862019300,4.293019287109375,-0.48682957887649536,0.3442937433719635,-1.0360891819000244
1759347275872078300,4.303078369140625,-0.4699195921421051,0.13681912422180176,-1.2128665447235107
1759347275882137300,4.313137451171875,-0.37926170229911804,-0.09929170459508896,-1.3807330131530762
1759347275892196400,4.3231962890625,-0.2956107556819916,-0.38427096605300903,-1.493743896484375
1759347275902255400,4.33325537109375,-0.1770889312028885,-0.6295607686042786,-1.498435139656067
1759347275912314400,4.343314453125,-0.0319807343184948,-0.7868603467941284,-1.3812313079833984
1759347275922373400,4.353373291015625,0.0781741738319397,-0.9220560193061829,-1.1437511444091797
1759347275932432400,4.363432373046875,0.050051458179950714,-1.1162046194076538,-0.7921159267425537
1759347275942491400,4.373491455078125,-0.10896173864603043,-1.293691635131836,-0.4305543005466461
1759347275952550400,4.38355029296875,-0.4081963896751404,-1.3480169773101807,-0.20334938168525696
1759347275962609400,4.393609375,-0.7391244769096375,-1.1630476713180542,-0.22980108857154846
1759347275972668400,4.40366845703125,-0.8922637104988098,-0.22574278712272644,-0.934758722782135
1759347275982727200,4.41372705078125,-0.671453058719635,0.8178170919418335,-1.7886532545089722
1759347275992786400,4.423786376953125,-0.17131590843200684,1.5664955377578735,-2.375178813934326
1759347276002845200,4.43384521484375,0.3307487368583679,2.053457260131836,-2.6032211780548096
1759347276012904400,4.443904541015625,0.6654713153839111,2.27187442779541,-2.4457144737243652
1759347276022964200,4.453964111328125,0.8209040760993958,2.2326812744140625,-2.0167205333709717
1759347276033023200,4.464023193359375,0.856143593788147,2.070937156677246,-1.4805474281311035
1759347276043082200,4.474082275390625,0.8517755270004272,1.8870083093643188,-0.990341305732727
1759347276053141200,4.484141357421875,0.7927790284156799,1.771327018737793,-0.657711386680603
1759347276063200300,4.4942001953125,0.640475332736969,1.7571238279342651,-0.5510873794555664
1759347276073259300,4.50425927734375,0.4091901481151581,1.7174842357635498,-0.5933637619018555
1759347276083318300,4.514318359375,0.27659857273101807,1.6134964227676392,-0.7627703547477722
1759347276093377300,4.524377197265625,0.2502623200416565,1.4248656034469604,-1.011203646659851
1759347276103436300,4.534436279296875,0.2697015404701233,1.1202783584594727,-1.2412830591201782
1759347276113495300,4.544495361328125,0.26125290989875793,0.757074236869812,-1.3524407148361206
1759347276123554300,4.55455419921875,0.18022668361663818,0.48188868165016174,-1.3506712913513184
1759347276133613300,4.56461328125,-0.00008238013833761215,0.4051353335380554,-1.261393666267395
1759347276143672300,4.57467236328125,-0.24495531618595123,0.4259117841720581,-1.0505123138427734
1759347276153731300,4.5847314453125,-0.4447355270385742,0.5043085813522339,-0.7651799321174622
1759347276163790300,4.594790283203125,-0.5677928328514099,0.5750544667243958,-0.5115664005279541
1759347276173849300,4.604849365234375,-0.6111248135566711,0.6118378043174744,-0.3845231831073761
1759347276183908400,4.614908447265625,-0.6413663625717163,0.6499940752983093,-0.4469473659992218
1759347276193967400,4.62496728515625,-0.6703466176986694,0.6775546073913574,-0.6210789680480957
1759347276204026000,4.635026123046875,-0.6870887875556946,0.6668088436126709,-0.8069180250167847
1759347276214085400,4.64508544921875,-0.6641626954078674,0.5856674313545227,-0.9399769902229309
1759347276224144100,4.65514404296875,-0.6029129028320312,0.48680225014686584,-0.9575068354606628
1759347276234203400,4.665203369140625,-0.5319835543632507,0.3958643674850464,-0.8603888154029846
1759347276244262100,4.67526220703125,-0.46091777086257935,0.2980957329273224,-0.686778724193573
1759347276254321400,4.6853212890625,-0.3867785632610321,0.20117822289466858,-0.5228075981140137
1759347276264380200,4.695380126953125,-0.3413936197757721,0.1292446106672287,-0.41083046793937683
1759347276274439400,4.705439453125,-0.324283629655838,0.10418719798326492,-0.34969279170036316
1759347276284498200,4.715498291015625,-0.31165751814842224,0.17526118457317352,-0.3273361325263977
1759347276294557400,4.725557373046875,-0.27194684743881226,0.3570360541343689,-0.3218928873538971
1759347276304616200,4.7356162109375,-0.18377327919006348,0.5690023303031921,-0.3471563160419464
1759347276314675500,4.745675537109375,-0.04668813198804855,0.7855250239372253,-0.3891882002353668
1759347276324734200,4.755734130859375,0.09438152611255646,0.9582266807556152,-0.39539092779159546
1759347276334794200,4.765794189453125,0.2234622836112976,1.1053860187530518,-0.33557820320129395
1759347276344853500,4.775853515625,0.2878516614437103,1.1749733686447144,-0.19779129326343536
1759347276354912300,4.785912353515625,0.2498563677072525,1.1366432905197144,0.03727874159812927
1759347276364971500,4.795971435546875,0.1188802570104599,1.0353981256484985,0.38125887513160706
1759347276375030300,4.8060302734375,-0.04626049846410751,0.8626965880393982,0.7777367234230042
1759347276385089300,4.81608935546875,-0.14903144538402557,0.6762806177139282,1.1194158792495728
1759347276395148300,4.826148193359375,-0.17089040577411652,0.4809420108795166,1.376716136932373
1759347276405207300,4.836207275390625,-0.16112755239009857,0.31168174743652344,1.6338505744934082
1759347276415266300,4.846266357421875,-0.11829087138175964,0.11941510438919067,1.947660207748413
1759347276425325300,4.8563251953125,-0.036269135773181915,-0.18845225870609283,2.285400867462158
1759347276435384300,4.86638427734375,0.0598725788295269,-0.690223217010498,2.5874552726745605
1759347276445443300,4.876443359375,0.16315102577209473,-1.401464819908142,2.786073684692383
1759347276455502300,4.88650244140625,0.2847094237804413,-2.1925199031829834,2.8498876094818115
1759347276465561300,4.896561279296875,0.3790337145328522,-2.864968776702881,2.795393943786621
1759347276475620400,4.906620361328125,0.43421173095703125,-3.3144752979278564,2.672931671142578
1759347276485679400,4.916679443359375,0.4931306540966034,-3.4510138034820557,2.4983010292053223
1759347276495738400,4.92673828125,0.48054268956184387,-3.066746234893799,2.2527973651885986
1759347276505797400,4.93679736328125,0.37476226687431335,-2.104374408721924,1.965368628501892
1759347276515856400,4.9468564453125,0.2695956230163574,-0.7107413411140442,1.7396297454833984
1759347276525915400,4.956915283203125,0.275285929441452,1.031042218208313,1.6854158639907837
1759347276535974100,4.96697412109375,0.3581424653530121,2.901482105255127,1.757991075515747
1759347276546033400,4.977033447265625,0.46198323369026184,4.429718017578125,1.9208178520202637
1759347276556092200,4.987092041015625,0.5693227648735046,5.013828277587891,2.0331618785858154
1759347276566151400,4.9971513671875,0.6521375775337219,4.37741231918335,1.9358277320861816
1759347276576210200,5.007210205078125,0.7277711033821106,2.9434163570404053,1.6078509092330933
1759347276586269400,5.01726953125,0.7104557156562805,1.0733577013015747,0.9583362340927124
1759347276596328200,5.027328125,0.5436102747917175,-0.07372385263442993,0.26692530512809753
1759347276606387500,5.037387451171875,0.45869210362434387,-0.2757137417793274,-0.1904897689819336
1759347276616446200,5.0474462890625,0.5179032683372498,0.18122689425945282,-0.2900030314922333
1759347276626505500,5.05750537109375,0.9635661244392395,0.3940655589103699,-0.2156853973865509
1759347276636564200,5.067564208984375,1.4984474182128906,0.4237973690032959,-0.08946487307548523
1759347276646624300,5.077624267578125,1.5840497016906738,0.40192312002182007,0.18366430699825287
1759347276656683300,5.087683349609375,1.2802722454071045,0.10293959081172943,0.46039390563964844
1759347276666742300,5.0977421875,0.9110654592514038,-0.3028433918952942,0.6670829653739929
1759347276676801300,5.10780126953125,0.6891583800315857,-0.5611414909362793,0.8043910264968872
1759347276686860300,5.1178603515625,0.6666940450668335,-0.7351220846176147,0.8357707262039185
1759347276696919300,5.127919189453125,0.6465946435928345,-0.7841570377349854,0.8179744482040405
1759347276706978300,5.137978271484375,0.6290568113327026,-0.9957450032234192,0.791191816329956
1759347276717037300,5.148037353515625,0.591219961643219,-1.3002769947052002,0.7932752370834351
1759347276727096300,5.158096435546875,0.5334213376045227,-1.5086199045181274,0.8319124579429626
1759347276737155000,5.168155029296875,0.483562171459198,-1.5574398040771484,0.8637995719909668
1759347276747214300,5.17821435546875,0.4669932425022125,-1.4965603351593018,0.8632575869560242
1759347276757273000,5.188273193359375,0.5281564593315125,-1.3282005786895752,0.8162599802017212
1759347276767332400,5.198332275390625,0.5727105140686035,-1.13428795337677,0.7305623888969421
1759347276777391400,5.208391357421875,0.5556535124778748,-0.855291485786438,0.5652980804443359
1759347276787450400,5.218450439453125,0.4883594512939453,-0.747890055179596,0.398257851600647
1759347276797509400,5.22850927734375,0.40290313959121704,-0.8180622458457947,0.24534818530082703
1759347276807568400,5.238568359375,0.385627806186676,-0.9276111721992493,0.10434850305318832
1759347276817627400,5.24862744140625,0.3631211519241333,-0.980459988117218,-0.029449502006173134
1759347276827686400,5.258686279296875,0.37699010968208313,-0.9752306342124939,-0.156211718916893
1759347276837745400,5.268745361328125,0.4049716889858246,-0.9100343585014343,-0.2735055983066559
1759347276847804400,5.278804443359375,0.3902445137500763,-0.782260000705719,-0.34394609928131104
1759347276857863400,5.288863525390625,0.2687245011329651,-0.7416635751724243,-0.3579133152961731
1759347276867922400,5.29892236328125,0.13699549436569214,-0.778035044670105,-0.3293539583683014
1759347276877981400,5.3089814453125,0.030914055183529854,-0.8616350889205933,-0.32690438628196716
1759347276888040200,5.319040283203125,-0.04766783118247986,-0.9641746282577515,-0.37558889389038086
1759347276898099500,5.329099365234375,-0.10811972618103027,-1.1139880418777466,-0.4472276568412781
1759347276908158200,5.339158203125,-0.1495591700077057,-1.2621461153030396,-0.5108875632286072
1759347276918217500,5.349217529296875,-0.1508105993270874,-1.3595643043518066,-0.5342496037483215
1759347276928276200,5.359276123046875,-0.09221919625997543,-1.3892650604248047,-0.4842548370361328
1759347276938335500,5.36933544921875,-0.01024443656206131,-1.2423720359802246,-0.3763352930545807
1759347276948394200,5.379394287109375,0.09048738330602646,-1.023371696472168,-0.22717821598052979
1759347276958453500,5.38945361328125,0.20056141912937164,-0.8820398449897766,-0.07661958783864975
1759347276968512300,5.39951220703125,0.32068294286727905,-0.8689759969711304,0.0005722795613110065
1759347276978571500,5.409571533203125,0.4122983515262604,-0.9136505126953125,0.000506499782204628
1759347276988630300,5.41963037109375,0.42821356654167175,-0.8745714426040649,0.02330225519835949
1759347276998689500,5.429689453125,0.3997534215450287,-0.762130618095398,0.11993052810430527
1759347277008748300,5.439748291015625,0.3163243532180786,-0.5246874690055847,0.14795635640621185
1759347277018807300,5.449807373046875,0.16753540933132172,-0.21930836141109467,0.008159583434462547
1759347277028866300,5.4598662109375,-0.0509529635310173,0.0334281399846077,-0.2393450289964676
1759347277038925300,5.46992529296875,-0.3168613314628601,0.1672903448343277,-0.5379578471183777
1759347277048984300,5.479984375,-0.7316737771034241,0.18203464150428772,-0.8551551103591919
1759347277059043300,5.490043212890625,-1.2100605964660645,0.18945766985416412,-1.1043751239776611
1759347277069102300,5.500102294921875,-1.7158823013305664,0.18980289995670319,-1.1683980226516724
1759347277079162400,5.510162353515625,-2.2026495933532715,0.11852365732192993,-1.0141295194625854
1759347277089221000,5.52022119140625,-2.2573227882385254,0.1602015644311905,-0.6971192359924316
1759347277099280400,5.5302802734375,-1.5056098699569702,0.21271005272865295,-0.31425631046295166
1759347277109339100,5.540339111328125,-0.5913219451904297,0.07595186680555344,-0.15276925265789032
1759347277119398400,5.5503984375,-0.3517886996269226,-0.058473579585552216,-0.2452794909477234
1759347277129457200,5.56045703125,-0.5245354175567627,-0.01902657374739647,-0.43600010871887207
1759347277139516400,5.570516357421875,-0.6594218611717224,0.15841850638389587,-0.6135474443435669
1759347277149575200,5.5805751953125,-0.6569750308990479,0.2628740072250366,-0.8358802795410156
1759347277159634400,5.590634521484375,-0.5899238586425781,0.16500736773014069,-1.123826265335083
1759347277169693200,5.600693115234375,-0.48128142952919006,-0.031927093863487244,-1.427179217338562
1759347277179752400,5.61075244140625,-0.34663626551628113,-0.17202508449554443,-1.5925320386886597
1759347277189811200,5.620811279296875,-0.20106087625026703,-0.25652793049812317,-1.602743148803711
1759347277199870500,5.630870361328125,-0.053836800158023834,-0.3420974314212799,-1.462438702583313
1759347277209929200,5.64092919921875,0.0902237519621849,-0.3926593065261841,-1.1630369424819946
1759347277219988200,5.65098828125,0.14312824606895447,-0.4762761890888214,-0.7874559164047241
1759347277230047200,5.661047119140625,0.03527970239520073,-0.6483597755432129,-0.4144894778728485
1759347277240106200,5.671106201171875,-0.09194003790616989,-0.7902876734733582,-0.12616555392742157
1759347277250165200,5.681165283203125,-0.3435465395450592,-0.7346782088279724,-0.03515785560011864
1759347277260224300,5.691224365234375,-0.5924714207649231,-0.4544375240802765,-0.2812248766422272
1759347277270283300,5.701283203125,-0.6751837730407715,0.6623748540878296,-1.2832813262939453
1759347277280342300,5.71134228515625,-0.4805498421192169,1.6867650747299194,-2.2302134037017822
1759347277290401300,5.7214013671875,-0.11011935025453568,2.38393235206604,-2.8022799491882324
1759347277300460300,5.731460205078125,0.2601490020751953,2.8677961826324463,-2.955538272857666
1759347277310519300,5.741519287109375,0.5405449271202087,3.0964810848236084,-2.679408550262451
1759347277320578300,5.751578369140625,0.7233714461326599,3.103283166885376,-2.103243589401245
1759347277330637300,5.76163720703125,0.8215543031692505,2.947270631790161,-1.4674335718154907
1759347277340696300,5.7716962890625,0.8963233232498169,2.805385112762451,-0.9976460337638855
1759347277350755300,5.78175537109375,0.8129374384880066,2.616509437561035,-0.7621936202049255
1759347277360814300,5.791814453125,0.5541051030158997,2.282864809036255,-0.6560080647468567
1759347277370873000,5.801873046875,0.24280807375907898,1.8513338565826416,-0.687707781791687
1759347277380932400,5.811932373046875,0.0878954529762268,1.419366478919983,-0.8808236718177795
1759347277390991000,5.8219912109375,0.09829596430063248,0.97422194480896,-1.141740083694458
1759347277401050400,5.83205029296875,0.1612807810306549,0.5114473700523376,-1.3246369361877441
1759347277411109000,5.842109130859375,0.19332601130008698,0.08165009319782257,-1.3476572036743164
1759347277421168400,5.85216845703125,0.1407591998577118,-0.1794440895318985,-1.2144469022750854
1759347277431227100,5.86222705078125,0.013317098841071129,-0.2204810082912445,-0.9574199318885803
1759347277441286400,5.872286376953125,-0.1709667295217514,-0.058599162846803665,-0.6179412007331848
1759347277451345200,5.88234521484375,-0.383014053106308,0.22468562424182892,-0.2839658260345459
1759347277461404400,5.892404296875,-0.539649486541748,0.5333699584007263,-0.07106021791696548
1759347277471463200,5.902463134765625,-0.590214192867279,0.7828781604766846,-0.040392905473709106
1759347277481522400,5.9125224609375,-0.5791865587234497,0.8934919834136963,-0.18235376477241516
1759347277491581200,5.922581298828125,-0.5240045189857483,0.7759926915168762,-0.45044684410095215
1759347277501640200,5.93264013671875,-0.4576137661933899,0.49630168080329895,-0.743269145488739
1759347277511699200,5.94269921875,-0.45397424697875977,0.2603391408920288,-0.9243584275245667
1759347277521758200,5.95275830078125,-0.4737202525138855,0.08037921786308289,-0.9637415409088135
1759347277531817200,5.962817138671875,-0.4569132626056671,-0.07282771915197372,-0.8714288473129272
1759347277541876200,5.972876220703125,-0.4158611595630646,-0.17793682217597961,-0.7011106610298157
1759347277551935500,5.982935546875,-0.40809863805770874,-0.1994420439004898,-0.5085511207580566
1759347277561994200,5.992994140625,-0.43002229928970337,-0.10779707878828049,-0.3469736874103546
1759347277572053500,6.003053466796875,-0.4432033598423004,0.03509748727083206,-0.22846540808677673
1759347277582112300,6.0131123046875,-0.4007331430912018,0.15950173139572144,-0.19234389066696167
1759347277592171500,6.023171630859375,-0.2952668368816376,0.2612360119819641,-0.2593367397785187
1759347277602230300,6.033230224609375,-0.16496023535728455,0.41827383637428284,-0.4050617218017578
1759347277612289500,6.04328955078125,-0.05786025524139404,0.6339394450187683,-0.5080579519271851
1759347277622348300,6.053348388671875,0.03322092071175575,0.8984315395355225,-0.48173049092292786
1759347277632407600,6.063407470703125,0.11856836825609207,1.1843059062957764,-0.27250757813453674
1759347277642466300,6.07346630859375,0.16068652272224426,1.4089821577072144,0.058033064007759094
1759347277652525300,6.083525390625,0.1389918029308319,1.31391179561615,0.5277761220932007
1759347277662584300,6.093584228515625,0.057211458683013916,0.9955654740333557,1.0059432983398438
1759347277672643300,6.103643310546875,-0.03747323155403137,0.5556191802024841,1.4110655784606934
1759347277682702300,6.113702392578125,-0.058728184551000595,0.3145149350166321,1.7279855012893677
1759347277692761300,6.12376123046875,-0.00829468946903944,0.208228200674057,1.9868276119232178
1759347277702820400,6.1338203125,0.09377335011959076,0.028078142553567886,2.2145705223083496
1759347277712879400,6.14387939453125,0.22847509384155273,-0.37996557354927063,2.429805040359497
1759347277722938400,6.1539384765625,0.38003239035606384,-1.0000107288360596,2.614607334136963
1759347277732997400,6.163997314453125,0.5425090789794922,-1.7001341581344604,2.7161619663238525
1759347277743056400,6.174056396484375,0.7161540985107422,-2.38571834564209,2.7173001766204834
1759347277753115400,6.184115478515625,0.8423726558685303,-2.970810651779175,2.621671438217163
1759347277763174400,6.19417431640625,0.8714229464530945,-3.335477113723755,2.4406609535217285
1759347277773233400,6.2042333984375,0.7788363695144653,-3.3374905586242676,2.2161498069763184
1759347277783292400,6.21429248046875,0.612244188785553,-2.806588649749756,2.0211856365203857
1759347277793351400,6.224351318359375,0.37633654475212097,-1.4966106414794922,1.8397330045700073
1759347277803410200,6.23441015625,0.2289862334728241,0.3031458258628845,1.772264838218689
1759347277813469400,6.244469482421875,0.2597981095314026,2.146078586578369,1.8030357360839844
1759347277823528200,6.254528076171875,0.42519983649253845,3.550461769104004,1.9078154563903809
1759347277833587000,6.2645869140625,0.6209620237350464,4.126414775848389,1.8917919397354126
1759347277843646000,6.27464599609375,0.7432788610458374,3.364973783493042,1.670621395111084
1759347277853705000,6.284705078125,0.7375702261924744,1.7731904983520508,1.3411494493484497
1759347277863764000,6.294763916015625,0.6254474520683289,0.46040013432502747,0.9080714583396912
1759347277873823000,6.304822998046875,0.48202550411224365,-0.1530437171459198,0.37458336353302
1759347277883882000,6.314882080078125,0.43666893243789673,-0.1337621659040451,-0.17644114792346954
1759347277893941000,6.32494091796875,0.5672048926353455,0.259118914604187,-0.45987048745155334
1759347277904000000,6.335,0.8555485010147095,0.5906601548194885,-0.35645514726638794
1759347277914059000,6.34505908203125,1.1626580953598022,0.5685791373252869,-0.12490006536245346
1759347277924118000,6.355117919921875,1.1111663579940796,0.6414962410926819,0.2031814157962799
1759347277934177000,6.365177001953125,0.7241300344467163,0.44691890478134155,0.6185283660888672
1759347277944236000,6.375236083984375,0.18567988276481628,0.08497508615255356,1.0671043395996094
1759347277954295000,6.385294921875,-0.031441595405340195,-0.5661736726760864,1.1997987031936646
1759347277964354000,6.39535400390625,0.1494418978691101,-1.1868761777877808,1.077536702156067
1759347277974412800,6.405412841796875,0.5431868433952332,-1.432844638824463,0.8669575452804565
1759347277984472000,6.41547216796875,0.7579164505004883,-1.301870346069336,0.7371329665184021
1759347277994530800,6.42553076171875,0.7743326425552368,-1.1193394660949707,0.6658771634101868
1759347278004590000,6.435590087890625,0.7038635611534119,-1.272770643234253,0.6281401515007019
1759347278014648800,6.44564892578125,0.6023834943771362,-1.5814107656478882,0.588612973690033
1759347278024708000,6.4557080078125,0.5074407458305359,-1.7526881694793701,0.5538861751556396
1759347278034766800,6.465766845703125,0.5317407846450806,-1.6590428352355957,0.49648505449295044
1759347278044826000,6.475826171875,0.6192666888237,-1.369049072265625,0.42508062720298767
1759347278054884900,6.485884765625,0.7157902717590332,-1.1754177808761597,0.33533912897109985
1759347278064944000,6.495944091796875,0.7396726608276367,-1.1445029973983765,0.2095779925584793
1759347278075003000,6.5060029296875,0.676899254322052,-1.1579359769821167,0.06041136756539345
1759347278085062100,6.516062255859375,0.6351915001869202,-1.222994327545166,-0.05113034322857857
1759347278095121000,6.526120849609375,0.5731468796730042,-1.2018964290618896,-0.08995941281318665
1759347278105180000,6.536179931640625,0.5116041898727417,-0.9943597316741943,-0.06782960891723633
1759347278115239000,6.546239013671875,0.4738292992115021,-0.7774220108985901,-0.011100525967776775
1759347278125298000,6.5562978515625,0.41673699021339417,-0.6127193570137024,0.032612066715955734
1759347278135357000,6.56635693359375,0.30135470628738403,-0.5676689147949219,0.0467250756919384
1759347278145416000,6.576416015625,0.15165947377681732,-0.6837219595909119,0.03889911249279976
1759347278155475000,6.586474853515625,-0.049050718545913696,-0.9119368195533752,0.002447169739753008
1759347278165534000,6.596533935546875,-0.2064608484506607,-1.1610161066055298,-0.06537182629108429
1759347278175593000,6.606593017578125,-0.31629830598831177,-1.310595154762268,-0.15444061160087585
1759347278185652000,6.61665185546875,-0.3758593797683716,-1.4234516620635986,-0.22048194706439972
1759347278195711000,6.6267109375,-0.38350051641464233,-1.4720957279205322,-0.2655240595340729
1759347278205770000,6.63677001953125,-0.38122111558914185,-1.4148433208465576,-0.2778792381286621
1759347278215829000,6.6468291015625,-0.3352483808994293,-1.3049880266189575,-0.2765238285064697
1759347278225888000,6.656887939453125,-0.23652790486812592,-1.113950490951538,-0.28230607509613037
1759347278235947000,6.666947021484375,-0.08825269341468811,-0.8829177021980286,-0.3081699013710022
1759347278246006000,6.677006103515625,0.14037249982357025,-0.7049258947372437,-0.3880961537361145
1759347278256064800,6.687064697265625,0.4231691062450409,-0.551673412322998,-0.519970715045929
1759347278266123000,6.697123046875,0.6357501149177551,-0.4157901108264923,-0.6601746678352356
1759347278276182000,6.70718212890625,0.7655737996101379,-0.20909911394119263,-0.7360191941261292
1759347278286241000,6.717240966796875,0.7411071062088013,-0.012415616773068905,-0.7268357872962952
1759347278296300000,6.727300048828125,0.5281143188476562,0.12805332243442535,-0.7144327759742737
1759347278306359000,6.737359130859375,0.17115400731563568,0.3148692846298218,-0.7347055077552795
1759347278316418000,6.74741796875,-0.2780519723892212,0.4713626801967621,-0.7868824601173401
1759347278326477000,6.75747705078125,-0.7887280583381653,0.5018255114555359,-0.8630654215812683
1759347278336535800,6.767535888671875,-1.2645753622055054,0.5463859438896179,-0.854618489742279
1759347278346595000,6.777594970703125,-1.6953562498092651,0.6932973861694336,-0.6268617510795593
1759347278356653800,6.78765380859375,-2.0744435787200928,0.6898444294929504,-0.26369211077690125
1759347278366713000,6.797713134765625,-1.9655756950378418,0.3959094285964966,0.1099802702665329
1759347278376771800,6.807771728515625,-1.0885597467422485,0.05608826503157616,0.40395042300224304
1759347278386831000,6.8178310546875,-0.22103358805179596,-0.22091856598854065,0.4053027629852295
1759347278396889900,6.827889892578125,-0.03918348625302315,-0.17913442850112915,0.15738481283187866
1759347278406949000,6.83794921875,-0.1781426966190338,-0.11633628606796265,-0.06419605016708374
1759347278417007900,6.8480078125,-0.3297103941440582,-0.03153057396411896,-0.25411584973335266
1759347278427067100,6.858067138671875,-0.45073533058166504,-0.005559427663683891,-0.5277889370918274
1759347278437126000,6.8681259765625,-0.5047028660774231,0.024344686418771744,-0.8558216094970703
1759347278447185200,6.87818505859375,-0.5246520638465881,0.08501549810171127,-1.1749165058135986
1759347278457244000,6.888243896484375,-0.48080751299858093,0.03136217221617699,-1.4317362308502197
1759347278467303000,6.898302978515625,-0.37597164511680603,-0.08590106666088104,-1.5906803607940674
1759347278477362000,6.90836181640625,-0.22796782851219177,-0.12593211233615875,-1.589432954788208
1759347278487421000,6.9184208984375,-0.03725246340036392,-0.2422182410955429,-1.4268150329589844
1759347278497480000,6.92847998046875,0.16987918317317963,-0.4217148423194885,-1.1300294399261475
1759347278507539000,6.9385390625,0.26272815465927124,-0.6432051658630371,-0.7363883256912231
1759347278517598000,6.948597900390625,0.19488409161567688,-0.9386847019195557,-0.31422916054725647
1759347278527657000,6.958656982421875,-0.08644931018352509,-1.0187398195266724,-0.07300858199596405
1759347278537716000,6.968716064453125,-0.5270004272460938,-0.9090570211410522,-0.03182888776063919
1759347278547775000,6.97877490234375,-0.9037599563598633,-0.6202334761619568,-0.34607046842575073
1759347278557834000,6.988833984375,-0.970284640789032,0.7987146973609924,-1.6635618209838867
1759347278567893000,6.99889306640625,-0.6247629523277283,1.8276575803756714,-2.5388646125793457
1759347278577952000,7.008951904296875,-0.10440056771039963,2.3913300037384033,-2.874434471130371
1759347278588011000,7.019010986328125,0.3616073429584503,2.587965488433838,-2.74676775932312
1759347278598070000,7.029070068359375,0.6062760353088379,2.516361951828003,-2.2463929653167725
1759347278608127700,7.039127685546875,0.6446591019630432,2.25569486618042,-1.5695587396621704
1759347278618187000,7.04918701171875,0.5853034257888794,1.9672714471817017,-0.9901415109634399
1759347278628245800,7.059245849609375,0.47294414043426514,1.7298064231872559,-0.5969516038894653
1759347278638305000,7.069304931640625,0.3526560068130493,1.4620922803878784,-0.4164115786552429
1759347278648363800,7.07936376953125,0.2199043482542038,1.2401466369628906,-0.44492390751838684
1759347278658423000,7.089423095703125,0.1023116186261177,0.9225718379020691,-0.5746180415153503
1759347278668481800,7.099481689453125,0.07104291021823883,0.43129822611808777,-0.7021642923355103
1759347278678541000,7.109541015625,0.12533791363239288,-0.06958342343568802,-0.8158508539199829
1759347278688599800,7.119599853515625,0.2069861739873886,-0.4123660624027252,-0.931728184223175
1759347278698658800,7.129658935546875,0.19931745529174805,-0.6008660197257996,-0.9964560866355896
1759347278708717800,7.1397177734375,0.09569066762924194,-0.6334085464477539,-0.9475423097610474
1759347278718776800,7.14977685546875,-0.048655517399311066,-0.4103458821773529,-0.845531702041626
1759347278728836000,7.159836181640625,-0.15893913805484772,-0.06220973655581474,-0.7101879715919495
1759347278738894800,7.169894775390625,-0.22019682824611664,0.32694774866104126,-0.6081093549728394
1759347278748954000,7.1799541015625,-0.24808572232723236,0.6667465567588806,-0.6116684079170227
1759347278759012900,7.190012939453125,-0.2634998857975006,0.8129158616065979,-0.744968831539154
1759347278769072000,7.200072021484375,-0.2817193567752838,0.752237856388092,-0.9460678100585938
1759347278779131000,7.210130859375,-0.32896092534065247,0.6055774092674255,-1.159225344657898
1759347278789190100,7.220190185546875,-0.4116257131099701,0.4818640351295471,-1.2802053689956665
1759347278799249000,7.230248779296875,-0.5077381134033203,0.4142882227897644,-1.2577266693115234
1759347278809308200,7.24030810546875,-0.6359062194824219,0.43765345215797424,-1.1199448108673096
1759347278819367000,7.250366943359375,-0.7558438181877136,0.4440913498401642,-0.8992382287979126
1759347278829426200,7.26042626953125,-0.8257256746292114,0.38838228583335876,-0.6356614828109741
1759347278839485200,7.270485107421875,-0.8334991931915283,0.3076992630958557,-0.38886284828186035
1759347278849543200,7.280543212890625,-0.7847726345062256,0.16329680383205414,-0.20369435846805573
1759347278859602000,7.290601806640625,-0.7231565117835999,0.06329649686813354,-0.09631289541721344
1759347278869661200,7.3006611328125,-0.6414304375648499,0.0123603455722332,-0.09440606832504272
1759347278879720000,7.310719970703125,-0.534545361995697,0.045834023505449295,-0.16809992492198944
1759347278889779200,7.320779296875,-0.3977012634277344,0.20786233246326447,-0.2634440064430237
1759347278899838000,7.330837890625,-0.2518485486507416,0.5052555799484253,-0.32407671213150024
1759347278909897200,7.340897216796875,-0.07882165163755417,0.8414381146430969,-0.30801597237586975
1759347278919956000,7.3509560546875,0.10859602689743042,1.0980908870697021,-0.1602315902709961
1759347278930015000,7.361014892578125,0.23719476163387299,1.2156912088394165,0.1235351487994194
1759347278940074000,7.371073974609375,0.26634061336517334,1.185847282409668,0.519726037979126
1759347278950133000,7.381133056640625,0.26172375679016113,1.077000379562378,0.9357850551605225
1759347278960192000,7.39119189453125,0.2843770980834961,0.9544205665588379,1.31413733959198
1759347278970251000,7.4012509765625,0.329365074634552,0.7955792546272278,1.6897327899932861
1759347278980310000,7.41131005859375,0.3985931873321533,0.48127520084381104,2.0750250816345215
1759347278990369000,7.421369140625,0.5188692808151245,-0.05490513890981674,2.4407055377960205
1759347279000428000,7.431427978515625,0.6645224690437317,-0.8144815564155579,2.7380850315093994
1759347279010487000,7.441487060546875,0.7816994190216064,-1.634199619293213,2.921907424926758
1759347279020546000,7.451546142578125,0.829086184501648,-2.374826431274414,2.94858980178833
1759347279030604000,7.46160400390625,0.8109234571456909,-2.8312666416168213,2.8311002254486084
1759347279040663000,7.4716630859375,0.7558201551437378,-2.9892430305480957,2.6265640258789062
1759347279050722000,7.48172216796875,0.6106605529785156,-2.7958719730377197,2.364190101623535
1759347279060781000,7.491781005859375,0.427951842546463,-2.1030235290527344,2.109039068222046
1759347279070840000,7.501840087890625,0.2434278130531311,-0.8636754751205444,1.9184080362319946
1759347279080899000,7.511899169921875,0.15274371206760406,0.7034971117973328,1.830343246459961
1759347279090958000,7.5219580078125,0.18791928887367249,2.3646252155303955,1.865677833557129
1759347279101017000,7.53201708984375,0.2852885127067566,3.529200792312622,1.9943655729293823
1759347279111076000,7.542076171875,0.4055936336517334,3.7226834297180176,2.0153443813323975
1759347279121135000,7.552135009765625,0.608004093170166,2.7937660217285156,1.8854221105575562
1759347279131194000,7.562194091796875,0.6674932837486267,1.4089237451553345,1.5919466018676758
1759347279141253000,7.572253173828125,0.5064816474914551,0.501336395740509,0.9607388377189636
1759347279151312100,7.58231201171875,0.29202207922935486,0.6051424145698547,0.2311578392982483
1759347279161371000,7.592370849609375,0.3410092890262604,0.8673214912414551,-0.17282703518867493
1759347279171430100,7.60243017578125,0.73050856590271,1.1421757936477661,-0.2713581621646881
1759347279181489000,7.612489013671875,1.1425584554672241,1.4023665189743042,-0.11257078498601913
1759347279191548200,7.622548095703125,1.3681164979934692,1.230675220489502,0.20202922821044922
1759347279201606100,7.632606201171875,1.2972142696380615,0.7380101680755615,0.5426296591758728
1759347279211665200,7.6426650390625,0.918114185333252,0.21118123829364777,0.875194787979126
1759347279221724200,7.65272412109375,0.5725197196006775,-0.3055923581123352,1.1222132444381714
1759347279231783200,7.662783203125,0.4451470971107483,-0.749451756477356,1.137163758277893
1759347279241842000,7.672842041015625,0.5427010655403137,-0.8149052262306213,1.0173147916793823
1759347279251901200,7.682901123046875,0.6157315969467163,-0.7674189805984497,0.9037551879882812
1759347279261960000,7.6929599609375,0.5999774932861328,-0.7635048031806946,0.8095114827156067
1759347279272019200,7.703019287109375,0.5301214456558228,-0.9240350723266602,0.7709653973579407
1759347279282078000,7.713077880859375,0.4859747886657715,-1.2809429168701172,0.6963744163513184
1759347279292137200,7.72313720703125,0.5500480532646179,-1.4321016073226929,0.5794432759284973
1759347279302196000,7.733196044921875,0.6400392651557922,-1.39017915725708,0.4384521245956421
1759347279312255200,7.743255126953125,0.7318677306175232,-1.2388732433319092,0.2809871435165405
1759347279322314000,7.75331396484375,0.7906822562217712,-1.1424908638000488,0.13078516721725464
1759347279332373200,7.763373291015625,0.8162822127342224,-1.1674432754516602,-0.06352093070745468
1759347279342432000,7.773431884765625,0.8059519529342651,-1.2669752836227417,-0.2767292559146881
1759347279352490000,7.783489990234375,0.8087000846862793,-1.3744421005249023,-0.4564768970012665
1759347279362549000,7.793549072265625,0.7747830748558044,-1.4176009893417358,-0.5711837410926819
1759347279372608300,7.803608154296875,0.767645537853241,-1.4387809038162231,-0.5802578926086426
1759347279382667000,7.8136669921875,0.7246479988098145,-1.3192355632781982,-0.523903489112854
1759347279392726300,7.823726318359375,0.573608934879303,-1.1834765672683716,-0.4007895290851593
1759347279402785000,7.833784912109375,0.4014216661453247,-1.0813332796096802,-0.2646596133708954
1759347279412844300,7.84384423828125,0.2030169516801834,-0.9706922173500061,-0.19058379530906677
1759347279422903000,7.853903076171875,0.020030062645673752,-0.957044243812561,-0.20376314222812653
1759347279432962300,7.86396240234375,-0.1230703741312027,-1.0243092775344849,-0.2689906358718872
1759347279443021000,7.87402099609375,-0.22241118550300598,-1.130387544631958,-0.31192585825920105
1759347279453080000,7.884080078125,-0.2810329496860504,-1.2172410488128662,-0.2915542721748352
1759347279463139000,7.89413916015625,-0.3134840130805969,-1.2741789817810059,-0.19102662801742554
1759347279473198000,7.904197998046875,-0.28207626938819885,-1.3115720748901367,-0.062012992799282074
1759347279483257000,7.914257080078125,-0.16231095790863037,-1.2663486003875732,0.02233651466667652
1759347279493315000,7.924315185546875,0.019130198284983635,-1.1401011943817139,0.0486203171312809
1759347279503374000,7.9343740234375,0.2186078578233719,-1.016154408454895,0.00877031497657299
1759347279513433000,7.94443310546875,0.4163510501384735,-0.9115353226661682,-0.0929400697350502
1759347279523492000,7.9544921875,0.5583268404006958,-0.7588726282119751,-0.2090182900428772
1759347279533551000,7.964551025390625,0.6095373034477234,-0.4789927899837494,-0.29842889308929443
1759347279543610000,7.974610107421875,0.5091050863265991,-0.21717265248298645,-0.33679988980293274
1759347279553668900,7.9846689453125,0.3283595144748688,0.07209964096546173,-0.4221499264240265
1759347279563728100,7.99472802734375,0.06987201422452927,0.402888685464859,-0.5937268733978271
1759347279573787000,8.004786865234376,-0.29186463356018066,0.6971631646156311,-0.8214231729507446
1759347279583846100,8.01484619140625,-0.800534725189209,0.8335458040237427,-1.0247128009796143
1759347279593905000,8.02490478515625,-1.3595036268234253,0.8503589034080505,-1.0559074878692627
1759347279603964200,8.034964111328126,-1.8295320272445679,0.6812542080879211,-0.7601732015609741
1759347279614022100,8.045022216796875,-2.0349013805389404,0.1980190873146057,-0.24812538921833038
1759347279624081200,8.0550810546875,-1.5373387336730957,-0.3399446904659271,0.17292794585227966
1759347279634140000,8.065139892578125,-0.7470372915267944,-0.7475166916847229,0.313452810049057
1759347279644199200,8.07519921875,-0.3860885202884674,-0.8172047138214111,0.10048415511846542
1759347279654258000,8.0852578125,-0.4156455993652344,-0.745637059211731,-0.1412310004234314
1759347279664317200,8.095317138671875,-0.5933004021644592,-0.45246031880378723,-0.3342409133911133
1759347279674376000,8.1053759765625,-0.708992063999176,-0.3277479410171509,-0.48350176215171814
1759347279684435200,8.115435302734374,-0.7518057823181152,-0.3922783434391022,-0.6182841658592224
1759347279694494000,8.125493896484375,-0.7179577946662903,-0.3535631597042084,-0.8233462572097778
1759347279704553200,8.13555322265625,-0.6270430684089661,-0.2652520537376404,-1.0603419542312622
1759347279714612000,8.145612060546876,-0.46550583839416504,-0.26079073548316956,-1.2330689430236816
1759347279724671200,8.155671142578125,-0.2506164312362671,-0.26146167516708374,-1.1996334791183472
1759347279734729000,8.16572900390625,-0.003506774315610528,-0.3640088140964508,-1.0304354429244995
1759347279744788200,8.175788330078126,0.2116125226020813,-0.5519735813140869,-0.8091124892234802
1759347279754847000,8.185846923828125,0.26603636145591736,-0.6859948039054871,-0.5773863196372986
1759347279764906200,8.19590625,0.19666491448879242,-0.7540096044540405,-0.3752579391002655
1759347279774965000,8.205965087890625,-0.0061238775961101055,-0.6154013872146606,-0.26645901799201965
1759347279785024300,8.216024169921875,-0.34000587463378906,-0.3771778643131256,-0.3429758548736572
1759347279795083000,8.2260830078125,-0.6353874802589417,0.09536942839622498,-0.9607099294662476
1759347279805142300,8.236142333984375,-0.5705135464668274,0.8223538398742676,-1.8666996955871582
1759347279815201000,8.246200927734375,-0.27297112345695496,1.40280282497406,-2.5753579139709473
1759347279825260300,8.25626025390625,0.06667311489582062,1.8677107095718384,-2.843977689743042
1759347279835318300,8.266318359375,0.34126099944114685,2.261162757873535,-2.707643985748291
1759347279845377300,8.276377197265624,0.5148342847824097,2.549649953842163,-2.2638421058654785
1759347279855436300,8.286436279296876,0.6088539958000183,2.7609851360321045,-1.6636186838150024
1759347279865495300,8.296495361328125,0.648643434047699,2.8395094871520996,-1.0838466882705688
1759347279875554300,8.30655419921875,0.6065495014190674,2.8053174018859863,-0.6761135458946228
1759347279885613300,8.31661328125,0.4611450731754303,2.6208245754241943,-0.49944475293159485
1759347279895672300,8.32667236328125,0.2329459935426712,2.320131778717041,-0.5304064154624939
1759347279905731300,8.3367314453125,0.06620073318481445,1.8462496995925903,-0.7016058564186096
1759347279915790300,8.346790283203125,0.03182518482208252,1.2008861303329468,-0.9421795606613159
1759347279925849000,8.35684912109375,0.10301470011472702,0.4718210995197296,-1.1276811361312866
1759347279935907300,8.3669072265625,0.1393226534128189,-0.24370771646499634,-1.174127459526062
1759347279945966300,8.37696630859375,0.11321648210287094,-0.7427714467048645,-1.1064698696136475
1759347279956025300,8.387025390625,0.055596329271793365,-0.8596916794776917,-0.9710525870323181
1759347279966084400,8.39708447265625,-0.03527219220995903,-0.6529783606529236,-0.7719659209251404
1759347279976143400,8.407143310546875,-0.14177334308624268,-0.18572647869586945,-0.5592451095581055
1759347279986202000,8.4172021484375,-0.2524259686470032,0.4433908760547638,-0.39964810013771057
1759347279996261400,8.427261474609375,-0.31835997104644775,1.039279818534851,-0.3395019471645355
1759347280006320000,8.437320068359375,-0.3462120592594147,1.3493459224700928,-0.3828044533729553
1759347280016379400,8.44737939453125,-0.39287808537483215,1.320929765701294,-0.5267522931098938
1759347280026438100,8.457438232421875,-0.46504247188568115,1.0268937349319458,-0.7168670296669006
1759347280036496400,8.467496337890625,-0.5560078024864197,0.5664967894554138,-0.8710230588912964
1759347280046555400,8.477555419921876,-0.6522704362869263,0.0703856498003006,-0.9399784803390503
1759347280056614400,8.487614501953125,-0.7209267020225525,-0.2585983872413635,-0.893215000629425
1759347280066673200,8.497673095703124,-0.7581089735031128,-0.3589976131916046,-0.7848058938980103
1759347280076732400,8.507732421875,-0.7456557154655457,-0.29709962010383606,-0.6523320078849792
1759347280086791200,8.517791259765625,-0.690309464931488,-0.1581057608127594,-0.5132501125335693
1759347280096850400,8.527850341796874,-0.6297510266304016,-0.014454054646193981,-0.3959978222846985
1759347280106909200,8.5379091796875,-0.536394476890564,0.054316047579050064,-0.3351745009422302
1759347280116968400,8.547968505859375,-0.4177205562591553,0.050412386655807495,-0.337247759103775
1759347280127026400,8.5580263671875,-0.2902744710445404,0.05491436645388603,-0.36045020818710327
1759347280137085200,8.568085205078125,-0.16448192298412323,0.15071119368076324,-0.39010557532310486
1759347280147144200,8.578144287109374,-0.08171466737985611,0.3758925795555115,-0.4239846169948578
1759347280157203200,8.588203125,-0.00980691984295845,0.6817179918289185,-0.42713990807533264
1759347280167262200,8.59826220703125,0.07833822071552277,0.9510403275489807,-0.4128067195415497
1759347280177321500,8.608321533203124,0.13990864157676697,1.2369240522384644,-0.32868704199790955
1759347280187380200,8.618380126953125,0.1531950831413269,1.4727188348770142,-0.12660840153694153
1759347280197439500,8.628439453125,0.11629217863082886,1.5016729831695557,0.18559503555297852
1759347280207498200,8.638498291015624,0.05991319939494133,1.2757235765457153,0.568763256072998
1759347280217556200,8.64855615234375,-0.00016957661136984825,0.8923587799072266,0.961471676826477
1759347280227615200,8.658615234375,-0.051865510642528534,0.4697844386100769,1.3006285429000854
1759347280237674200,8.66867431640625,-0.01886601746082306,0.1379641443490982,1.6096148490905762
1759347280247733200,8.678733154296875,0.11259795725345612,-0.15828274190425873,1.9127757549285889
1759347280257792300,8.688792236328124,0.30940210819244385,-0.5045498609542847,2.2382285594940186
1759347280267851300,8.698851318359376,0.5300591588020325,-0.8952818512916565,2.5458791255950928
1759347280277910300,8.70891015625,0.743044912815094,-1.2606494426727295,2.7945897579193115
1759347280287969300,8.71896923828125,0.8858553171157837,-1.6324106454849243,2.9841740131378174
1759347280298027300,8.72902734375,0.9750821590423584,-1.992193341255188,3.0727102756500244
1759347280308086300,8.739086181640625,1.0362062454223633,-2.300642967224121,3.0218865871429443
1759347280318145300,8.749145263671876,0.9766867756843567,-2.399691343307495,2.7965404987335205
1759347280328204300,8.759204345703125,0.7896389365196228,-1.9986315965652466,2.427516222000122
1759347280338263300,8.76926318359375,0.5739516615867615,-0.997580885887146,2.085543394088745
1759347280348322300,8.779322265625,0.37730109691619873,0.4375242292881012,1.8871794939041138
1759347280358381300,8.78938134765625,0.3128829598426819,2.0440833568573,1.8262813091278076
1759347280368440300,8.7994404296875,0.4171738028526306,3.3579163551330566,1.8808339834213257
1759347280378498300,8.809498291015625,0.5745258927345276,3.9073686599731445,1.8810259103775024
1759347280388557300,8.819557373046875,0.7152866721153259,3.1447763442993164,1.7940104007720947
1759347280398616300,8.8296162109375,0.6853513717651367,1.803586483001709,1.602095603942871
1759347280408675300,8.83967529296875,0.44232434034347534,0.7211787104606628,1.283294677734375
1759347280418734300,8.849734375,0.1372283697128296,0.26622506976127625,0.9056744575500488
1759347280428793300,8.85979345703125,0.029927261173725128,0.19927863776683807,0.44692301750183105
1759347280438852400,8.869852294921875,0.26697924733161926,0.1740656942129135,0.0097486088052392
1759347280448911400,8.879911376953125,0.8462116718292236,0.2527371048927307,-0.28010016679763794
1759347280458969300,8.88996923828125,1.4662624597549438,0.6710078716278076,-0.243087038397789
1759347280469028400,8.9000283203125,1.7864347696304321,0.9500259160995483,0.10418711602687836
1759347280479087400,8.91008740234375,1.7418326139450073,0.6520256400108337,0.4216790497303009
1759347280489146000,8.92014599609375,1.4342169761657715,0.008484859019517899,0.5491244792938232
1759347280499205400,8.930205322265625,1.0909866094589233,-0.7189773321151733,0.5383778214454651
1759347280509264100,8.94026416015625,0.8897643685340881,-1.0514662265777588,0.47103703022003174
1759347280519323400,8.950323486328125,0.8080878853797913,-1.1542387008666992,0.46064457297325134
1759347280529381400,8.96038134765625,0.6884569525718689,-1.2140074968338013,0.5100290179252625
1759347280539440400,8.9704404296875,0.6064009666442871,-1.3911596536636353,0.5537112355232239
1759347280549499400,8.98049951171875,0.5500122904777527,-1.6347181797027588,0.567654550075531
1759347280559558400,8.990558349609374,0.48316407203674316,-1.9414432048797607,0.5933298468589783
1759347280569617200,9.0006171875,0.4244266748428345,-2.036884069442749,0.6147465109825134
1759347280579676400,9.010676513671875,0.42108866572380066,-1.9856499433517456,0.6275475025177002
1759347280589735200,9.020735107421874,0.4143732190132141,-1.7570788860321045,0.5832222700119019
1759347280599794400,9.03079443359375,0.43139776587486267,-1.4494813680648804,0.45225435495376587
1759347280609852400,9.040852294921875,0.48208823800086975,-1.2289707660675049,0.27394628524780273
1759347280619911400,9.050911376953126,0.4789443910121918,-1.1349239349365234,0.06865919381380081
1759347280629970400,9.060970458984375,0.45963555574417114,-1.195387840270996,-0.10942106693983078
1759347280640029400,9.071029541015625,0.41769370436668396,-1.2126333713531494,-0.25536787509918213
1759347280650088200,9.081088134765626,0.3803541660308838,-1.12364661693573,-0.36249810457229614
1759347280660147500,9.0911474609375,0.3458574414253235,-1.0158915519714355,-0.4319045841693878
1759347280670206200,9.101206298828124,0.28102853894233704,-0.8533338308334351,-0.5020470023155212
1759347280680264200,9.11126416015625,0.18365509808063507,-0.6843719482421875,-0.540702760219574
1759347280690323500,9.121323486328125,0.06683794409036636,-0.590053141117096,-0.5562832355499268
1759347280700382200,9.13138232421875,-0.0653001144528389,-0.6031090617179871,-0.5585679411888123
1759347280710441500,9.14144140625,-0.20278742909431458,-0.6973205804824829,-0.5441644787788391
1759347280720500200,9.151500244140625,-0.3210488259792328,-0.8450397849082947,-0.48199325799942017
1759347280730559200,9.161559326171876,-0.37604135274887085,-0.9480105638504028,-0.3817758560180664
1759347280740617200,9.1716171875,-0.34632501006126404,-1.0018867254257202,-0.2496066391468048
1759347280750676500,9.181676513671874,-0.2853235602378845,-0.9179099202156067,-0.11868343502283096
1759347280760735200,9.1917353515625,-0.19419977068901062,-0.8056148290634155,-0.017677990719676018
1759347280770794500,9.20179443359375,0.00121592590585351,-0.7427812814712524,0.0112413065508008
1759347280780853200,9.211853271484374,0.23989881575107574,-0.7570528984069824,-0.04565206915140152
1759347280790912500,9.22191259765625,0.4219483733177185,-0.8599579930305481,-0.1391662210226059
1759347280800971300,9.23197119140625,0.4501483142375946,-0.9463248252868652,-0.18085242807865143
1759347280811029500,9.242029541015626,0.4120914936065674,-0.9252486824989319,-0.19220134615898132
1759347280821088300,9.252088134765625,0.26644426584243774,-0.8163203001022339,-0.2232402265071869
1759347280831147800,9.262147705078124,0.05106469988822937,-0.5010066032409668,-0.3307062089443207
1759347280841206800,9.272206787109376,-0.19933395087718964,-0.11328475177288055,-0.5199893712997437
1759347280851265800,9.282265869140625,-0.505294144153595,0.14866864681243896,-0.7782849073410034
1759347280861324800,9.29232470703125,-0.846156656742096,0.25474661588668823,-1.040959358215332
1759347280871382800,9.3023828125,-1.1827428340911865,0.35649585723876953,-1.225096583366394
1759347280881441500,9.312441650390625,-1.503244161605835,0.6081768274307251,-1.2422734498977661
1759347280891500800,9.322500732421876,-1.751165747642517,0.8932675123214722,-0.9643954634666443
1759347280901559600,9.3325595703125,-1.4648321866989136,0.9971036314964294,-0.48184022307395935
1759347280911618800,9.342618896484375,-0.6147705912590027,0.8613792657852173,-0.11926811933517456
1759347280921677600,9.352677490234376,-0.007151459809392691,0.5808496475219727,-0.1309780478477478
1759347280931736800,9.36273681640625,0.010367213748395443,0.2701220214366913,-0.3603462874889374
1759347280941794600,9.372794677734374,-0.23797495663166046,0.08103252947330475,-0.5980603098869324
1759347280951853800,9.382853759765625,-0.44077494740486145,0.07285900413990021,-0.7731490135192871
1759347280961912600,9.39291259765625,-0.5550956726074219,0.1093062311410904,-0.9051626920700073
1759347280971971800,9.402971923828124,-0.6190560460090637,0.04426344111561775,-1.02279531955719
1759347280982030600,9.413030517578125,-0.6194754838943481,-0.27481842041015625,-1.1012099981307983
1759347280992089900,9.42308984375,-0.5643901824951172,-0.582000732421875,-1.1590553522109985
1759347281002147600,9.433147705078126,-0.45356011390686035,-0.8034108877182007,-1.129056692123413
1759347281012206800,9.443206787109375,-0.28683915734291077,-0.8925846815109253,-0.9692294001579285
1759347281022265600,9.453265625,-0.13084077835083008,-0.8925561904907227,-0.7111906409263611
1759347281032324900,9.463324951171876,-0.07466872781515121,-0.8490108847618103,-0.4426209032535553
1759347281042383600,9.473383544921875,-0.11467073857784271,-0.717831552028656,-0.2158586084842682
1759347281052443000,9.48344287109375,-0.2403852492570877,-0.529751718044281,-0.054631371051073074
1759347281062500600,9.49350048828125,-0.4419386386871338,-0.385331392288208,0.002987183630466461
1759347281072559600,9.5035595703125,-0.6763333678245544,-0.33806583285331726,-0.09634560346603394
1759347281082618600,9.51361865234375,-0.8120715022087097,-0.1685154289007187,-0.8957290649414062
1759347281092677600,9.523677734375,-0.6445198059082031,0.19014976918697357,-1.935075044631958
1759347281102736600,9.533736572265624,-0.24094519019126892,0.6620110273361206,-2.690150499343872
1759347281112795600,9.543795654296876,0.23243434727191925,1.0520631074905396,-2.9610977172851562
1759347281122853600,9.553853515625,0.5594886541366577,1.3956586122512817,-2.7528693675994873
1759347281132912600,9.56391259765625,0.6962953805923462,1.7227858304977417,-2.182103157043457
1759347281142971600,9.5739716796875,0.7420498132705688,2.023139238357544,-1.472466230392456
1759347281153030700,9.58403076171875,0.7539604902267456,2.3634207248687744,-0.8630571365356445
1759347281163089700,9.594089599609376,0.7474096417427063,2.630357503890991,-0.4911953806877136
1759347281173148700,9.604148681640625,0.6103007793426514,2.8490262031555176,-0.40292927622795105
1759347281183207000,9.61420703125,0.38253793120384216,2.9299848079681396,-0.5321298837661743
1759347281193265700,9.624265625,0.2437039017677307,2.7690505981445312,-0.8145461082458496
1759347281203324700,9.63432470703125,0.22997529804706573,2.3378686904907227,-1.1324471235275269
1759347281213383700,9.6443837890625,0.24518141150474548,1.7052078247070312,-1.3700475692749023
1759347281223442700,9.654442626953125,0.23611734807491302,1.0501285791397095,-1.4362390041351318
1759347281233500700,9.664500732421875,0.1389426589012146,0.5822649598121643,-1.3551428318023682
1759347281243559700,9.6745595703125,-0.01693136803805828,0.31123510003089905,-1.1179149150848389
1759347281253618700,9.68461865234375,-0.2358357012271881,0.22639594972133636,-0.7728986740112305
1759347281263677700,9.694677734375,-0.4538079798221588,0.2718436121940613,-0.42782682180404663
1759347281273736700,9.70473681640625,-0.6124419569969177,0.3968445956707001,-0.20844972133636475
1759347281283795700,9.714795654296875,-0.6511089205741882,0.507850706577301,-0.19458690285682678
1759347281293853700,9.724853759765624,-0.6266252994537354,0.5342017412185669,-0.3675314486026764
1759347281303912700,9.73491259765625,-0.5892347693443298,0.4397814869880676,-0.6890484690666199
1759347281313971700,9.7449716796875,-0.5634042620658875,0.35824596881866455,-1.0273903608322144
1759347281324030700,9.75503076171875,-0.5609621405601501,0.3080155551433563,-1.247361660003662
1759347281334089700,9.76508984375,-0.5588793754577637,0.34003081917762756,-1.2616612911224365
1759347281344147700,9.775147705078124,-0.545410692691803,0.39253050088882446,-1.1028015613555908
1759347281354206700,9.785206787109376,-0.5231587290763855,0.41717302799224854,-0.8550041913986206
1759347281364265700,9.795265625,-0.48337823152542114,0.37240609526634216,-0.6108801960945129
1759347281374324700,9.80532470703125,-0.42665427923202515,0.24741417169570923,-0.44633904099464417
1759347281384383700,9.8153837890625,-0.35063621401786804,0.07743339240550995,-0.3865199089050293
1759347281394442800,9.82544287109375,-0.2780543863773346,-0.0981755182147026,-0.42683902382850647
1759347281404500700,9.835500732421876,-0.1856408417224884,-0.12421803921461105,-0.5291424989700317
1759347281414559500,9.8455595703125,-0.1692562699317932,0.02415752224624157,-0.6148819923400879
1759347281424618800,9.85561865234375,-0.1122070923447609,0.37341830134391785,-0.6037704944610596
1759347281434677500,9.865677490234376,-0.007920987904071808,0.8273974061012268,-0.4716579020023346
1759347281444736800,9.87573681640625,0.11122164875268936,1.217487096786499,-0.25571921467781067
1759347281454794800,9.885794677734374,0.2089967131614685,1.3606078624725342,0.02722834423184395
1759347281464853800,9.895853759765625,0.22610992193222046,1.184297800064087,0.3581993579864502
1759347281474912800,9.905912841796875,0.14579541981220245,0.792430579662323,0.7036793231964111
1759347281484971800,9.9159716796875,0.04007192701101303,0.38908979296684265,1.0674095153808594
1759347281495030500,9.926030517578125,-0.005353974644094706,0.1463007628917694,1.4565951824188232
1759347281505088800,9.9360888671875,0.01659819670021534,-0.01321564894169569,1.876550555229187
1759347281515147800,9.946147705078126,0.11073453724384308,-0.21078716218471527,2.322556495666504
1759347281525206800,9.956206787109375,0.27362918853759766,-0.5235170722007751,2.7287580966949463
1759347281535265800,9.966265869140624,0.46929529309272766,-0.9845479726791382,3.023577928543091
1759347281545324800,9.97632470703125,0.6201289892196655,-1.6081275939941406,3.1657001972198486
1759347281555382800,9.9863828125,0.6959805488586426,-2.218808650970459,3.1622660160064697
1759347281565441500,9.996441650390626,0.7160142064094543,-2.6031298637390137,3.035578727722168
1759347281575500800,10.006500732421875,0.6656742095947266,-2.7034053802490234,2.791396141052246
1759347281585559600,10.0165595703125,0.5395029783248901,-2.5123353004455566,2.4564368724823
1759347281595618800,10.026618896484376,0.3627956509590149,-1.8404990434646606,2.131258726119995
1759347281605676500,10.036676513671875,0.15955998003482819,-0.5194023251533508,1.8327066898345947
1759347281615735800,10.04673583984375,0.027721449732780457,1.1111173629760742,1.6727344989776611
1759347281625794600,10.056794677734375,0.13284119963645935,2.672102212905884,1.7488093376159668
1759347281635853800,10.066853759765625,0.38775986433029175,3.739224910736084,2.0027472972869873
1759347281645912600,10.07691259765625,0.5682083964347839,3.8346853256225586,2.1880908012390137
1759347281655970600,10.086970458984375,0.6338031888008118,2.7617053985595703,2.274580717086792
1759347281666029600,10.097029541015624,0.4745921790599823,1.633714199066162,2.007403612136841
1759347281676088800,10.1070888671875,0.22453193366527557,0.7195743918418884,1.3266072273254395
1759347281686147600,10.117147705078125,-0.01855076104402542,0.6566407084465027,0.6796787977218628
1759347281696206800,10.127206787109374,0.04644571989774704,0.8187481164932251,0.19074758887290955
1759347281706264800,10.137264892578125,0.41029423475265503,0.5401252508163452,-0.11960653960704803
1759347281716323600,10.147323486328125,0.9054171442985535,0.566196858882904,-0.05248676985502243
1759347281726382800,10.1573828125,1.2649511098861694,0.8710219860076904,0.33660560846328735
1759347281736441600,10.167441650390625,1.410792589187622,0.9987305998802185,0.7007477879524231
1759347281746500600,10.17750048828125,1.308008074760437,0.6642493009567261,0.9281593561172485
1759347281756558600,10.18755859375,1.1154650449752808,0.061706654727458954,1.0064550638198853
1759347281766617900,10.197617919921875,0.9079673290252686,-0.36993396282196045,0.9679348468780518
1759347281776676600,10.207676513671874,0.7426033020019531,-0.4519769251346588,0.8888922929763794
1759347281786735900,10.21773583984375,0.6797084808349609,-0.5018901228904724,0.8317275643348694
1759347281796794600,10.227794677734375,0.7089970111846924,-0.6839914917945862,0.8134922385215759
1759347281806852600,10.2378525390625,0.6897212862968445,-0.9853702783584595,0.7868382930755615
1759347281816911600,10.24791162109375,0.6778057813644409,-1.3342878818511963,0.7375990152359009
1759347281826970600,10.257970703125,0.6719263195991516,-1.6249282360076904,0.7053502798080444
1759347281837029400,10.268029296875,0.6492926478385925,-1.6808854341506958,0.6731431484222412
1759347281847087400,10.27808740234375,0.6433335542678833,-1.613205909729004,0.6107210516929626
1759347281857146600,10.288146728515626,0.626987874507904,-1.509448528289795,0.47655993700027466
1759347281867205400,10.298205322265625,0.6221262812614441,-1.2934232950210571,0.253835529088974
1759347281877264400,10.308264404296875,0.6203247308731079,-1.1680951118469238,-0.009954267181456089
1759347281887323400,10.318323486328126,0.5780150890350342,-1.1914883852005005,-0.24636253714561462
1759347281897381600,10.328381591796875,0.5367125272750854,-1.2258129119873047,-0.3742883801460266
1759347281907440400,10.3384404296875,0.5176131129264832,-1.2231724262237549,-0.44611063599586487
1759347281917499600,10.348499755859375,0.4983196258544922,-1.1236134767532349,-0.5316567420959473
1759347281927558400,10.358558349609375,0.44506198167800903,-1.050980806350708,-0.5913501977920532
1759347281937617700,10.36861767578125,0.3437536954879761,-0.9462472796440125,-0.6618335247039795
1759347281947675400,10.37867529296875,0.1977219134569168,-0.9202612638473511,-0.7247965335845947
1759347281957734700,10.388734619140624,0.0029010819271206856,-1.0006717443466187,-0.775484561920166
1759347281967793400,10.39879345703125,-0.1946982741355896,-1.1508369445800781,-0.7318252325057983
1759347281977852700,10.408852783203125,-0.32617369294166565,-1.2396408319473267,-0.579337477684021
1759347281987910400,10.418910400390626,-0.3711126744747162,-1.1949766874313354,-0.3344062566757202
1759347281997969400,10.428969482421875,-0.334701806306839,-1.107762098312378,-0.08163981139659882
1759347282008028400,10.4390283203125,-0.2472238838672638,-1.0155717134475708,0.11677953600883484
1759347282018087400,10.44908740234375,-0.09765542298555374,-0.9692578911781311,0.2115935981273651
1759347282028146400,10.459146484375,0.1362191140651703,-1.0336230993270874,0.18920546770095825
1759347282038204400,10.469204345703124,0.3549891710281372,-1.1007616519927979,0.08067589998245239
1759347282048263400,10.479263427734375,0.4477803707122803,-1.069146752357483,-0.03159205615520477
1759347282058322400,10.489322509765625,0.45681101083755493,-0.9198212623596191,-0.08654037863016129
1759347282068381400,10.49938134765625,0.40591293573379517,-0.6854039430618286,-0.13445143401622772
1759347282078439400,10.509439453125,0.26285964250564575,-0.38320615887641907,-0.23930145800113678
1759347282088498700,10.519498779296875,0.03016621433198452,-0.03239114210009575,-0.4202009439468384
1759347282098557400,10.529557373046876,-0.28776541352272034,0.25134044885635376,-0.6800684332847595
1759347282108616700,10.53961669921875,-0.6980333924293518,0.4298153817653656,-0.9790860414505005
1759347282118674400,10.54967431640625,-1.0722674131393433,0.6733449101448059,-1.2275712490081787
1759347282128733400,10.5597333984375,-1.3766992092132568,1.0302013158798218,-1.2782655954360962
1759347282138792400,10.56979248046875,-1.6750922203063965,1.4074779748916626,-1.035235047340393
1759347282148851500,10.5798515625,-1.6259325742721558,1.4667773246765137,-0.6082861423492432
1759347282158910500,10.589910400390625,-0.861456036567688,0.9088859558105469,-0.28926771879196167
1759347282168968400,10.599968505859374,-0.057757169008255005,0.2143266499042511,-0.2858106791973114
1759347282179027500,10.61002734375,0.06707478314638138,-0.1646941751241684,-0.40676265954971313
1759347282189086500,10.62008642578125,-0.14732806384563446,-0.1984390765428543,-0.5162222981452942
1759347282199145500,10.6301455078125,-0.28858482837677,0.0042282212525606155,-0.6258338093757629
1759347282209203500,10.640203369140625,-0.36329102516174316,0.26751309633255005,-0.7484657168388367
1759347282219262700,10.6502626953125,-0.47931239008903503,0.4379361867904663,-0.8976415395736694
1759347282229321500,10.660321533203126,-0.6361856460571289,0.41254132986068726,-0.993614137172699
1759347282239380500,10.67038037109375,-0.7077395915985107,0.2791096866130829,-1.0330902338027954
1759347282249438500,10.6804384765625,-0.6265118718147278,0.1226271316409111,-1.0016697645187378
1759347282259497500,10.69049755859375,-0.4427388906478882,-0.13771651685237885,-0.8745318055152893
1759347282269556500,10.700556396484375,-0.24784399569034576,-0.39976224303245544,-0.6696215271949768
1759347282279615500,10.710615478515624,-0.10894213616847992,-0.6868681311607361,-0.3860029876232147
1759347282289673500,10.720673583984375,-0.14151419699192047,-1.07563316822052,-0.08217465877532959
1759347282299732500,10.730732421875,-0.2862221300601959,-1.4296807050704956,0.113604836165905
1759347282309791500,10.74079150390625,-0.5227267742156982,-1.6563040018081665,0.13366881012916565
1759347282319850500,10.7508505859375,-0.807227373123169,-1.6018872261047363,-0.48127758502960205
1759347282329909500,10.760909423828124,-0.8740969300270081,-0.8313329815864563,-1.8032864332199097
1759347282339967500,10.770967529296875,-0.6356550455093384,0.10595163702964783,-2.8385908603668213
1759347282350026500,10.781026611328125,-0.30178362131118774,0.9317129850387573,-3.232556104660034
1759347282360085500,10.79108544921875,-0.003386205993592739,1.650565266609192,-3.0233874320983887
1759347282370144300,10.801144287109375,0.2609538435935974,2.0681021213531494,-2.417654037475586
1759347282380202500,10.811202392578124,0.503383457660675,2.262580633163452,-1.6963856220245361
1759347282390261500,10.821261474609376,0.704741895198822,2.4390501976013184,-1.1205472946166992
1759347282400320500,10.831320556640625,0.7221484184265137,2.497493267059326,-0.7606553435325623
1759347282410379500,10.841379638671874,0.5690566301345825,2.448437452316284,-0.6255630254745483
1759347282420437500,10.8514375,0.3446248173713684,2.2009482383728027,-0.6829964518547058
1759347282430496500,10.86149658203125,0.16912995278835297,1.7390058040618896,-0.8579254150390625
1759347282440555500,10.871555419921876,0.10060162097215652,1.0648738145828247,-1.0404006242752075
1759347282450614500,10.881614501953125,0.09569235146045685,0.353395938873291,-1.1863967180252075
1759347282460672300,10.89167236328125,0.06556753069162369,-0.1828722357749939,-1.2581859827041626
1759347282470731500,10.9017314453125,-0.0020005987025797367,-0.5383421778678894,-1.2188186645507812
1759347282480790300,10.911790283203125,-0.10394995659589767,-0.6605506539344788,-1.094851016998291
1759347282490849500,10.921849609375,-0.2083549201488495,-0.42761221528053284,-0.9440026879310608
1759347282500907500,10.931907470703125,-0.3472915291786194,0.040607888251543045,-0.7654666900634766
1759347282510966500,10.941966552734375,-0.5018947124481201,0.5085007548332214,-0.5572522878646851
1759347282521025500,10.952025634765626,-0.5826922655105591,0.7503456473350525,-0.4038676917552948
1759347282531084500,10.96208447265625,-0.6325556635856628,0.7069821953773499,-0.4130478799343109
1759347282541142500,10.972142578125,-0.6517212390899658,0.5140078067779541,-0.5748370289802551
1759347282551201500,10.982201416015625,-0.6767139434814453,0.3200918734073639,-0.7833462953567505
1759347282561260500,10.992260498046875,-0.7282717823982239,0.18442696332931519,-0.9063882231712341
1759347282571319600,11.002319580078124,-0.7518572211265564,0.1154545396566391,-0.9009063839912415
1759347282581377500,11.01237744140625,-0.7147295475006104,0.06539952754974365,-0.7695212364196777
1759347282591436300,11.022436279296874,-0.6555051207542419,0.09083803743124008,-0.5741059184074402
1759347282601495600,11.03249560546875,-0.5956762433052063,0.11733530461788177,-0.37419402599334717
1759347282611553500,11.042553466796875,-0.49353307485580444,0.08659417182207108,-0.24872317910194397
1759347282621612500,11.052612548828124,-0.3497971296310425,-0.021407557651400566,-0.2045055627822876
1759347282631671600,11.062671630859375,-0.2110125869512558,-0.13939091563224792,-0.22934220731258392
1759347282641730600,11.07273046875,-0.12388579547405243,-0.24079649150371552,-0.2553430199623108
1759347282651788500,11.08278857421875,-0.0854601114988327,-0.1737884283065796,-0.27525627613067627
1759347282661847600,11.09284765625,-0.08767754584550858,0.07602116465568542,-0.284610778093338
1759347282671906600,11.102906494140624,-0.07074889540672302,0.41988638043403625,-0.25852593779563904
1759347282681965600,11.112965576171876,0.0019375020638108253,0.7676163911819458,-0.17910905182361603
1759347282692023600,11.1230234375,0.11842682957649231,1.0198254585266113,-0.05184617638587952
1759347282702082300,11.133082275390626,0.2059631645679474,1.0622740983963013,0.14219948649406433
1759347282712141600,11.1431416015625,0.22276398539543152,0.9335826635360718,0.42462024092674255
1759347282722200300,11.153200439453125,0.204209566116333,0.7389478087425232,0.7914960980415344
1759347282732258600,11.163258544921876,0.19459742307662964,0.5690106749534607,1.215024709701538
1759347282742317300,11.1733173828125,0.23304329812526703,0.3954700827598572,1.6477813720703125
1759347282752376600,11.18337646484375,0.299119234085083,0.12457225471735,2.0665886402130127
1759347282762435300,11.193435302734375,0.3986952304840088,-0.2729901671409607,2.4558191299438477
1759347282772493600,11.20349365234375,0.5475281476974487,-0.7436458468437195,2.79492449760437
1759347282782552600,11.213552490234376,0.7129979133605957,-1.0979113578796387,3.0652215480804443
1759347282792611600,11.223611572265625,0.8619005680084229,-1.3349277973175049,3.2201499938964844
1759347282802669600,11.233669677734374,0.9344413876533508,-1.5734614133834839,3.168818712234497
1759347282812728300,11.243728271484375,0.9495790600776672,-1.8233540058135986,2.9116415977478027
1759347282822787600,11.25378759765625,0.9010146856307983,-1.921169400215149,2.4904913902282715
1759347282832846800,11.263846923828124,0.7344915270805359,-1.5541006326675415,2.059864044189453
1759347282842904800,11.27390478515625,0.46897023916244507,-0.5696998238563538,1.6799407005310059
1759347282852963800,11.2839638671875,0.26047268509864807,0.7660163044929504,1.437833309173584
1759347282863022800,11.29402294921875,0.22530320286750793,2.2637555599212646,1.3914018869400024
1759347282873081900,11.304081787109375,0.4590006470680237,3.2380688190460205,1.5432285070419312
1759347282883139800,11.314139892578124,0.6470088958740234,3.1377673149108887,1.7076438665390015
1759347282893198800,11.32419873046875,0.6175676584243774,1.8237533569335938,1.7938696146011353
1759347282903257900,11.3342578125,0.4178226590156555,0.5413261651992798,1.7134284973144531
1759347282913315800,11.34431591796875,0.10764162242412567,0.013865015469491482,1.3936097621917725
1759347282923374800,11.354374755859375,-0.1315481811761856,0.026563022285699844,0.8902935981750488
1759347282933433900,11.364433837890624,-0.09129690378904343,0.10377950966358185,0.3061515688896179
1759347282943492900,11.374492919921876,0.22377772629261017,0.006345144938677549,-0.24754834175109863
1759347282953550800,11.38455078125,0.803498387336731,0.08064334094524384,-0.564624547958374
1759347282963609900,11.39460986328125,1.426337480545044,0.5284091830253601,-0.5712316036224365
1759347282973668900,11.4046689453125,1.7079979181289673,1.0000935792922974,-0.22823059558868408
1759347282983727900,11.414727783203125,1.599777340888977,0.8189453482627869,0.2616161108016968
1759347282993785900,11.424785888671876,1.2919601202011108,0.22338157892227173,0.6010932326316833
1759347283003844900,11.434844970703125,1.031442403793335,-0.44412100315093994,0.7207779288291931
1759347283013904000,11.44490380859375,0.8938557505607605,-0.7705680727958679,0.7637723088264465
1759347283023961900,11.4549619140625,0.7924737334251404,-0.7273406386375427,0.7635274529457092
1759347283034020900,11.465020751953125,0.69072026014328,-0.8752323985099792,0.7740261554718018
1759347283044079900,11.475079833984376,0.5689886808395386,-1.304163932800293,0.8369300365447998
1759347283054139000,11.485138916015625,0.4476529359817505,-1.6799527406692505,0.8557602167129517
1759347283064196900,11.49519677734375,0.38389161229133606,-1.8395297527313232,0.8708716034889221
1759347283074255600,11.505255615234375,0.36905595660209656,-1.7110599279403687,0.9024348855018616
1759347283084315000,11.51531494140625,0.3800947964191437,-1.5396318435668945,0.8922804594039917
1759347283094372900,11.525372802734376,0.4049721658229828,-1.3159137964248657,0.7917889952659607
1759347283104431900,11.535431884765625,0.4552007019519806,-1.2219268083572388,0.6301195621490479
1759347283114490600,11.54549072265625,0.5019652843475342,-1.243381142616272,0.40091484785079956
1759347283124550000,11.5555498046875,0.5157637596130371,-1.1458653211593628,0.13133683800697327
1759347283134608000,11.56560791015625,0.48353341221809387,-1.0759453773498535,-0.08523248136043549
1759347283144667000,11.5756669921875,0.4247574806213379,-0.977519690990448,-0.2650441825389862
1759347283154726000,11.585725830078125,0.42387065291404724,-0.8985216021537781,-0.3982357978820801
1759347283164783600,11.59578369140625,0.4114076793193817,-0.7300270199775696,-0.49687570333480835
1759347283174843000,11.6058427734375,0.37860018014907837,-0.5610904097557068,-0.5641905665397644
1759347283184901600,11.615901611328125,0.317975252866745,-0.47716283798217773,-0.6316618919372559
1759347283194961000,11.6259609375,0.2370753437280655,-0.4679504334926605,-0.6672680974006653
1759347283205019000,11.636018798828125,0.1282765418291092,-0.5434505343437195,-0.6437579393386841
1759347283215078000,11.646077880859375,0.0025774692185223103,-0.663485586643219,-0.5681097507476807
1759347283225136600,11.65613671875,-0.12188772112131119,-0.7829273343086243,-0.4516372084617615
1759347283235195000,11.66619482421875,-0.21121680736541748,-0.8237711787223816,-0.32078009843826294
1759347283245254000,11.67625390625,-0.24309247732162476,-0.8334252238273621,-0.16662563383579254
1759347283255313000,11.68631298828125,-0.20942771434783936,-0.8881071209907532,0.019452620297670364
1759347283265372000,11.696371826171875,-0.14474453032016754,-0.9462829232215881,0.17898020148277283
1759347283275429600,11.7064296875,-0.007720904890447855,-1.0368354320526123,0.2470351606607437
1759347283285489000,11.716489013671875,0.16364271938800812,-1.1977934837341309,0.21199703216552734
1759347283295547600,11.726547607421875,0.3121086061000824,-1.2150189876556396,0.10418535768985748
1759347283305606000,11.73660595703125,0.3181380331516266,-1.1826457977294922,0.05001625791192055
1759347283315665000,11.746664794921875,0.3075735569000244,-1.101506233215332,0.01091519370675087
1759347283325724000,11.756723876953124,0.25737616419792175,-0.924273669719696,-0.08405306190252304
1759347283335782700,11.76678271484375,0.15839044749736786,-0.6407716274261475,-0.27091801166534424
1759347283345841000,11.7768408203125,0.03408367559313774,-0.2581832706928253,-0.5358127951622009
1759347283355900000,11.78689990234375,-0.18548783659934998,0.12762461602687836,-0.8307895660400391
1759347283365959000,11.796958984375,-0.526191234588623,0.42881008982658386,-1.1314666271209717
1759347283376017000,11.807016845703124,-0.9427644610404968,0.6326183080673218,-1.3617240190505981
1759347283386075600,11.81707568359375,-1.345815896987915,0.8773057460784912,-1.4376038312911987
1759347283396135000,11.827135009765625,-1.8268327713012695,1.1381844282150269,-1.2308727502822876
1759347283406193000,11.83719287109375,-2.013821840286255,1.210080623626709,-0.6649569869041443
1759347283416252000,11.847251953125,-1.3439308404922485,0.9623163342475891,0.008908512070775032
1759347283426310700,11.857310546875,-0.43747416138648987,0.5324060916900635,0.28888842463493347
1759347283436370000,11.867369873046876,-0.14986498653888702,0.21396976709365845,0.10204238444566727
1759347283446428000,11.877427978515625,-0.3443920314311981,-0.03917344659566879,-0.13891606032848358
1759347283456486700,11.887486572265624,-0.5393216013908386,-0.2556977868080139,-0.3299579322338104
1759347283466546000,11.8975458984375,-0.56435227394104,-0.3052281439304352,-0.5525326728820801
1759347283476603600,11.907603759765625,-0.5598616600036621,-0.19280438125133514,-0.7922616600990295
1759347283486663000,11.917662841796876,-0.5936943888664246,-0.042183563113212585,-0.9954099655151367
1759347283496721700,11.9277216796875,-0.5593830347061157,-0.002528828103095293,-1.1890950202941895
1759347283506780000,11.93777978515625,-0.3889012932777405,-0.017807915806770325,-1.3199025392532349
1759347283516839000,11.9478388671875,-0.12467310577630997,-0.06232079118490219,-1.3188527822494507
1759347283526898000,11.95789794921875,0.15815229713916779,-0.23836122453212738,-1.193094253540039
1759347283536956700,11.967956787109374,0.36044999957084656,-0.4079313278198242,-0.9802780747413635
1759347283547014700,11.9780146484375,0.3589727282524109,-0.5316283106803894,-0.6536085605621338
1759347283557074000,11.988073974609375,0.17836886644363403,-0.5942453742027283,-0.30323565006256104
1759347283567132700,11.998132568359376,-0.1545538753271103,-0.5863294005393982,-0.03366945683956146
1759347283577191000,12.00819091796875,-0.537532389163971,-0.5038094520568848,0.07374408096075058
1759347283587249700,12.018249755859374,-0.8609150648117065,-0.22008216381072998,-0.4299232065677643
1759347283597309000,12.028308837890625,-0.892332911491394,0.8488427400588989,-1.6748745441436768
1759347283607367000,12.038366943359375,-0.5727883577346802,1.5639092922210693,-2.594449996948242
1759347283617426000,12.048426025390626,-0.12351197749376297,1.998859167098999,-3.010073184967041
1759347283627484700,12.058484619140625,0.26786869764328003,2.1855721473693848,-2.9213907718658447
1759347283637542700,12.068542724609374,0.5335943698883057,2.205270528793335,-2.4498071670532227
1759347283647602000,12.078601806640625,0.6495444774627686,2.187563180923462,-1.7759345769882202
1759347283657660700,12.08866064453125,0.6259547472000122,2.068674087524414,-1.1370859146118164
1759347283667719000,12.098718994140626,0.546155571937561,1.830519676208496,-0.6746518611907959
1759347283677777700,12.108777587890625,0.4772886633872986,1.502812385559082,-0.42988288402557373
1759347283687837000,12.1188369140625,0.3395613729953766,1.2024297714233398,-0.4099377691745758
1759347283697895700,12.128895751953126,0.15933886170387268,0.8670579195022583,-0.5445475578308105
1759347283707954000,12.138953857421875,0.025051278993487358,0.48792171478271484,-0.7601317167282104
1759347283718013000,12.149012939453126,0.022460555657744408,0.1090121939778328,-0.9829211235046387
1759347283728072000,12.159072021484375,0.11008606106042862,-0.1434226930141449,-1.1554023027420044
1759347283738130000,12.1691298828125,0.16149680316448212,-0.213815376162529,-1.2178072929382324
1759347283748188700,12.179188720703126,0.12294439971446991,-0.0964328944683075,-1.156713604927063
1759347283758248000,12.189248046875,0.021673711016774178,0.22399331629276276,-1.006227731704712
1759347283768305700,12.1993056640625,-0.12205607444047928,0.6553341150283813,-0.8016083836555481
1759347283778365000,12.209364990234375,-0.292014479637146,0.9877749085426331,-0.6100122928619385
1759347283788423700,12.219423583984375,-0.4098982512950897,1.0426528453826904,-0.5096036791801453
1759347283798481700,12.229481689453126,-0.45673924684524536,0.8831014633178711,-0.55833899974823
1759347283808541000,12.239541015625,-0.4719267189502716,0.6149606108665466,-0.7272129654884338
1759347283818599700,12.249599609375,-0.5122256875038147,0.36109235882759094,-0.901589572429657
1759347283828658000,12.259657958984375,-0.5810933709144592,0.21555760502815247,-0.9796555042266846
1759347283838716200,12.269716064453124,-0.6350380778312683,0.16758261620998383,-0.9325668215751648
1759347283848775200,12.279775146484376,-0.6762934327125549,0.19028568267822266,-0.8151389956474304
1759347283858833200,12.289833251953125,-0.7060196399688721,0.22157062590122223,-0.6658496856689453
1759347283868892200,12.29989208984375,-0.6898466348648071,0.22809119522571564,-0.5090025067329407
1759347283878951200,12.309951171875,-0.6211722493171692,0.1859043389558792,-0.3998379111289978
1759347283889009200,12.320009033203124,-0.5332613587379456,0.02961760200560093,-0.36045724153518677
1759347283899068200,12.330068115234376,-0.4384981095790863,-0.15647929906845093,-0.40258923172950745
1759347283909127200,12.340127197265625,-0.38781246542930603,-0.30341607332229614,-0.46711626648902893
1759347283919185200,12.35018505859375,-0.38418760895729065,-0.18305237591266632,-0.4786059558391571
1759347283929244200,12.360244140625,-0.35073697566986084,0.128402441740036,-0.44606104493141174
1759347283939303200,12.37030322265625,-0.23232591152191162,0.5146915912628174,-0.423773854970932
1759347283949362200,12.380362060546876,-0.07552118599414825,0.8481760621070862,-0.3871690034866333
1759347283959420200,12.390420166015625,0.06146223843097687,1.1293392181396484,-0.2620033621788025
1759347283969479200,12.400479248046874,0.16556309163570404,1.3626958131790161,-0.01652153953909874
1759347283979538200,12.4105380859375,0.23901040852069855,1.3580139875411987,0.3198053240776062
1759347283989596200,12.42059619140625,0.26279205083847046,1.115658164024353,0.7112486958503723
1759347283999655200,12.4306552734375,0.27788046002388,0.7418640851974487,1.0845786333084106
1759347284009714200,12.440714111328125,0.2836848497390747,0.4254775643348694,1.4303081035614014
1759347284019772400,12.4507724609375,0.28763672709465027,0.2351827174425125,1.780759334564209
1759347284029831200,12.4608310546875,0.3242966830730438,0.008848736993968487,2.1794047355651855
1759347284039890200,12.47089013671875,0.41022971272468567,-0.4486922025680542,2.589034080505371
1759347284049948200,12.4809482421875,0.4963623583316803,-1.1290498971939087,2.9276154041290283
1759347284060007200,12.491007080078125,0.5678815841674805,-1.8964264392852783,3.110628604888916
