seconds_elapsed,acc_z,acc_y,acc_x,grav_z,grav_y,grav_x,gyro_z,gyro_y,gyro_x
4.055212646484375,-1.6586493971772491,-0.9530430673897266,-2.630368961855769,1.2471461329683662,-9.720755677354337,0.3491437290707603,-0.4502786993980407,-1.5872390270233154,-0.71639484167099
4.065269775390625,-1.2025970894068478,-0.1715869852393865,-2.1323731168471274,1.162344939321652,-9.729185067525506,0.4028617291243747,-0.2814137935638428,-1.347398042678833,-0.8966735601425171
4.07532666015625,-0.7323272365178912,0.5297159482657909,-1.6275827893927692,1.0627273578803986,-9.739160518094897,0.435569528244622,-0.1329034566879272,-0.9529095888137816,-1.0319828987121582
4.085384521484375,-0.4569933880127966,1.2701064450562,-0.8556772103980184,0.952593350860849,-9.74976900587082,0.452702960809879,-0.0614849366247653,-0.5452861785888672,-1.1522337198257446
4.095441650390625,-0.9413421812672168,1.4966110153973102,-0.4104185742447152,0.8310591942310332,-9.760646373715996,0.4577039839675649,0.0126152755692601,-0.1483503431081771,-1.2861086130142212
4.10549853515625,-0.5711199717998504,1.884716014492512,0.1572486998179927,0.7022025857586414,-9.77076737023592,0.4576121044330298,-0.0319724343717098,0.2207587212324142,-1.32649564743042
4.1155556640625,0.3348012423982843,2.3197084369689223,1.0494712782051414,0.5767910397062078,-9.77869348706007,0.4635144603446126,-0.130554586648941,0.4225220084190368,-1.2412984371185305
4.12561279296875,0.7467226224213838,2.6424580435782667,1.0132482375055551,0.4644438866818323,-9.78406232061684,0.4762444337865337,-0.1641250550746917,0.426771879196167,-1.080359697341919
4.135670654296875,0.8514987556695938,2.664455355852842,0.419210660248436,0.3672993077579885,-9.787653038585184,0.48714419612661,-0.074191577732563,0.3469946980476379,-0.9398934841156006
4.145727783203125,0.4602688660195097,2.0237159043818718,-0.8486591483294963,0.2752001573891379,-9.791103471300003,0.4784558262256905,0.2802123129367828,0.3871032297611236,-1.0145013332366943
4.15578466796875,-1.1866571774750947,0.5137772053778171,-3.393656350108981,0.1635848805695772,-9.796097041803598,0.4243974152365699,0.7794226408004761,0.556454598903656,-1.2858564853668213
4.165841552734375,-0.6562059006720781,-0.1300911917686462,-2.950659777136147,0.0278773536063614,-9.800907072433828,0.3343957303373143,0.997754156589508,0.8883454203605652,-1.5087910890579224
4.17589990234375,0.7524643809437751,-0.3943208048701286,-1.2417223543539642,-0.1187490559559315,-9.80303180950284,0.2384022576773539,0.93198823928833,1.1569466590881348,-1.4920817613601685
4.185956787109375,2.7230525062501427,-0.5053408009439706,0.0610109335407614,-0.2498427575643174,-9.802145089796184,0.1609017059002071,0.6656050086021423,1.1453064680099487,-1.1762433052062988
4.196013671875,3.83075889660716,-0.7563274861127137,1.0790130875751376,-0.3422570382969453,-9.800005739679932,0.1144965770100709,0.3389249145984649,0.8154856562614441,-0.7368178367614746
4.20607080078125,3.0195313610494137,-0.8898352083265781,1.3641193383581935,-0.3993773941399529,-9.79803064021468,0.0973910736313555,0.0656105354428291,0.431307315826416,-0.4656893610954284
4.216128662109375,1.7507599639892577,-0.5752519570380449,1.2776478003464635,-0.4427773772642016,-9.796131528595089,0.1008138420211151,-0.0893077999353408,0.3320460021495819,-0.4579804539680481
4.226185546875,0.6995416959863155,0.0627899259120225,0.9262876738678664,-0.4931907462818548,-9.7935748298496,0.1142922409438528,-0.1425108313560485,0.360393226146698,-0.5705770254135132
4.23624267578125,0.2995136193852871,0.3959469447672367,0.3642123380606993,-0.5504555886294692,-9.79034651545286,0.1285441358565818,-0.0977373793721199,0.2559128403663635,-0.5871018171310425
4.2462998046875,0.1825051234863698,0.4603554117918014,-0.2127165392136201,-0.6064280530789866,-9.786970317018032,0.1337078661621548,0.009431418031454,0.0433140434324741,-0.5521555542945862
4.25635791015625,0.1623135454595088,0.8384446283072232,-0.2700685118554159,-0.6567158229555934,-9.783780581066011,0.1294091917206999,0.0715779066085815,-0.0344563201069831,-0.4640523195266723
4.266414794921875,0.7637023987948894,1.2315461205154656,-0.2433607203349471,-0.6972631565950811,-9.781090611329674,0.1203584547807928,0.1102688387036323,0.0200945399701595,-0.3564560711383819
4.2764716796875,0.972978697894141,1.2050965050071478,-0.5355738074485212,-0.7254781743407249,-9.779182731881738,0.1080591278410982,0.1394013017416,0.0204219929873943,-0.219176635146141
4.28652880859375,0.8684089008729904,0.9477239181935788,-0.7101615088738501,-0.7412170107424259,-9.778139360308646,0.0948515086837578,0.1293963342905044,0.1050399467349052,-0.1044279411435127
4.296585693359375,1.0501776729088277,0.6056611238270998,-0.6562367342017591,-0.7461140620689839,-9.777848852929472,0.085967908471683,0.0784464552998542,0.2506240010261535,-0.0022833342663943
4.306643798828125,0.8831809380691498,0.1248778410345315,-1.0210851416762918,-0.7444669524490832,-9.77800082862079,0.0830070402389392,0.0308680236339569,0.3539402782917022,0.0150644965469837
4.316700927734375,0.2534813515286892,0.0051443771511316,-1.3549132647261022,-0.7463873991176485,-9.777827810141444,0.08598628437859,-0.0408969819545745,0.3625466227531433,-0.0718363374471664
4.3267578125,-0.3501579110819846,0.1359054310053586,-1.1805782228875903,-0.7607518053609877,-9.776608497479558,0.0979502053514588,-0.1545532494783401,0.2969167232513428,-0.2287148982286453
4.336814697265625,-0.641959348654747,0.263758488458395,-0.8826521649546921,-0.7905217243984342,-9.7739763954103,0.121894523507962,-0.2921791672706604,0.1956928670406341,-0.3790089190006256
4.346872802734375,-0.5101272315029055,0.3603343641161918,-0.7732033637203276,-0.8324212032992392,-9.769993463253977,0.1569956931713037,-0.388556033372879,0.1179725006222724,-0.4665896594524383
4.3569296875,0.0031401246566325,0.4262070584744215,-1.029850339673087,-0.8782206853132695,-9.765238962203265,0.1980147907746955,-0.4250573515892029,0.0674005672335624,-0.4587235152721405
4.366987060546875,0.5801718777835368,0.3656827394068241,-1.3747338174834849,-0.9191015617560596,-9.760530053859949,0.2401814509780146,-0.4195550084114074,0.0584384985268116,-0.3677811026573181
4.3770439453125,1.0964239488422869,0.1730365995258092,-1.6236444270305337,-0.9490307630084456,-9.756576932319998,0.2809461719615385,-0.3955328166484833,0.0921433568000793,-0.2480494081974029
4.3871015625,1.106191382684186,-0.1573451093971729,-1.8831103328615424,-0.9689739922974258,-9.753452078297734,0.3187989327548071,-0.356816828250885,0.1115689873695373,-0.1761738806962967
4.397158935546875,0.5256348164319992,-0.2836269720107316,-1.9024474860161544,-0.9862197261307388,-9.750472185704112,0.3550450255364179,-0.368434190750122,0.1166348308324813,-0.1966875195503235
4.4072158203125,-0.1129578322686254,-0.0835299316018819,-1.369692316184938,-1.0100730415355414,-9.74646470362842,0.3957012263778597,-0.450141578912735,0.0940312519669532,-0.3039261102676391
4.417272705078125,-0.6114895377196371,-0.0133563251793384,-0.6353310896214097,-1.04694431701079,-9.740323132133485,0.4476855345066636,-0.6010748744010925,0.0368466898798942,-0.4567340016365051
4.427330810546875,-1.0190731442667544,-0.4577846845209598,-0.126354379860498,-1.099196482295543,-9.73134019973278,0.5130180210409686,-0.7284184694290161,-0.0558113418519496,-0.6089813113212585
4.4373876953125,-1.2831765006400644,-1.5673299807429313,0.0299471753004938,-1.1651938259467485,-9.719536364692448,0.5859613113725558,-0.776923418045044,-0.1417847573757171,-0.7211781740188599
4.447444580078125,-1.0462461056135597,-2.8016654397159813,0.2656096692830324,-1.2388697414018213,-9.705643448418378,0.660347749717161,-0.7771170139312744,-0.1062448769807815,-0.7584102153778076
4.457501708984375,-0.3633583881124854,-3.629961014452576,0.8179512177895754,-1.3109358835726976,-9.690776718676087,0.7352871092367916,-0.7669907808303833,0.0504877604544162,-0.7069270610809326
4.4675595703125,-0.0621861147999763,-4.263970865407586,1.195652530965954,-1.3743348812937737,-9.67596902564466,0.8106885333102196,-0.7412167191505432,0.2359359264373779,-0.6127979159355164
4.477616455078125,-0.0391560984767973,-4.626718135884404,1.2587991613611578,-1.4259452415436504,-9.661878540971877,0.8861061778660864,-0.712482750415802,0.4505466818809509,-0.5101408958435059
4.487673828125,0.0526056548975408,-4.658135602933168,1.2520960104607044,-1.4651853650420903,-9.648866499185562,0.9607448008734732,-0.6694018840789795,0.574869692325592,-0.3968170285224914
4.497730712890625,0.0598280073665082,-4.758781504508852,0.9688556266147644,-1.492608063366264,-9.637255556368828,1.0323978321988134,-0.6445861458778381,0.5202167630195618,-0.2841593325138092
4.507788818359375,0.1012789387822151,-5.134153278759122,0.5764702467866242,-1.5090693688236176,-9.627146834808588,1.1005184516143054,-0.6312322616577148,0.3517380356788635,-0.1506606638431549
4.517845703125,0.6037761868633329,-5.491171650195121,0.1500080445073545,-1.5128247758343816,-9.618783495610952,1.1665035933710637,-0.6411831378936768,0.2502672672271728,0.0099905598908662
4.527902587890625,1.5686602064333854,-5.571217831334471,-0.2851540354475378,-1.4998274932257831,-9.612510991212725,1.2331084013961255,-0.6532912254333496,0.2939020991325378,0.1953588128089904
4.537959716796875,2.541604052209854,-5.191549821195006,-0.7495927710302174,-1.4675056246832012,-9.608508185312152,1.3013066160924731,-0.6399357914924622,0.4348015189170837,0.3775562644004822
4.548017822265625,3.1977941707909103,-4.358607881957292,-1.3072542724505063,-1.4157602398768063,-9.607069092419742,1.3675579345047473,-0.5767472386360168,0.5543614625930786,0.5543385148048401
4.55807470703125,3.5274095715165137,-3.351156348031759,-1.8364551108010112,-1.3461416369885206,-9.6083579631865,1.427495685856044,-0.4950523674488067,0.5837515592575073,0.7168892621994019
4.5681318359375,3.5492473093152044,-2.3531261379241943,-2.305898230542242,-1.2612882016979157,-9.612195349392294,1.478252351886034,-0.4030755758285522,0.5278344750404358,0.8670617341995239
4.578188720703125,3.4994647490143773,-1.531529768565297,-2.690109437069297,-1.1628741508275269,-9.618267362782358,1.5188960585720837,-0.3157266974449157,0.4533406794071197,1.0170854330062866
4.588246826171875,3.535477142637968,-0.845224497705698,-3.0392963842272755,-1.0495475583117455,-9.6264150134027,1.5495045473255216,-0.2168070375919342,0.4003230035305023,1.193258285522461
4.5983037109375,3.6382431051075454,-0.3837199158787727,-3.408693760243058,-0.9179806679673492,-9.63676338893771,1.568600439070165,-0.0969095155596733,0.3711755275726318,1.4020881652832031
4.60836083984375,3.772605982846021,-0.2151549088090658,-3.892108560582995,-0.7654888438202441,-9.649254621720312,1.5736233817987144,0.0609016865491867,0.3451029360294342,1.6293647289276123
4.61841796875,3.87805606983304,-0.3661269760429859,-4.324844728565216,-0.5909665357813239,-9.663484222602843,1.5614872460640965,0.2416978329420089,0.3111854493618011,1.8577337265014648
4.628475830078125,3.9500796880364417,-0.8574427587658167,-4.469709711095691,-0.3957371379414573,-9.67839128435552,1.530527898046374,0.4214710593223572,0.3697326481342315,2.038851737976074
4.63853271484375,3.79308646081686,-1.6166425854444504,-4.2528024056613445,-0.1848744464335963,-9.692219318699836,1.4822620259188115,0.5824565887451172,0.5675768852233887,2.1272664070129395
4.64858984375,3.1896699010461567,-2.328467497485876,-3.7421632060483097,0.0332249091963749,-9.703294839465618,1.4196382503539322,0.7038688063621521,0.8673204779624939,2.1153059005737305
4.658646728515625,1.9312158998608588,-2.925774634465575,-2.9767969656944278,0.24840538170496,-9.710820558795332,1.3448491129599511,0.792456865310669,1.0809473991394043,1.9996838569641116
4.668705078125,0.247452665823698,-2.8852380414158105,-2.175058704624325,0.4510556685268879,-9.714996383175253,1.2592765696145594,0.8833436369895935,1.1185773611068726,1.851968765258789
4.678761962890625,-1.234863282239437,-2.6237732168525456,-1.705802485757321,0.6390059787418693,-9.716839965215325,1.1597747965727,1.020963191986084,1.0105730295181274,1.730285882949829
4.68881884765625,-2.3892940143704413,-2.0286001692920923,-0.7530373585261404,0.8146578022673726,-9.71630571220815,1.048870974224433,1.107941508293152,0.8385392427444458,1.6679977178573608
4.698875732421875,-2.6276304768025875,-1.2340788538634777,0.1203149900984019,0.9858071267418564,-9.712510411578416,0.9304401173722,1.1744781732559204,0.6537460088729858,1.6890966892242432
4.70893359375,-2.421310616356134,-0.7286836923837662,0.6971814696609974,1.157770836339146,-9.704498954558373,0.8078736220199614,1.186837077140808,0.6458401679992676,1.718636989593506
4.71899072265625,-1.835402825269103,-0.533779544442892,1.562578986823559,1.331722651013732,-9.691556470876932,0.686025211809203,1.112993240356445,0.8237643241882324,1.7318557500839231
4.7290478515625,-1.2038785075195133,-0.5990700549989938,2.5202657883659003,1.5068942167416215,-9.673401220983266,0.5700498583503067,0.9751254320144652,1.157051920890808,1.7451175451278689
4.73910498046875,0.1188121112547814,-0.9626987844854592,3.282276873072981,1.6868649994447826,-9.64944926750958,0.4615064815230667,0.7929813265800476,1.636884093284607,1.818974852561951
4.74916259765625,1.2044704820632934,-1.4496446815609931,4.117944437882304,1.8756696614667767,-9.61889923094511,0.3592124839467928,0.6394509077072144,2.0353100299835205,1.917050004005432
4.7592197265625,0.9362595442406833,-1.5843220320761202,4.724287114232778,2.0690622358009216,-9.5823835639745,0.2593932607199065,0.5591977834701538,2.217909336090088,1.93140709400177
4.769276611328125,-0.5684744257271289,-0.9629489598542452,4.543536579328775,2.252645802173763,-9.543107200118898,0.1583764252062887,0.59407639503479,1.980879545211792,1.7688571214675903
4.77933349609375,-2.798614819973707,-0.3451625139474868,3.276533653245866,2.411053280105442,-9.505480357035994,0.05514750313377,0.753844678401947,1.3411719799041748,1.487767457962036
4.789391845703125,-4.424321001839638,0.0508808769315481,1.5447468314044177,2.5358944423913954,-9.47296223526895,-0.0510642021757783,0.9776506423950196,0.5813230872154236,1.122026801109314
4.79944873046875,-4.501728651168942,-0.2441834348946809,0.1113657225052826,2.625721720571816,-9.447095972606538,-0.1683775947388261,1.2761826515197754,0.3555271923542022,0.7859695553779602
4.809505615234375,-2.375426524798572,-1.4592109668076036,-1.768705516654998,2.686971723565459,-9.425726436841488,-0.3259213685132563,1.725820541381836,0.9155111312866212,0.5530577301979065
4.819562744140625,-0.5777335447207093,-2.8261785342037675,-3.524617018188536,2.7268285176575184,-9.403851874163747,-0.549865294586122,2.2510266304016118,1.6839184761047363,0.4194560647010803
4.82962060546875,-0.3667620590761303,-3.6621652479648583,-3.734641578371823,2.74809546983093,-9.376508524686098,-0.8363385959386825,2.604277372360229,2.266601085662842,0.3365135192871094
4.839677734375,-0.5883528461515903,-3.2552836522072552,-1.6090397092252968,2.757200859567523,-9.341060194686056,-1.145788575991988,2.578235626220703,2.2514455318450928,0.360223114490509
4.849734619140625,-1.191313771109283,-2.2777929567813877,0.0958335328578949,2.772085124966502,-9.296974384722112,-1.4325461011134086,2.3594582080841064,1.6570247411727903,0.519079864025116
4.859791748046875,-1.3580603305801748,-1.4792045380443333,0.1261805941961705,2.810891533222794,-9.24412425354421,-1.6779222529239952,2.1538290977478027,0.8443503975868225,0.7385478019714355
4.869849853515625,-1.6573910676792265,-0.8846399777710438,-0.2711841084145009,2.882025216849148,-9.182976834142208,-1.8807538328632711,1.958979249000549,0.0713260993361473,0.9503242373466492
4.87990673828125,-1.778270194466412,-0.5475754300832748,-0.0268836230114102,2.9768674005821345,-9.11617007380426,-2.0503853001207117,1.8289828300476076,-0.2943693697452545,1.042890191078186
4.889963623046875,-1.7363737112402915,-0.457847812885046,0.2706574541918933,3.083410835763812,-9.045037851482627,-2.20232942725718,1.7708662748336792,-0.4919103980064392,1.1051315069198608
4.900020751953125,-1.8466031414583324,-0.2977864302664995,0.7039183767005801,3.1996257701322435,-8.969269786053895,-2.342001078928262,1.723027229309082,-0.7000954747200012,1.160677194595337
4.910078857421875,-1.8832985489100216,0.0190408005565404,1.2650602675825358,3.326104324361682,-8.889408313831687,-2.466949500980973,1.6590015888214111,-0.9311513304710388,1.2168878316879272
4.92013525390625,-1.9239350952029224,0.2671253345429897,1.711023581406474,3.461761041302979,-8.805746280282735,-2.5778742199867963,1.6210721731185913,-1.1042543649673462,1.240026354789734
4.9301923828125,-2.392803776057064,0.3072515932261944,2.165546926043928,3.6008278589487075,-8.719428179267048,-2.6788036146789787,1.613533616065979,-1.2300764322280884,1.2119446992874146
4.940249267578125,-2.902047137397528,0.0675169544339179,2.236638524094224,3.739270114955306,-8.630081085819006,-2.7766809283241627,1.6768107414245603,-1.3172295093536377,1.1909193992614746
4.9503076171875,-3.365656874810159,0.5022837514609099,2.365612402270734,3.891633052025735,-8.534829736763239,-2.8604636656433344,1.5935454368591309,-1.71632182598114,1.3648555278778076
4.960364501953125,-3.1897008807063103,1.1096236221551894,2.3339351152420043,4.069419768688083,-8.430942661309242,-2.920514521980285,1.5197269916534424,-1.8531643152236936,1.556355357170105
4.97042138671875,-2.4616408731788395,0.971466612830758,2.2880028006285427,4.257142188431322,-8.319570783057808,-2.971846649810672,1.4764697551727295,-1.6904842853546145,1.6314538717269895
4.9804794921875,-2.186568379023671,1.2403683093965052,2.302802018092573,4.4407095343217255,-8.204053475564718,-3.023905630610883,1.44060480594635,-1.4960123300552368,1.6207515001296997
4.990536376953125,-2.3257348576515917,1.635102955764532,2.531006670349836,4.6127959935158485,-8.089272081130742,-3.075089289881289,1.408047437667847,-1.2688268423080444,1.483623743057251
5.00059326171875,-2.282233569577336,1.895420948380232,2.641545312647521,4.765469896231592,-7.98073338047862,-3.125473323206603,1.2655158042907717,-1.301669359207153,1.3645399808883667
5.010650390625,-2.593339500144124,2.9826024371027944,2.7724782159373165,4.918109312155843,-7.876799543273449,-3.1525577294871208,1.1265894174575806,-1.4354372024536133,1.3467284440994265
5.02070849609375,-2.170379460766912,3.056013125750422,2.84600931609422,5.063023394525051,-7.777976765471696,-3.1684780599355697,1.0281282663345337,-1.2894011735916138,1.219520092010498
5.030765625,-2.0616326703220604,3.105058019426465,2.957763179400563,5.191901703372597,-7.686811808946728,-3.1823692226439717,0.950027585029602,-1.1739128828048706,1.098072171211243
5.040822509765625,-2.0329747311145066,3.2317391104906794,2.8821476741850374,5.310785856950282,-7.601605468565225,-3.1908494662195444,0.8674173355102539,-1.1575748920440674,1.024154543876648
5.05087939453125,-1.978853264826536,3.418582701572776,2.812775739534199,5.422014527338743,-7.5223939846843475,-3.191508222389221,0.7600173950195312,-1.1078674793243408,0.9393752813339232
5.060937255859375,-1.7171756742954254,3.47286432685852,2.504273853985965,5.516624071359634,-7.451728210830688,-3.195150670544803,0.758110523223877,-0.7860503196716309,0.7434720993041992
5.070994384765625,-1.724621314126253,3.4792794545978305,2.272782142882049,5.5984396002590655,-7.388711490425467,-3.1991888400197026,0.6028999090194702,-0.9335617423057556,0.7407074570655823
5.08105126953125,-1.8130343415945769,4.1263194675177335,2.339858952333033,5.67996929795444,-7.330509476825594,-3.1893513366162773,0.4850072860717773,-0.7829404473304749,0.6855780482292175
5.091108642578125,-1.5133903007626532,3.559492224475741,2.1549778934955595,5.747385714623332,-7.280231241962313,-3.183736419343948,0.4137293696403503,-0.5616365671157837,0.5599101185798645
5.101166259765625,-1.5453268232494592,3.226314747354388,1.7461773123741149,5.798326797309517,-7.238996729776263,-3.1853917853355407,0.3676427900791168,-0.3772153258323669,0.4273967444896698
5.11122314453125,-1.5287702407240866,2.988496755838394,1.5209543062761426,5.833993153974413,-7.207379356241225,-3.1919574274614453,0.3178259432315826,-0.2504808008670807,0.2753486037254333
5.1212802734375,-1.612530473950505,2.8547394427776336,1.162637419462204,5.853859883961081,-7.186299158811569,-3.203096076591313,0.2912501692771911,-0.1217691898345947,0.1125137135386467
5.131337158203125,-1.4854390485197304,2.713242475375533,0.7287053196936846,5.857998883461952,-7.175285597366094,-3.220171130032837,0.278262734413147,0.0081999944522976,-0.050185453146696
5.1413955078125,-1.5087947896659373,2.5848639327436684,0.4584115842476486,5.847537110680341,-7.1738003272444,-3.242418909937143,0.2610979676246643,0.0755084902048111,-0.1933576166629791
5.151452392578125,-1.5319506243258714,2.52697054670155,0.3220104786798358,5.826100939419865,-7.180550386026502,-3.2659806950494645,0.2353838235139846,0.1113580986857414,-0.309925228357315
5.16150927734375,-1.293711777049303,2.5066490586847063,0.340764571249485,5.79660654938817,-7.194346271666884,-3.2880271071627734,0.1900011897087097,0.1148083209991455,-0.4016939699649811
5.1715673828125,-0.9887953487724064,2.5277573131650684,0.3930298882767558,5.760439257463813,-7.214706338128447,-3.306922946290672,0.1369989514350891,0.1294189542531967,-0.4865345656871795
5.181624267578125,-0.8428840720593929,2.53476748418808,0.3016808073565363,5.717627705219388,-7.241319035243988,-3.3230139571309087,0.0912598595023155,0.1469942927360534,-0.5659675002098083
5.191681396484375,-0.7538064432024956,2.5790005936682223,0.1015361284136772,5.668054988276958,-7.273581136423349,-3.337449309718609,0.0579128302633762,0.166755735874176,-0.6508035659790039
5.201738525390625,-0.719140788012743,2.7084920659780503,-0.0147758365884423,5.61139260533452,-7.311793670439719,-3.349676046346128,0.0063226949423551,0.1671915501356125,-0.7326125502586365
5.21179638671875,-0.6860860751509666,2.6364778001248834,-0.1330947574988007,5.550206022965908,-7.355598909896612,-3.3557059741601347,-0.0601924136281013,0.1115184277296066,-0.794666588306427
5.221853271484375,-0.5183890830874442,2.630863467374444,-0.1384124453902244,5.487105715930461,-7.404452664914727,-3.3520342999100685,-0.1426324397325515,0.0211831163614988,-0.8425340056419373
5.231910400390625,-0.2931727989912033,2.6537048292577263,-0.1140659396409988,5.423498043894767,-7.457969735568762,-3.336876478266716,-0.22662054002285,-0.070906326174736,-0.8840638399124146
5.24196728515625,0.3046633302986621,2.8570167400598523,-0.0372831442117691,5.358671059197187,-7.516133170723915,-3.3110075852558016,-0.3229870796203613,-0.112158179283142,-0.9234532117843628
5.252025634765625,1.0640198088437318,3.181801651889085,-0.0864382202640175,5.289743068921566,-7.579352135702967,-3.2775647498592733,-0.3897320330142975,-0.108260378241539,-0.9989564418792723
5.26208251953125,1.8859476021140813,3.163059542018175,-0.6764259741410613,5.211812857022881,-7.647249613887071,-3.2445281571760773,-0.3386572003364563,-0.0503569692373275,-1.106760025024414
5.272139404296875,3.727766724166274,2.108195099532604,-2.026160667185485,5.123296953701972,-7.714367339870333,-3.2265678453326223,-0.1560897678136825,0.1240609064698219,-1.139937162399292
5.282196533203125,5.217653984266519,-0.3746598265886307,-3.5950533672004936,5.02967875880599,-7.773406973338127,-3.2321625965997574,0.0652481019496917,0.2026445418596267,-1.1290018558502195
5.29225439453125,3.31939401306808,-3.4056787963360544,-4.035883117528259,4.924740128472447,-7.829711044362187,-3.257752964930236,0.2218920439481735,0.5143179893493652,-1.3592946529388428
5.302311279296875,1.5598019233256577,-4.79535971532166,-1.8669094319060444,4.797252397200465,-7.894208358713984,-3.2921462329193947,-0.0658464431762695,0.4127663075923919,-1.3398582935333252
5.31236865234375,0.5951245322436094,-3.3573324063181875,0.0589072392597794,4.69800642555058,-7.958562465202807,-3.280305573000013,-0.4644574522972107,0.0715565010905265,-0.988232433795929
5.322425537109375,0.3943292804375291,-3.1992244958549736,-0.1715086593061685,4.62780768468678,-8.019405348700284,-3.2315494331374763,-0.6418310403823853,-0.2592106163501739,-0.8405272960662842
5.332483154296875,-0.467293978883326,-2.987577302905917,-0.2184264778256416,4.577090473884343,-8.07842218581438,-3.155901194696128,-0.7059171199798584,-0.6179323196411133,-0.7730355858802795
5.34254052734375,-1.3384522515296935,-2.7881384341448543,-0.0293666719987988,4.535459071335196,-8.136752209708094,-3.0648391140237448,-0.732665479183197,-0.7675018310546875,-0.8072081208229065
5.352597412109375,-1.166881632903218,-2.293534131270647,-0.1181044013768434,4.488537161162496,-8.198755369156599,-2.967123712942004,-0.8135073184967041,-0.7481715679168701,-0.8953169584274292
5.3626552734375,0.4362234255760908,-1.165451307839155,-0.1833385055705904,4.4308889820531006,-8.26680540755391,-2.8631331771135327,-0.9459917545318604,-0.6424129009246826,-0.9991880655288696
5.37271240234375,1.2899217371165752,-0.4161170416146516,-0.1529591493979096,4.357401136516034,-8.343518644878268,-2.7512077566325663,-1.096698760986328,-0.5760634541511536,-1.1754752397537231
5.382769287109375,0.1881377225458622,0.2500502811014652,0.0709080581769347,4.26387997225374,-8.430139528232813,-2.6310578209027646,-1.1790651082992554,-0.4994908273220062,-1.3887630701065063
5.392826416015625,-1.1012053378999234,0.2778384517371654,0.4341857822686433,4.148275570999085,-8.52346896931529,-2.512502753148973,-1.1850804090499878,-0.3342744410037994,-1.5691312551498413
5.40288427734375,-2.14901840056926,0.046155017453432,0.995832992324233,4.015298302400112,-8.619192027536034,-2.399433423329889,-1.168357253074646,-0.2163221389055252,-1.6657909154891968
5.412941162109375,-1.645783924254775,0.5298375288188457,1.6351672531723975,3.8708950921624896,-8.713518078440428,-2.293722347319126,-1.1385419368743896,-0.0568736232817173,-1.717365264892578
5.422998291015625,-1.192947217530012,0.7368775202333927,1.7742438615597784,3.716585112677514,-8.805935080853104,-2.1938274102412163,-1.1375365257263184,0.0622670203447341,-1.786260962486267
5.43305517578125,-1.2716411072775722,0.5074865808010101,2.1108833157032727,3.553016014198959,-8.897217526277899,-2.0942733955554664,-1.1964534521102903,0.1670940965414047,-1.82818865776062
5.443113525390625,-1.2119862645208834,0.1027688850790262,2.585929516148567,3.3827789822638032,-8.98690305790007,-1.9906708361312744,-1.2845942974090576,0.2822499573230743,-1.8485398292541504
5.45317041015625,-1.3111954112917183,-0.5108212781816721,2.785798593020439,3.2090494320377707,-9.073616880235075,-1.881987612441927,-1.3287668228149414,0.3399449586868286,-1.8337258100509644
5.463227294921875,-1.320280342762172,-1.090996663096547,2.7894252590849997,3.0373715536445376,-9.154689481812715,-1.7709914356350898,-1.331682562828064,0.3665655255317688,-1.7668975591659546
5.473285400390625,-1.054286058075726,-1.4949275923550127,2.9025696999669077,2.870437654908001,-9.22899974964857,-1.6602778751619158,-1.3232712745666504,0.4301849901676178,-1.697800874710083
5.48334228515625,-1.074698439246416,-1.7426608286857603,2.959902529516816,2.7081422296270725,-9.296853388690948,-1.550765507172048,-1.3035097122192385,0.5122469663619995,-1.6241178512573242
5.4933994140625,-1.160069322539866,-1.9684978750288484,2.781962960380316,2.5509505572259425,-9.358020097315311,-1.445848358017951,-1.248547077178955,0.6086576581001282,-1.542543649673462
5.50345654296875,-1.232887159860879,-2.140715559387207,2.562180391770601,2.4012577161476014,-9.412055054363607,-1.348170220206678,-1.1624610424041748,0.6708251237869263,-1.437050700187683
5.513514404296875,-1.3228811729103327,-2.1551123335301874,2.5343466284275054,2.2606603279337287,-9.45930955749154,-1.2574889555454254,-1.0671257972717283,0.6356722116470337,-1.3496782779693604
5.5235712890625,-1.560161404287815,-2.3989450552910565,2.120528219144046,2.128784152444452,-9.500686693018674,-1.1728732745334505,-0.9666646718978882,0.4897686839103699,-1.275690674781799
5.53362841796875,-1.4128852689623832,-2.453407297840714,1.8331541695594784,2.0053002499863504,-9.537053891429304,-1.0925975954871625,-0.8974520564079285,0.3514406383037567,-1.1997783184051514
5.543685302734375,-1.0523954220235348,-2.1692437347352502,1.48508599729836,1.892012455110997,-9.568778816992044,-1.0144759526696057,-0.8488656282424927,0.1481776088476181,-1.0933068990707395
5.55374365234375,-0.8692940862096845,-1.5685042852193116,1.0761506838813424,1.7921090424656867,-9.59610579985678,-0.9345932915288956,-0.8192312717437744,-0.0533810779452323,-0.9745038151741028
5.563800537109375,-0.4859259063780307,-1.1369529431074856,0.8525858933191746,1.7045746975280345,-9.619596565559506,-0.8533340082727372,-0.8263293504714966,-0.2146523296833038,-0.8606542348861694
5.573857421875,-0.4323666040174663,-0.2489022801101207,0.8368203150410205,1.6297667093031107,-9.63989993339777,-0.7658921639241277,-0.8733354210853577,-0.4114887118339538,-0.7326321005821228
5.58391455078125,-0.589295095437765,0.5965460894793272,0.902916881283,1.5685234283111988,-9.657551909944416,-0.6646939622279256,-1.031474471092224,-0.6901428699493408,-0.6124131083488464
5.593972412109375,-0.7324386610031127,0.968943231832981,0.884344428890571,1.5198320242479442,-9.672764092123508,-0.5460138798549771,-1.1427950859069824,-0.9548733234405518,-0.4913887083530426
5.604029296875,-0.8213343574218451,0.7181389174938202,0.2643766568893566,1.4834806079283356,-9.684874216634034,-0.4158100580247119,-1.1796891689300537,-1.2316079139709473,-0.3680937588214874
5.614086669921875,-0.822098473662138,0.3591080371916293,-0.490202341588214,1.4562626383960249,-9.693801034933328,-0.2826758270320482,-1.143809199333191,-1.4141396284103394,-0.2921220362186432
5.624144287109375,-0.9681716629385948,-0.2716208923965692,-0.8234030534546822,1.4327967148736118,-9.700228437632322,-0.1517853381118737,-1.09053373336792,-1.555605173110962,-0.2572625875473022
5.634201171875,-1.010265568432957,-0.8453869947910309,-1.1927164775140582,1.4093489115297793,-9.704811673769354,-0.0272787712252815,-0.9904950857162476,-1.620029091835022,-0.258843719959259
5.64425830078125,-0.9973054029643535,-1.1510568717837333,-1.7218875052481888,1.3817241147622463,-9.708443308269976,0.0857497996084392,-0.8575151562690735,-1.6234041452407837,-0.3020547330379486
5.6543154296875,-0.9774677529416976,-1.4104542424231767,-2.245703435689956,1.3457263341858985,-9.71211001408398,0.1853431964565068,-0.7293521165847778,-1.549887776374817,-0.3925891518592834
5.664373291015625,-0.906704510062933,-1.822498335510492,-2.8301714032322165,1.2989046695172786,-9.716506203216314,0.2697223835651762,-0.5991690754890442,-1.4552099704742432,-0.4974732398986816
5.674430419921875,-0.9666554131567476,-1.7652865019917487,-3.1360087457463144,1.2401926605686544,-9.721943425834178,0.3407783440465107,-0.4890865087509155,-1.3560525178909302,-0.6170771718025208
5.6844873046875,-0.7755722848087548,-1.1130886679172516,-3.032174569523334,1.1697176600467414,-9.728454999685288,0.3991511476360261,-0.3921515047550201,-1.1896649599075315,-0.7229999899864197
5.69454443359375,-0.6080073946923017,-0.1653074665784835,-2.562393742260337,1.0892423667751252,-9.735763861393927,0.4459194746822118,-0.2836742997169494,-1.0213550329208374,-0.8225483894348145
5.704602294921875,-0.4517736075378954,0.3499462410926818,-2.340536559333652,0.9995970210328696,-9.744043613961338,0.4741066180402413,-0.1078019738197326,-0.7613587975502014,-0.920062243938446
5.7146591796875,-0.3831413122732192,0.8076695508152246,-1.8268467399783432,0.901486263957992,-9.753153972133994,0.4834002968905493,0.0449281819164752,-0.3956447243690491,-1.0248820781707764
5.72471630859375,-0.0449672689735889,1.1207488272815942,-1.2992604972176254,0.7959986945047974,-9.762769357219335,0.474457952228561,0.1503735333681106,0.0985632836818695,-1.1040970087051392
5.7347744140625,0.6609178046900779,1.45987030749917,-0.441621010303311,0.6871675867773592,-9.77194109019041,0.4553875967839732,0.1781553626060485,0.5725566744804382,-1.1462458372116089
5.74483154296875,0.5889109914910048,1.9075854334264992,0.0059469987709075,0.5754189111027866,-9.780168235787748,0.4330897306602448,0.1795951426029205,0.7921738028526306,-1.1846369504928589
5.754888427734375,0.6762631847947835,2.376690553385019,0.0515743025558069,0.4639753193220123,-9.787043966776132,0.4109556402634829,0.1853750050067901,0.737819492816925,-1.1311370134353638
5.7649453125,1.6097843901127575,2.7593343644648787,-0.0746782608980312,0.3624391178430989,-9.792301741173862,0.38712161408104,0.259117990732193,0.5363045930862427,-0.9855338335037231
5.77500341796875,1.2395756977140904,2.4090274733662604,-1.16150001293011,0.2675743752184323,-9.796786777633429,0.3489678245145827,0.514309287071228,0.2800634503364563,-1.0016456842422483
5.785060302734375,0.2229822414338588,1.2598206133633851,-2.2287354958847163,0.1644300261568278,-9.801135035970807,0.2847934950394555,0.751957893371582,0.1071148514747619,-1.0899442434310913
5.795117431640625,0.8621908300757407,0.4780751928776502,-0.948654623172432,0.0562852704254677,-9.804240600770711,0.21004339274792,0.7328984141349792,-0.0137401958927512,-1.0999172925949097
5.805174560546875,1.50625328848958,-0.3235089005440473,0.4147553613400087,-0.048783219665708,-9.805460497954488,0.1447397395824547,0.5885783433914185,0.0705103427171707,-1.0146291255950928
5.815232421875,2.415426819014549,-1.0788473756194117,0.3866413928160443,-0.1407857869254425,-9.8051933714509,0.0935457324479706,0.4496241807937622,0.2147809714078903,-0.8481333255767822
5.825289306640625,2.1385154189944267,-1.5508371111035346,0.3427844231719151,-0.2152230786744505,-9.80411434404254,0.0585435707462718,0.2672069668769836,0.2206413447856903,-0.6765382289886475
5.835346435546875,1.0891162561774252,-1.2470470565080642,0.736131451106444,-0.2771821980518288,-9.802642517924308,0.0419841478098416,0.0727274790406227,0.2126257568597793,-0.5873529314994812
5.845404541015625,0.915460647970438,-0.2897796494215727,1.1837959428250788,-0.3333705520080402,-9.800881937992571,0.0441301057633943,-0.0885963514447212,0.3011577129364013,-0.5650259256362915
5.855461669921875,0.8307365381479263,0.3939151466786861,0.9717628923635928,-0.3882581072976812,-9.798788180583715,0.0581927251817192,-0.1653989851474762,0.3591991662979126,-0.5429270267486572
5.8655185546875,1.0223042351424694,1.0022738390266894,0.7806904315400868,-0.4367724377609789,-9.796625449591874,0.075835290012625,-0.1507959216833114,0.2508455812931061,-0.4400434494018554
5.875575439453125,1.0316588503997772,1.1750538334429264,0.4074904849035665,-0.4741087003994733,-9.794779529464243,0.0890069108413997,-0.0958298817276954,0.1172113493084907,-0.3225040435791015
5.88563330078125,1.1858756717085837,1.2676608054697514,0.2878608832534402,-0.5003861011460423,-9.793412917286156,0.0952112727737054,-0.01621357165277,0.1144774481654167,-0.219013512134552
5.895690185546875,1.191932487529516,1.012970589607954,-0.2503443504109047,-0.5182633378159255,-9.792508077400925,0.0926263434475753,0.0837353989481926,0.1641653776168823,-0.1489835679531097
5.905747314453125,0.883722351469472,0.6940484323322773,-0.8406406770467758,-0.5295301799027249,-9.792013571882247,0.0801825117369648,0.1896410137414932,0.1963419467210769,-0.0836802572011947
5.9158046875,0.8078829013049602,0.478097989231348,-1.3052791729852555,-0.5355420240707696,-9.79184113792479,0.0584986173596931,0.2728874385356903,0.2620983123779297,-0.0457350090146064
5.9258623046875,0.6673322748422622,0.5120715705037117,-1.6780837270960212,-0.5404392945930362,-9.791697930061815,0.0310227526597329,0.2998457849025726,0.323844701051712,-0.0611914731562137
5.935919189453125,0.2972422403872013,0.7416893044292926,-1.5251578954458236,-0.5480355218756944,-9.791322667008638,0.006186605938262,0.2354785352945327,0.3496446013450622,-0.0907866507768631
5.945976318359375,0.331254327039048,0.9995505515426396,-1.42913979980126,-0.5579551140720025,-9.79076094147265,-0.0097753522868733,0.125015452504158,0.3834620416164398,-0.1089972555637359
5.956034423828125,0.1927940239191055,0.8498398825466632,-1.1075427242279052,-0.56958103526216,-9.79008815677762,-0.0120458636352792,-0.0362288244068622,0.3816180825233459,-0.1296431571245193
5.966091552734375,-0.0179682028889656,0.3441635660380124,-0.8169394103985279,-0.5832763100722804,-9.789289115354418,0.0021625437621725,-0.209867924451828,0.3342078924179077,-0.1462195962667465
5.9761484375,-0.0757236052324995,-0.1138975973367691,-0.7282037268470972,-0.5976457212843,-9.788370246943831,0.0317903646149206,-0.345151424407959,0.2863522171974182,-0.1466371864080429
5.986205322265625,0.065421954916045,-0.3655979837328195,-0.7344115685112774,-0.6114503016877919,-9.787314600411056,0.0707687867035623,-0.4055019319057464,0.2777818739414215,-0.1366403102874755
5.996263427734375,0.1706290269274264,-0.2972486701279878,-0.7661655740380287,-0.6246289322126657,-9.78608009018004,0.113296791032562,-0.4184121489524841,0.2910332083702087,-0.1432095319032669
6.0063203125,-0.0588766249258071,-0.0053296705901622,-0.7946125008434056,-0.6411283777233213,-9.784411864706874,0.1570065981578081,-0.4395245909690857,0.2983860373497009,-0.2042510360479354
6.016377197265625,-0.3140483406942337,0.4924216981381177,-0.4257368106141686,-0.6648810092326253,-9.781923555022477,0.2056198772172443,-0.5169512629508972,0.3113971650600433,-0.2915047109127044
6.0264345703125,-0.6411586267311126,0.8047031022250651,-0.0718380873023532,-0.6983972751915455,-9.778172093534469,0.2645711565481499,-0.6438348889350891,0.292080819606781,-0.4083583652973175
6.036492431640625,-1.105922429549694,0.5502162999808788,0.1370781280465424,-0.7444963977392762,-9.772531457298994,0.3372731489371508,-0.7954614162445068,0.2596584260463714,-0.5488294363021851
6.046549560546875,-1.618207935065031,-0.3316103739351034,0.1959389343487098,-0.8059211727779358,-9.764290283176305,0.4237102732226252,-0.9171752333641052,0.231802687048912,-0.7230725288391113
6.0566064453125,-2.2577824344098567,-1.881632661524415,-0.0766505838843062,-0.8840084018692373,-9.752989721482992,0.517782130170241,-0.9532871842384338,0.1794619858264923,-0.8803588151931763
