seconds_elapsed,acc_z,acc_y,acc_x,grav_z,grav_y,grav_x,gyro_z,gyro_y,gyro_x
0.0400,-0.1131,-0.0775,-0.1149,1.0659,-9.6954,1.0163,-0.0354,-0.0851,0.0925
0.0500,-0.0897,-0.0060,-0.0716,1.0738,-9.6941,1.0205,-0.0311,-0.0898,0.0898
0.0600,-0.0894,0.0131,-0.0507,1.0818,-9.6928,1.0243,-0.0291,-0.0825,0.0943
0.0700,-0.1106,0.0494,-0.0444,1.0903,-9.6915,1.0278,-0.0269,-0.0612,0.0961
0.0800,-0.1613,0.0727,-0.0497,1.0986,-9.6903,1.0304,-0.0179,-0.0314,0.0828
0.0900,-0.2416,0.0723,-0.0874,1.1049,-9.6894,1.0319,-0.0071,-0.0137,0.0499
0.1000,-0.3587,0.0587,-0.1273,1.1076,-9.6891,1.0324,-0.0011,-0.0150,0.0093
0.1100,-0.4268,0.0322,-0.1018,1.1066,-9.6891,1.0327,-0.0011,-0.0156,-0.0231
0.1200,-0.3463,0.0081,0.0040,1.1032,-9.6895,1.0332,-0.0081,-0.0051,-0.0420
0.1300,-0.1907,0.0099,0.1212,1.0985,-9.6899,1.0345,-0.0189,0.0009,-0.0505
0.1400,-0.0926,0.0152,0.1474,1.0934,-9.6902,1.0368,-0.0265,-0.0088,-0.0531
0.1500,-0.0440,0.0087,0.0832,1.0879,-9.6905,1.0396,-0.0265,-0.0261,-0.0533
0.1600,-0.0062,-0.0009,-0.0155,1.0823,-9.6908,1.0424,-0.0263,-0.0433,-0.0516
0.1700,0.0336,-0.0101,-0.0287,1.0769,-9.6910,1.0465,-0.0463,-0.0548,-0.0494
0.1800,0.0408,-0.0548,-0.0113,1.0715,-9.6910,1.0519,-0.0504,-0.0678,-0.0459
0.1900,0.0542,-0.0550,-0.0144,1.0668,-9.6910,1.0569,-0.0361,-0.0818,-0.0323
0.2000,0.0875,-0.0112,-0.0004,1.0639,-9.6908,1.0612,-0.0331,-0.0778,-0.0101
0.2100,0.0497,-0.0009,-0.1002,1.0630,-9.6905,1.0648,-0.0229,-0.0556,0.0064
0.2200,-0.0561,0.0275,-0.2268,1.0634,-9.6903,1.0666,-0.0058,-0.0302,0.0077
0.2300,-0.1441,0.0597,-0.2538,1.0632,-9.6903,1.0665,0.0129,-0.0185,-0.0051
0.2400,-0.1236,0.0942,-0.1634,1.0618,-9.6907,1.0650,0.0231,-0.0195,-0.0174
0.2500,-0.0808,0.1149,-0.0742,1.0596,-9.6911,1.0632,0.0176,-0.0249,-0.0220
0.2600,-0.0637,0.1056,-0.0058,1.0569,-9.6915,1.0624,0.0048,-0.0395,-0.0259
0.2700,-0.0436,0.0489,0.0291,1.0537,-9.6917,1.0631,-0.0058,-0.0598,-0.0286
0.2800,-0.0440,-0.0388,-0.0527,1.0503,-9.6919,1.0647,-0.0109,-0.0695,-0.0267
0.2900,-0.0559,-0.0824,-0.1454,1.0471,-9.6921,1.0663,-0.0092,-0.0594,-0.0255
0.3000,-0.0616,-0.0855,-0.1901,1.0438,-9.6923,1.0681,-0.0136,-0.0259,-0.0330
0.3100,-0.0907,-0.0683,-0.2680,1.0400,-9.6926,1.0686,0.0103,0.0152,-0.0450
0.3200,-0.0869,0.0050,-0.2705,1.0356,-9.6935,1.0652,0.0505,0.0457,-0.0506
0.3300,-0.0546,0.0562,-0.1091,1.0311,-9.6946,1.0591,0.0590,0.0706,-0.0534
0.3400,-0.0611,0.1027,0.0331,1.0265,-9.6957,1.0537,0.0301,0.0981,-0.0615
0.3500,-0.1198,0.1165,0.0356,1.0208,-9.6966,1.0508,0.0059,0.1193,-0.0782
0.3600,-0.1703,0.0797,-0.0151,1.0138,-9.6976,1.0482,0.0264,0.1125,-0.0887
0.3700,-0.1468,0.0133,0.0381,1.0067,-9.6989,1.0431,0.0530,0.0853,-0.0760
0.3800,-0.0860,-0.0375,0.1896,1.0012,-9.7001,1.0370,0.0544,0.0562,-0.0537
0.3900,-0.0663,0.0259,0.3261,0.9969,-9.7011,1.0321,0.0376,0.0288,-0.0448
0.4000,-0.1377,0.0575,0.3161,0.9922,-9.7019,1.0289,0.0257,0.0043,-0.0552
0.4100,-0.2029,0.0083,0.1906,0.9860,-9.7028,1.0265,0.0236,-0.0128,-0.0722
0.4200,-0.1760,-0.0391,0.0683,0.9781,-9.7039,1.0241,0.0279,-0.0174,-0.0862
0.4300,-0.0938,-0.0297,0.0051,0.9689,-9.7051,1.0214,0.0305,-0.0117,-0.0998
0.4400,-0.0509,0.0463,-0.0203,0.9582,-9.7063,1.0194,0.0121,0.0046,-0.1214
0.4500,-0.0560,0.1430,-0.0524,0.9450,-9.7077,1.0187,0.0063,0.0239,-0.1536
0.4600,-0.0916,0.0709,-0.1517,0.9287,-9.7095,1.0163,0.0429,0.0212,-0.1819
0.4700,-0.1240,-0.1021,-0.2354,0.9108,-9.7119,1.0097,0.0851,0.0056,-0.1847
0.4800,-0.0575,-0.1669,-0.1790,0.8939,-9.7144,1.0005,0.0998,-0.0045,-0.1572
0.4900,0.0871,-0.1283,-0.0407,0.8806,-9.7166,0.9914,0.0862,-0.0201,-0.1129
0.5000,0.2099,-0.0285,0.0625,0.8713,-9.7182,0.9841,0.0712,-0.0392,-0.0723
0.5100,0.2969,0.0470,0.1085,0.8651,-9.7193,0.9779,0.0653,-0.0541,-0.0445
0.5200,0.3356,0.0843,0.1155,0.8612,-9.7203,0.9724,0.0607,-0.0649,-0.0234
0.5300,0.2981,0.1281,0.0913,0.8590,-9.7209,0.9680,0.0395,-0.0570,-0.0103
0.5400,0.1971,0.1801,0.0152,0.8575,-9.7213,0.9650,0.0354,-0.0393,-0.0126
0.5500,-0.0155,0.1162,-0.1440,0.8553,-9.7220,0.9601,0.0741,-0.0446,-0.0249
0.5600,-0.2602,-0.0620,-0.1790,0.8516,-9.7231,0.9517,0.1037,-0.0710,-0.0382
0.5700,-0.3364,-0.1000,-0.0293,0.8461,-9.7245,0.9424,0.0979,-0.1005,-0.0598
0.5800,-0.3126,-0.0461,0.0576,0.8374,-9.7260,0.9349,0.0738,-0.1252,-0.0962
0.5900,-0.2164,0.0471,0.0752,0.8249,-9.7274,0.9310,0.0310,-0.1318,-0.1324
0.6000,-0.1176,0.1401,0.0892,0.8097,-9.7288,0.9306,-0.0004,-0.1104,-0.1503
0.6100,-0.1176,0.0820,0.1656,0.7940,-9.7300,0.9311,0.0078,-0.0816,-0.1481
0.6200,-0.1881,0.0493,0.3243,0.7793,-9.7313,0.9303,0.0224,-0.0754,-0.1368
0.6300,-0.3182,0.0797,0.4604,0.7654,-9.7326,0.9284,0.0287,-0.1068,-0.1325
0.6400,-0.4496,0.1109,0.5121,0.7503,-9.7338,0.9272,0.0151,-0.1770,-0.1521
0.6500,-0.5218,0.1261,0.4585,0.7313,-9.7351,0.9288,-0.0154,-0.2779,-0.1953
0.6600,-0.4299,0.0738,0.3626,0.7070,-9.7364,0.9341,-0.0450,-0.3745,-0.2343
0.6700,-0.2122,0.0414,0.2368,0.6794,-9.7376,0.9425,-0.0685,-0.4265,-0.2494
0.6800,-0.0038,0.0480,0.0884,0.6510,-9.7385,0.9529,-0.0828,-0.4209,-0.2457
0.6900,0.1437,0.0697,-0.0366,0.6236,-9.7392,0.9637,-0.0868,-0.3669,-0.2342
0.7000,0.1998,0.0935,-0.1323,0.5981,-9.7398,0.9742,-0.0846,-0.2927,-0.2203
0.7100,0.1784,0.0213,-0.2208,0.5748,-9.7403,0.9832,-0.0642,-0.2301,-0.2006
0.7200,0.1822,-0.0732,-0.2544,0.5545,-9.7409,0.9889,-0.0270,-0.1922,-0.1690
0.7300,0.2676,-0.0428,-0.1865,0.5382,-9.7416,0.9913,-0.0041,-0.1636,-0.1243
0.7400,0.2954,0.0392,-0.1360,0.5267,-9.7421,0.9921,0.0047,-0.1359,-0.0816
0.7500,0.2659,0.0692,-0.1368,0.5187,-9.7425,0.9920,0.0115,-0.1265,-0.0567
0.7600,0.1828,0.0720,-0.1153,0.5122,-9.7430,0.9914,0.0146,-0.1449,-0.0507
0.7700,0.0230,0.0718,-0.0509,0.5052,-9.7434,0.9909,0.0110,-0.1791,-0.0584
0.7800,-0.0887,0.0962,0.0030,0.4970,-9.7438,0.9912,0.0035,-0.2091,-0.0698
0.7900,-0.1357,0.1187,-0.0042,0.4876,-9.7441,0.9922,0.0008,-0.2209,-0.0773
0.8000,-0.1337,0.0869,-0.0570,0.4776,-9.7446,0.9930,0.0039,-0.2107,-0.0803
0.8100,-0.1042,0.0313,-0.1194,0.4677,-9.7450,0.9933,0.0072,-0.1753,-0.0810
0.8200,-0.0633,-0.0360,-0.1629,0.4583,-9.7455,0.9929,0.0163,-0.1135,-0.0803
0.8300,-0.0309,-0.0801,-0.1939,0.4496,-9.7461,0.9908,0.0341,-0.0379,-0.0846
0.8400,-0.0471,-0.0711,-0.1845,0.4405,-9.7470,0.9864,0.0571,0.0212,-0.1008
0.8500,-0.1390,-0.0201,-0.1079,0.4295,-9.7481,0.9796,0.0778,0.0384,-0.1328
0.8600,-0.2748,0.0648,0.0010,0.4147,-9.7496,0.9715,0.0825,0.0168,-0.1750
0.8700,-0.3549,0.1734,0.1020,0.3953,-9.7512,0.9638,0.0738,-0.0308,-0.2175
0.8800,-0.3586,0.1801,0.1392,0.3712,-9.7528,0.9572,0.0687,-0.1167,-0.2583
0.8900,-0.3572,0.0787,0.1044,0.3423,-9.7544,0.9510,0.0700,-0.2368,-0.2934
0.9000,-0.3124,0.0566,0.0754,0.3098,-9.7561,0.9451,0.0689,-0.3250,-0.3109
0.9100,-0.1436,0.0618,0.0534,0.2758,-9.7576,0.9395,0.0666,-0.3533,-0.3142
0.9200,0.0326,0.0267,0.0170,0.2417,-9.7591,0.9337,0.0718,-0.3432,-0.3129
0.9300,0.1867,-0.0114,0.0298,0.2082,-9.7605,0.9269,0.0819,-0.2944,-0.3064
0.9400,0.3137,-0.0297,0.0959,0.1762,-9.7619,0.9191,0.0876,-0.2098,-0.2967
0.9500,0.3696,-0.0400,0.1415,0.1462,-9.7632,0.9107,0.0874,-0.1044,-0.2832
0.9600,0.4279,-0.0905,0.1203,0.1188,-9.7643,0.9024,0.0851,0.0124,-0.2643
0.9700,0.4684,-0.1558,0.0326,0.0945,-9.7654,0.8939,0.0866,0.1342,-0.2461
0.9800,0.4868,-0.1862,-0.0214,0.0728,-9.7663,0.8851,0.0908,0.2441,-0.2300
0.9900,0.4463,-0.1330,-0.1378,0.0536,-9.7673,0.8758,0.0980,0.3275,-0.2110
1.0000,0.4032,-0.0798,-0.2535,0.0370,-9.7683,0.8659,0.1010,0.3919,-0.1903
1.0100,0.4161,0.0181,-0.2861,0.0227,-9.7692,0.8559,0.0988,0.4445,-0.1740
1.0200,0.3709,0.0989,-0.3412,0.0099,-9.7701,0.8460,0.1038,0.4705,-0.1644
1.0300,0.2912,0.0704,-0.3559,-0.0023,-9.7710,0.8352,0.1168,0.4653,-0.1646
1.0400,0.2271,0.0605,-0.3163,-0.0150,-9.7720,0.8231,0.1308,0.4243,-0.1691
1.0500,0.1970,0.1094,-0.1920,-0.0285,-9.7731,0.8097,0.1384,0.3589,-0.1703
1.0600,0.2155,0.1726,-0.0540,-0.0423,-9.7742,0.7965,0.1296,0.2799,-0.1615
1.0700,0.2367,0.2129,0.0241,-0.0553,-9.7750,0.7853,0.1008,0.1948,-0.1402
1.0800,0.2241,0.2390,0.0035,-0.0670,-9.7756,0.7770,0.0685,0.1191,-0.1232
1.0900,0.1603,0.2205,-0.1018,-0.0780,-9.7759,0.7715,0.0454,0.0511,-0.1172
1.1000,0.1100,0.1480,-0.2230,-0.0895,-9.7761,0.7678,0.0332,0.0014,-0.1220
1.1100,0.1053,0.0463,-0.3478,-0.1023,-9.7763,0.7646,0.0334,-0.0215,-0.1363
1.1200,0.1149,0.0273,-0.4480,-0.1168,-9.7764,0.7610,0.0408,-0.0150,-0.1546
1.1300,0.1311,0.0580,-0.4852,-0.1328,-9.7765,0.7565,0.0501,0.0167,-0.1701
1.1400,0.1489,0.1002,-0.5443,-0.1495,-9.7767,0.7510,0.0644,0.0598,-0.1751
1.1500,0.1814,0.1970,-0.6860,-0.1657,-9.7770,0.7438,0.0873,0.1023,-0.1663
1.1600,0.2014,0.2632,-0.7962,-0.1803,-9.7775,0.7339,0.1196,0.1414,-0.1481
1.1700,0.1836,0.2395,-0.8175,-0.1928,-9.7782,0.7207,0.1540,0.1852,-0.1330
1.1800,0.1433,0.1502,-0.7809,-0.2043,-9.7792,0.7048,0.1757,0.2251,-0.1324
1.1900,0.0682,0.0658,-0.6871,-0.2165,-9.7801,0.6874,0.1872,0.2476,-0.1509
1.2000,-0.0387,-0.0325,-0.5680,-0.2313,-9.7811,0.6691,0.1987,0.2606,-0.1860
1.2100,-0.0978,-0.1226,-0.4795,-0.2498,-9.7819,0.6497,0.2086,0.2638,-0.2244
1.2200,-0.0842,-0.1602,-0.3789,-0.2718,-9.7826,0.6296,0.2110,0.2623,-0.2550
1.2300,-0.0106,-0.1455,-0.2387,-0.2964,-9.7832,0.6101,0.2025,0.2678,-0.2766
1.2400,0.1090,-0.0804,-0.1042,-0.3228,-9.7834,0.5921,0.1778,0.2841,-0.2915
1.2500,0.1991,0.0227,-0.0249,-0.3456,-9.7834,0.5792,0.1512,0.2920,-0.2985
1.2600,0.2276,0.0910,-0.0051,-0.3548,-9.7833,0.5749,0.1424,0.2876,-0.2994
1.2700,0.2616,0.1130,-0.0300,-0.3783,-9.7830,0.5648,0.1259,0.2835,-0.3062
1.2800,0.2837,0.0309,-0.1056,-0.4070,-9.7825,0.5540,0.1161,0.2675,-0.3058
1.2900,0.3069,0.0228,-0.1883,-0.4350,-9.7819,0.5437,0.1139,0.2338,-0.2904
1.3000,0.3368,0.0146,-0.2112,-0.4613,-9.7812,0.5338,0.1073,0.2170,-0.2677
1.3100,0.3976,-0.0445,-0.1087,-0.4851,-9.7806,0.5247,0.0966,0.2213,-0.2380
1.3200,0.4114,-0.0470,0.0461,-0.5059,-9.7799,0.5166,0.0891,0.2299,-0.2096
1.3300,0.3661,0.0294,0.1201,-0.5244,-9.7794,0.5093,0.0823,0.2337,-0.1910
1.3400,0.3529,0.0849,0.1158,-0.5417,-9.7787,0.5030,0.0722,0.2193,-0.1853
1.3500,0.3240,0.1780,0.0401,-0.5591,-9.7780,0.4975,0.0614,0.1840,-0.1904
1.3600,0.3141,0.2292,-0.0626,-0.5776,-9.7772,0.4928,0.0511,0.1424,-0.2027
1.3700,0.3702,0.0963,-0.1262,-0.5978,-9.7762,0.4887,0.0470,0.1032,-0.2215
1.3800,0.4332,-0.0784,-0.0369,-0.6200,-9.7750,0.4847,0.0437,0.0778,-0.2341
1.3900,0.4803,-0.0801,0.1831,-0.6422,-9.7737,0.4820,0.0154,0.0638,-0.2232
1.4000,0.4356,0.0502,0.1728,-0.6631,-9.7723,0.4827,-0.0246,0.0224,-0.2077
1.4100,0.3726,0.1017,0.0632,-0.6831,-9.7707,0.4866,-0.0535,-0.0400,-0.1992
1.4200,0.2908,0.1420,0.0408,-0.7024,-9.7691,0.4924,-0.0741,-0.1074,-0.1871
1.4300,0.1610,0.2007,-0.0126,-0.7214,-9.7673,0.4991,-0.0812,-0.1814,-0.1860
1.4400,0.0708,0.2218,-0.0199,-0.7417,-9.7655,0.5053,-0.0760,-0.2493,-0.2048
1.4500,0.0737,0.3498,0.0833,-0.7642,-9.7634,0.5117,-0.1007,-0.2762,-0.2245
1.4600,0.1124,0.4031,0.1126,-0.7880,-9.7610,0.5217,-0.1463,-0.2590,-0.2312
1.4700,0.1402,0.1763,0.0434,-0.8124,-9.7583,0.5353,-0.1641,-0.2182,-0.2403
1.4800,0.1647,-0.0026,0.0032,-0.8378,-9.7553,0.5494,-0.1531,-0.1592,-0.2601
1.4900,0.1556,-0.0008,-0.0421,-0.8651,-9.7522,0.5624,-0.1350,-0.0988,-0.2828
1.5000,0.1158,0.0917,-0.0662,-0.8945,-9.7488,0.5749,-0.1363,-0.0528,-0.3064
1.5100,0.0267,0.1229,-0.0655,-0.9258,-9.7451,0.5887,-0.1532,-0.0449,-0.3259
1.5200,-0.0110,0.0890,-0.0805,-0.9587,-9.7410,0.6037,-0.1645,-0.0771,-0.3368
1.5300,-0.0352,0.0821,-0.1058,-0.9926,-9.7366,0.6191,-0.1695,-0.1253,-0.3418
1.5400,-0.0879,0.1049,-0.0908,-1.0272,-9.7320,0.6345,-0.1766,-0.1660,-0.3459
1.5500,-0.0894,0.1445,-0.0351,-1.0624,-9.7272,0.6505,-0.1893,-0.1937,-0.3489
1.5600,-0.0741,0.1856,-0.0099,-1.0981,-9.7221,0.6676,-0.2059,-0.2092,-0.3534
1.5700,-0.0652,0.2542,-0.0307,-1.1347,-9.7166,0.6860,-0.2185,-0.2153,-0.3667
1.5800,-0.0374,0.2813,-0.1039,-1.1730,-9.7107,0.7051,-0.2250,-0.2223,-0.3859
1.5900,-0.0021,0.1985,-0.1975,-1.2133,-9.7043,0.7247,-0.2346,-0.2352,-0.4061
1.6000,0.0339,0.0436,-0.3169,-1.2557,-9.6973,0.7451,-0.2450,-0.2545,-0.4246
1.6100,0.0289,-0.1133,-0.5121,-1.2998,-9.6899,0.7652,-0.2369,-0.2929,-0.4358
1.6200,-0.0161,-0.2639,-0.7283,-1.3449,-9.6823,0.7834,-0.2250,-0.3322,-0.4396
1.6300,0.0152,-0.2928,-0.9075,-1.3910,-9.6744,0.8003,-0.2177,-0.3412,-0.4529
1.6400,0.0540,-0.1980,-1.1298,-1.4394,-9.6660,0.8159,-0.1996,-0.3253,-0.4871
1.6500,0.0330,-0.1631,-1.3965,-1.4915,-9.6570,0.8296,-0.1757,-0.2928,-0.5316
1.6600,0.1052,-0.2028,-1.5840,-1.5471,-9.6472,0.8413,-0.1485,-0.2241,-0.5664
1.6700,0.4102,-0.2846,-1.6832,-1.6042,-9.6370,0.8514,-0.1137,-0.1123,-0.5773
1.6800,0.7901,-0.3938,-1.7527,-1.6596,-9.6269,0.8595,-0.0710,0.0167,-0.5534
1.6900,1.0466,-0.5066,-1.8399,-1.7104,-9.6174,0.8658,-0.0286,0.1446,-0.5083
1.7000,1.1283,-0.5435,-1.9317,-1.7554,-9.6089,0.8702,0.0080,0.2526,-0.4600
1.7100,1.1324,-0.5279,-1.9688,-1.7950,-9.6013,0.8731,0.0315,0.3107,-0.4133
1.7200,1.1249,-0.3467,-1.8513,-1.8303,-9.5944,0.8763,0.0188,0.3352,-0.3792
1.7300,1.2014,-0.1131,-1.6648,-1.8622,-9.5877,0.8825,-0.0154,0.3436,-0.3460
1.7400,1.3170,-0.0673,-1.6015,-1.8906,-9.5813,0.8912,-0.0323,0.3186,-0.3041
1.7500,1.3060,0.1089,-1.5249,-1.9153,-9.5756,0.9003,-0.0439,0.2560,-0.2621
1.7600,1.3185,0.3899,-1.2982,-1.9362,-9.5704,0.9100,-0.0801,0.1429,-0.2090
1.7700,1.4206,0.5413,-1.0871,-1.9518,-9.5661,0.9220,-0.1442,-0.0002,-0.1260
1.7800,1.4318,0.5994,-1.0393,-1.9597,-9.5629,0.9384,-0.2240,-0.1238,-0.0271
1.7900,1.1585,0.5668,-1.2109,-1.9603,-9.5606,0.9599,-0.2912,-0.2135,0.0432
1.8000,0.7029,0.4540,-1.5636,-1.9573,-9.5588,0.9845,-0.3144,-0.2790,0.0615
1.8100,0.2099,0.3380,-1.8871,-1.9554,-9.5567,1.0082,-0.2982,-0.3291,0.0361
1.8200,-0.2581,0.1967,-2.0671,-1.9581,-9.5540,1.0287,-0.2716,-0.3724,-0.0212
1.8300,-0.5126,0.0695,-2.0927,-1.9677,-9.5501,1.0461,-0.2540,-0.4017,-0.0975
1.8400,-0.4668,0.0220,-2.0651,-1.9852,-9.5447,1.0622,-0.2472,-0.3860,-0.1782
1.8500,-0.3133,-0.0191,-2.1143,-2.0099,-9.5377,1.0783,-0.2365,-0.3088,-0.2597
1.8600,-0.1974,-0.0654,-2.1998,-2.0414,-9.5292,1.0943,-0.1987,-0.1789,-0.3430
1.8700,-0.1672,-0.0365,-2.2736,-2.0795,-9.5194,1.1079,-0.1283,-0.0382,-0.4280
1.8800,-0.1271,0.0908,-2.2534,-2.1243,-9.5084,1.1167,-0.0464,0.0948,-0.5145
1.8900,0.0493,0.2642,-2.1518,-2.1753,-9.4964,1.1211,0.0258,0.2262,-0.5870
1.9000,0.1922,0.3555,-2.1056,-2.2300,-9.4835,1.1222,0.0868,0.3769,-0.6249
1.9100,0.4181,0.3579,-2.0750,-2.2846,-9.4705,1.1224,0.1246,0.5446,-0.6278
1.9200,0.6403,0.3398,-1.9125,-2.3371,-9.4575,1.1243,0.1219,0.6525,-0.6173
1.9300,0.4749,0.2880,-1.6661,-2.3884,-9.4440,1.1298,0.0863,0.6470,-0.6244
1.9400,0.0212,0.1981,-1.4367,-2.4433,-9.4289,1.1385,0.0351,0.5390,-0.6803
1.9500,-0.4834,-0.0113,-1.2219,-2.5064,-9.4109,1.1495,-0.0368,0.3520,-0.7637
1.9600,-0.6791,-0.2683,-0.8683,-2.5794,-9.3894,1.1643,-0.1580,0.1126,-0.8324
1.9700,-0.4280,-0.4331,-0.2160,-2.6597,-9.3642,1.1861,-0.3059,-0.0974,-0.8646
1.9800,0.1194,-0.6503,0.3308,-2.7431,-9.3361,1.2170,-0.4428,-0.2124,-0.8679
1.9900,0.5837,-0.9960,0.6022,-2.8275,-9.3055,1.2576,-0.5533,-0.2355,-0.8738
2.0000,0.6831,-1.4293,0.7107,-2.9124,-9.2727,1.3052,-0.6017,-0.2357,-0.8737
2.0100,0.6392,-1.9330,0.4209,-2.9960,-9.2390,1.3535,-0.5982,-0.2608,-0.8495
2.0200,0.7185,-2.2081,-0.0053,-3.0768,-9.2053,1.4014,-0.6134,-0.2618,-0.8137
2.0300,0.9717,-2.2498,-0.2673,-3.1535,-9.1712,1.4535,-0.6837,-0.2088,-0.7731
2.0400,1.3227,-2.3495,-0.5807,-3.2259,-9.1359,1.5157,-0.7879,-0.1214,-0.7495
2.0500,1.5437,-2.4866,-1.0895,-3.2966,-9.0979,1.5898,-0.8850,-0.0549,-0.7720
2.0600,1.4105,-2.6312,-1.8236,-3.3699,-9.0562,1.6720,-0.9459,-0.0352,-0.8176
2.0700,1.3229,-2.8013,-2.5829,-3.4457,-9.0111,1.7592,-0.9875,-0.0003,-0.8392
2.0800,2.1862,-3.0083,-3.0758,-3.5193,-8.9640,1.8512,-1.0232,0.0743,-0.7972
2.0900,3.4732,-3.2243,-3.3252,-3.5839,-8.9178,1.9483,-1.0475,0.1574,-0.6800
2.1000,4.4386,-3.4117,-3.5970,-3.6333,-8.8749,2.0499,-1.0550,0.2491,-0.5125
2.1100,5.2394,-3.6214,-4.1029,-3.6648,-8.8374,2.1533,-1.0233,0.3418,-0.3363
2.1200,5.9415,-3.6590,-4.6164,-3.6788,-8.8061,2.2552,-0.9557,0.4297,-0.1755
2.1300,6.8006,-3.4252,-5.1000,-3.6761,-8.7816,2.3532,-0.8632,0.5225,-0.0125
2.1400,7.7390,-2.9886,-5.8263,-3.6551,-8.7655,2.4441,-0.7258,0.5964,0.1804
2.1500,8.4743,-2.3201,-6.5112,-3.6137,-8.7601,2.5240,-0.5530,0.6960,0.3925
2.1600,8.7406,-1.4016,-6.9395,-3.5496,-8.7661,2.5931,-0.3848,0.8568,0.6084
2.1700,8.3992,-0.4097,-7.4575,-3.4608,-8.7839,2.6520,-0.2225,0.9615,0.8604
2.1800,7.3902,0.2540,-8.2236,-3.3455,-8.8148,2.6966,-0.0434,0.9455,1.1603
2.1900,6.6287,0.4795,-8.6546,-3.2032,-8.8601,2.7206,0.1940,0.9016,1.4762
2.2000,4.9309,-0.1881,-9.6700,-3.0326,-8.9206,2.7180,0.5044,0.9273,1.7718
2.2100,2.5069,-0.9091,-10.2353,-2.8357,-8.9941,2.6875,0.7865,1.0072,2.0039
2.2200,1.5678,-0.3919,-8.3862,-2.6176,-9.0742,2.6385,0.8901,1.0774,2.1721
2.2300,1.4648,0.4354,-5.9840,-2.3836,-9.1532,2.5867,0.8226,1.0806,2.3070
2.2400,1.2743,0.4079,-5.0984,-2.1383,-9.2275,2.5363,0.7769,0.8742,2.4455
2.2500,0.8177,-0.4040,-5.5994,-1.8871,-9.2994,2.4723,0.9041,0.3726,2.5972
2.2600,0.6573,-1.3260,-5.9331,-1.6357,-9.3714,2.3772,1.1588,-0.2443,2.7131
2.2700,0.7189,-2.2947,-5.2872,-1.3877,-9.4428,2.2487,1.3787,-0.7905,2.7745
2.2800,0.5854,-2.8111,-4.6209,-1.1435,-9.5093,2.1010,1.4279,-1.2352,2.8111
2.2900,0.1956,-3.2151,-3.3688,-0.9005,-9.5662,1.9561,1.2750,-1.5253,2.8410
2.3000,-0.2114,-3.8823,-0.9041,-0.6553,-9.6101,1.8356,0.9540,-1.5311,2.8522
2.3100,-0.3410,-4.3075,1.5268,-0.4039,-9.6388,1.7562,0.5208,-1.1453,2.8482
2.3200,-0.2082,-4.8741,3.4884,-0.1418,-9.6518,1.7249,0.0706,-0.4056,2.8360
2.3300,-0.0433,-5.7093,4.6869,0.1315,-9.6501,1.7350,-0.2737,0.5271,2.7587
2.3400,-0.2032,-6.6056,5.0598,0.4077,-9.6366,1.7664,-0.4169,1.3943,2.5579
2.3500,-0.7025,-7.3846,4.9493,0.6702,-9.6173,1.7927,-0.3068,1.9561,2.2111
2.3600,-1.7217,-8.0310,4.6257,0.9003,-9.5988,1.7922,-0.0063,1.8511,1.8163
2.3700,-3.4267,-8.2702,3.7684,1.0895,-9.5849,1.7622,0.3025,1.1162,1.5593
2.3800,-4.0039,-7.8402,2.2363,1.2478,-9.5749,1.7113,0.5630,0.5067,1.4513
2.3900,-2.3523,-7.2852,0.0592,1.3961,-9.5674,1.6364,0.9088,0.3476,1.4795
2.4000,-0.0631,-8.0760,-3.1788,1.5426,-9.5656,1.5094,1.6903,0.3321,1.4366
2.4100,0.1097,-11.5894,-9.1144,1.6785,-9.5741,1.2908,2.6614,0.6306,1.2569
2.4200,0.3498,-14.7132,-12.1953,1.8040,-9.5857,1.0012,2.9481,0.7967,1.1922
2.4300,0.5687,-13.3692,-6.3102,1.9291,-9.5864,0.7286,2.4500,0.1625,1.3188
2.4400,-0.7011,-9.6314,0.5041,2.0662,-9.5712,0.5297,1.8474,-0.7984,1.5550
2.4500,-1.0376,-7.3820,1.7562,2.2181,-9.5438,0.3953,1.5238,-1.5521,1.6926
2.4600,-1.4044,-6.3792,0.9445,2.3760,-9.5092,0.3029,1.3159,-2.2053,1.7261
2.4700,-2.9154,-3.9791,0.9115,2.5348,-9.4697,0.2520,1.0694,-2.8832,1.7393
2.4800,-4.0525,-1.0752,1.5185,2.6910,-9.4267,0.2447,0.8013,-3.2697,1.7001
2.4900,-4.0453,1.2379,2.7446,2.8372,-9.3831,0.2706,0.5547,-3.1525,1.5548
2.5000,-4.5644,3.7276,3.9508,2.9660,-9.3418,0.3164,0.3316,-2.8584,1.3647
2.5100,-5.4860,5.8240,4.3578,3.0750,-9.3042,0.3783,0.1441,-2.6647,1.1551
2.5200,-5.8975,7.2903,4.4045,3.1559,-9.2740,0.4484,0.0349,-2.2867,0.7691
2.5300,-6.1459,8.6563,4.3533,3.1929,-9.2581,0.5124,-0.0011,-1.7983,0.2192
2.5400,-6.3017,10.0098,4.0526,3.1778,-9.2603,0.5629,0.0187,-1.3711,-0.3555
2.5500,-5.6700,11.3875,3.6750,3.1141,-9.2799,0.5957,0.0402,-0.8814,-0.8576
2.5600,-4.4468,13.1359,3.4230,3.0114,-9.3124,0.6135,-0.0400,-0.2973,-1.2414
2.5700,-3.1778,14.5165,2.9745,2.8813,-9.3528,0.6228,-0.1489,0.2935,-1.5170
2.5800,-2.0939,14.9520,2.2217,2.7327,-9.3972,0.6238,-0.1874,0.7534,-1.6975
2.5900,-0.9711,15.0272,1.4772,2.5750,-9.4419,0.6193,-0.2095,0.9592,-1.7334
2.6000,0.7875,14.4384,0.4960,2.4217,-9.4828,0.6131,-0.1791,1.0394,-1.5984
2.6100,2.9241,12.9491,-1.0774,2.2883,-9.5170,0.5975,-0.0124,1.1262,-1.3164
2.6200,4.4837,10.7134,-3.0487,2.1861,-9.5434,0.5586,0.2952,1.2256,-0.9603
2.6300,4.8452,7.7706,-4.9624,2.1153,-9.5635,0.4816,0.7208,1.4055,-0.6715
2.6400,3.6360,5.9046,-6.0218,2.0640,-9.5799,0.3591,1.1336,1.6512,-0.5513
2.6500,1.2318,6.9117,-4.9549,2.0152,-9.5948,0.2059,1.2501,1.7909,-0.5684
2.6600,-0.0843,8.2371,-3.6437,1.9636,-9.6076,0.0642,0.9259,1.6283,-0.5330
2.6700,-1.1574,9.5650,-2.0839,1.9188,-9.6170,-0.0308,0.4716,1.2582,-0.3924
2.6800,-3.0213,10.7677,-0.2666,1.8845,-9.6235,-0.0853,0.2751,0.9097,-0.3237
2.6900,-3.2591,10.4317,-0.3541,1.8445,-9.6306,-0.1339,0.4700,0.7022,-0.5388
2.7000,-1.0989,9.7576,-2.1725,1.7649,-9.6438,-0.2153,1.0371,0.4392,-1.0960
2.7100,-3.6044,7.8010,-4.6569,1.6299,-9.6630,-0.3556,1.7700,-0.0495,-1.6482
2.7200,-7.9466,3.3907,-4.4212,1.4422,-9.6836,-0.5451,2.1123,-0.4402,-2.2555
2.7300,-5.9650,-6.8593,1.0845,1.1953,-9.7056,-0.7195,1.3196,0.5734,-2.7245
2.7400,-3.1547,-20.9437,13.1922,0.9326,-9.7292,-0.7921,-0.1567,2.7345,-2.2653
2.7500,-2.1876,-28.9367,22.5417,0.7337,-9.7494,-0.7582,-0.9359,3.4266,-1.2812
2.7600,-2.8072,-23.4118,18.0225,0.6276,-9.7628,-0.6785,-1.0648,2.0056,-0.4877
2.7700,-3.9241,-8.9663,9.1890,0.6005,-9.7713,-0.5723,-1.2559,0.1136,0.0429
2.7800,-2.8933,2.0606,5.2001,0.6161,-9.7775,-0.4310,-1.5580,-1.1502,0.1611
2.7900,-2.2949,5.9766,3.9944,0.6237,-9.7831,-0.2517,-1.8978,-1.7628,-0.1336
2.8000,-2.5431,6.0526,4.0492,0.5942,-9.7878,-0.0377,-2.2084,-2.0040,-0.5109
2.8100,-1.6808,4.6587,4.4369,0.5248,-9.7897,0.2007,-2.3779,-1.9943,-0.8651
2.8200,-0.5830,2.7631,5.1483,0.4160,-9.7867,0.4466,-2.4358,-1.6041,-1.2283
2.8300,0.7335,0.6460,6.7276,0.2690,-9.7768,0.6988,-2.6029,-1.0834,-1.6292
2.8400,-3.2578,-5.2774,5.7921,0.0718,-9.7575,0.9617,-2.6816,-0.9809,-2.2555
2.8500,-10.0210,-13.3595,1.2518,-0.2019,-9.7274,1.2116,-2.3943,-1.4073,-3.0509
2.8600,-10.9283,-19.2223,-2.3452,-0.5525,-9.6863,1.4132,-1.8549,-1.9185,-3.6102
2.8700,-6.9139,-22.4984,-3.7990,-0.9465,-9.6340,1.5540,-1.3565,-1.7255,-3.8883
2.8800,-0.2094,-21.7172,-4.5794,-1.3421,-9.5680,1.6678,-1.2989,-0.3393,-3.9086
2.8900,4.4855,-19.8282,-8.6106,-1.6893,-9.4865,1.8136,-1.4580,1.6847,-3.5840
2.9000,3.8186,-18.7023,-13.9064,-1.9627,-9.3952,2.0054,-1.4885,3.4903,-3.2824
2.9100,3.6918,-15.9225,-15.0765,-2.1766,-9.2957,2.2351,-1.5409,4.9414,-3.2098
2.9200,9.3546,-11.5673,-12.9847,-2.3345,-9.1851,2.5145,-1.8809,5.5996,-2.9208
2.9300,16.0118,-7.9608,-10.6623,-2.4347,-9.0655,2.8332,-2.3990,4.3503,-2.1217
2.9400,17.4849,-6.0178,-10.9828,-2.4901,-8.9518,3.1328,-2.4436,1.8480,-1.0915
2.9500,16.5654,-5.4247,-12.1399,-2.5326,-8.8614,3.3502,-1.9601,-0.2547,-0.4461
2.9600,13.4811,-1.7949,-9.8617,-2.5920,-8.7954,3.4770,-1.3763,-1.2289,-0.2727
2.9700,11.1697,2.9771,-7.3640,-2.6497,-8.7528,3.5407,-0.7673,-1.0164,-0.0550
2.9800,11.2440,4.9380,-6.9433,-2.6579,-8.7412,3.5634,-0.1350,-0.2049,0.3988
2.9900,8.8737,6.0312,-6.2449,-2.6099,-8.7572,3.5591,0.3145,0.4107,0.8524
3.0000,7.2261,6.2676,-5.8307,-2.5759,-8.7702,3.5518,0.4557,0.5681,1.0241
3.0100,5.5025,6.5341,-5.3941,-2.4660,-8.8134,3.5223,0.7352,0.8286,1.3654
3.0200,2.7494,7.0544,-4.8452,-2.3000,-8.8797,3.4671,0.9653,0.9229,1.6436
3.0300,0.1196,7.9975,-4.1879,-2.1128,-8.9544,3.3930,1.1182,0.8667,1.8215
3.0400,0.4528,8.7232,-4.0135,-1.9142,-9.0328,3.3017,1.2234,0.7199,1.9542
3.0500,0.6353,9.0346,-3.9149,-1.7096,-9.1112,3.1968,1.2929,0.4984,2.0749
3.0600,1.0567,9.5435,-3.6971,-1.5018,-9.1870,3.0821,1.3291,0.2850,2.1662
3.0700,1.4751,10.0483,-3.4730,-1.2911,-9.2585,2.9609,1.3410,0.1635,2.2284
3.0800,1.7445,10.2598,-3.3563,-1.0749,-9.3245,2.8375,1.3406,0.1865,2.2970
3.0900,2.9461,10.6979,-3.3714,-0.8446,-9.3846,2.7141,1.3324,0.3999,2.4486
3.1000,4.9791,11.2962,-3.5686,-0.5848,-9.4388,2.5911,1.3484,0.6176,2.7629
3.1100,6.0445,11.3609,-4.0955,-0.2909,-9.4872,2.4594,1.4920,0.3541,3.1045
3.1200,3.8471,9.2684,-5.4238,0.0003,-9.5308,2.3039,1.7917,-0.9203,2.9855
3.1300,-0.8810,5.8561,-7.4752,0.2075,-9.5723,2.1171,2.1803,-3.1419,2.2267
3.1400,-5.3544,2.7982,-9.0786,0.3227,-9.6157,1.8940,2.6795,-4.4431,1.8790
3.1500,-3.0593,0.0818,-8.5092,0.4432,-9.6601,1.6208,3.2891,-3.7505,2.1781
3.1600,2.4210,-1.5565,-6.9215,0.6232,-9.6998,1.2849,3.8906,-2.0012,2.4196
3.1700,3.0045,-3.6058,-5.8510,0.8539,-9.7254,0.8941,4.1027,0.4593,2.5016
3.1800,0.3219,-10.0517,-2.9902,1.0930,-9.7300,0.5082,3.1846,3.3957,2.1450
3.1900,-4.2756,-22.5338,4.3558,1.2967,-9.7169,0.2317,1.2482,5.7790,1.7445
3.2000,-6.2178,-35.0274,12.7648,1.4654,-9.6957,0.0900,0.0552,6.6237,1.5004
3.2100,-6.2067,-37.9549,12.5615,1.5982,-9.6750,-0.0313,0.7835,4.9686,1.1715
3.2200,-5.8990,-29.5904,3.3791,1.6991,-9.6542,-0.2440,2.3594,2.3424,0.9837
3.2300,-1.5629,-19.1682,-3.3981,1.7783,-9.6263,-0.5570,3.3552,1.3888,0.7325
3.2400,2.1686,-13.8268,-3.3848,1.8174,-9.5915,-0.9154,3.3917,1.5859,0.2868
3.2500,0.6734,-9.3057,2.2443,1.8141,-9.5563,-1.2391,2.6888,1.3115,0.0297
3.2600,-2.2048,-5.0547,4.9650,1.8143,-9.5244,-1.4685,1.8627,-0.0948,0.1963
3.2700,-2.8199,-2.9343,1.6156,1.8698,-9.4927,-1.5995,1.3313,-2.0435,0.6159
3.2800,-1.8443,-0.6210,0.0111,1.9944,-9.4585,-1.6502,0.8998,-3.5630,0.9763
3.2900,-1.0464,1.6153,0.0170,2.1526,-9.4268,-1.6324,0.4251,-4.0423,0.9495
3.3000,-1.5979,3.1962,-0.1451,2.2929,-9.4053,-1.5643,0.0423,-3.9573,0.6429
3.3100,-2.6783,4.3036,0.1616,2.4025,-9.3943,-1.4627,-0.1843,-4.0416,0.4172
3.3200,-3.0020,5.4621,1.7110,2.4935,-9.3892,-1.3380,-0.3485,-4.0257,0.3007
3.3300,-3.3901,7.1044,3.7674,2.5681,-9.3884,-1.1944,-0.6152,-3.7490,0.2242
3.3400,-3.8820,8.0154,4.6217,2.6246,-9.3922,-1.0293,-0.9196,-3.2961,0.1231
3.3500,-4.3042,8.0829,4.6754,2.6591,-9.4001,-0.8547,-1.0614,-2.6874,-0.0198
3.3600,-4.7169,8.1494,4.8518,2.6681,-9.4110,-0.6924,-1.0438,-1.9667,-0.1841
3.3700,-5.0536,8.3601,4.5042,2.6513,-9.4248,-0.5565,-0.9172,-1.2670,-0.3898
3.3800,-5.2293,8.9473,3.9698,2.6079,-9.4426,-0.4519,-0.7481,-0.6735,-0.6391
3.3900,-4.0603,9.7928,3.9818,2.5356,-9.4655,-0.3784,-0.6250,0.0610,-0.9162
3.4000,-2.2575,10.7838,4.1313,2.4356,-9.4933,-0.3358,-0.5405,0.9483,-1.1388
3.4100,-0.7015,11.7847,4.0655,2.3175,-9.5233,-0.3212,-0.4359,1.7142,-1.2315
3.4200,0.9651,12.4068,3.9500,2.1935,-9.5521,-0.3337,-0.2442,2.2923,-1.2039
3.4300,2.1944,12.4514,3.6337,2.0739,-9.5772,-0.3766,0.0408,2.6176,-1.0961
3.4400,2.5870,12.3597,3.4275,1.9616,-9.5976,-0.4517,0.4049,2.7055,-1.0225
3.4500,2.4060,11.7267,2.4954,1.8452,-9.6144,-0.5659,0.8860,2.7723,-1.1208
3.4600,1.5068,9.3119,0.1522,1.7083,-9.6288,-0.7247,1.3366,2.8050,-1.3361
3.4700,0.2878,6.2481,-1.5786,1.5483,-9.6398,-0.9113,1.5616,2.5919,-1.4883
3.4800,-0.8354,4.5175,-2.0137,1.3818,-9.6456,-1.0989,1.5784,1.9536,-1.4410
3.4900,-2.1099,4.2170,-2.0628,1.2373,-9.6450,-1.2665,1.4368,1.1312,-1.1495
3.5000,-2.2873,4.9608,-1.3931,1.1330,-9.6390,-1.4039,1.1685,0.6537,-0.7684
3.5100,-0.4371,6.3472,0.0956,1.0675,-9.6309,-1.5081,0.8377,0.5951,-0.3970
3.5200,2.4966,7.7993,1.1142,1.0329,-9.6231,-1.5808,0.5848,0.1302,-0.2450
3.5300,1.6548,7.7718,0.4818,1.0110,-9.6180,-1.6254,0.4558,-1.2112,-0.3795
3.5400,-4.6891,4.5716,-0.5258,1.0027,-9.6157,-1.6442,0.3269,-2.4502,-0.4195
3.5500,-8.0692,0.2224,0.4342,0.9961,-9.6197,-1.6245,-0.3718,-1.8822,-0.5487
3.5600,-5.1853,-6.7175,6.8621,0.9459,-9.6455,-1.4922,-2.3264,0.3937,-0.7205
3.5700,-3.6440,-17.0040,17.7081,0.8676,-9.6950,-1.1744,-4.3201,2.3553,-0.4731
3.5800,-4.7214,-21.8188,20.1410,0.8147,-9.7412,-0.7561,-4.3865,2.4393,-0.1427
3.5900,-4.6210,-17.7177,10.7985,0.7909,-9.7651,-0.4128,-2.8128,1.1878,-0.1364
3.6000,-3.1610,-10.0185,2.3834,0.7647,-9.7740,-0.2257,-1.1582,0.0010,-0.3670
3.6100,-2.2186,-2.9183,0.8507,0.7153,-9.7793,-0.1536,-0.3777,-0.7478,-0.6457
3.6200,-1.6550,1.3513,5.1081,0.6432,-9.7848,-0.1090,-0.5004,-0.9127,-0.8143
3.6300,0.3073,2.1743,10.3815,0.5644,-9.7901,-0.0247,-1.1859,-0.3462,-0.7688
3.6400,1.5407,0.8480,12.7204,0.4972,-9.7924,0.1409,-2.2191,0.7500,-0.6170
3.6500,-1.3653,-2.6035,11.7626,0.4360,-9.7873,0.4047,-3.2063,1.3497,-0.7579
3.6600,-7.5088,-8.4776,7.4677,0.3395,-9.7706,0.7434,-3.7046,0.7211,-1.3572
3.6700,-12.3089,-14.7530,2.2119,0.1670,-9.7403,1.1065,-3.6501,-0.7536,-2.1355
3.6800,-13.7164,-17.6280,-0.5054,-0.1045,-9.6965,1.4440,-3.2460,-2.3231,-2.9813
3.6900,-10.6537,-19.5539,-3.2917,-0.4814,-9.6372,1.7316,-2.9012,-3.2128,-3.8121
3.7000,-3.4153,-20.4780,-8.8025,-0.9353,-9.5531,1.9892,-2.8546,-2.4827,-4.4185
3.7100,4.6037,-19.7369,-16.4633,-1.3953,-9.4417,2.2385,-2.5331,0.2513,-4.6246
3.7200,11.4123,-18.1293,-21.5304,-1.7594,-9.3194,2.4867,-1.9236,4.0017,-4.1219
3.7300,15.3571,-13.7891,-19.7116,-1.9434,-9.2054,2.7617,-1.7362,7.1084,-3.0464
3.7400,14.3056,-9.1075,-16.5948,-1.9629,-9.0997,3.0791,-1.9756,7.3524,-2.2376
3.7500,12.0313,-6.0103,-15.3719,-1.9513,-8.9946,3.3820,-2.0663,4.3010,-1.7050
3.7600,13.0508,-3.5364,-13.0645,-1.9881,-8.9003,3.6046,-1.8136,0.6417,-0.8419
3.7700,13.1855,-0.2117,-9.8325,-2.0445,-8.8331,3.7368,-1.4211,-1.6249,0.0645
3.7800,11.2884,2.6218,-8.1462,-2.0893,-8.7950,3.8017,-0.9681,-2.0922,0.5671
3.7900,9.7985,4.2735,-7.3555,-2.0919,-8.7815,3.8313,-0.5019,-1.1901,0.8382
3.8000,6.5959,5.0270,-6.9048,-2.0281,-8.7919,3.8415,-0.0208,-0.0839,1.1541
3.8100,2.3301,5.2529,-6.3634,-1.8997,-8.8262,3.8278,0.4179,0.5040,1.5269
3.8200,0.2873,5.3375,-6.0034,-1.7259,-8.8797,3.7858,0.7456,0.6370,1.8580
3.8300,-0.1776,5.8168,-5.6221,-1.5263,-8.9441,3.7191,0.9476,0.5540,2.0646
3.8400,-0.4617,7.0104,-5.0321,-1.3210,-9.0113,3.6343,1.0545,0.2805,2.1021
3.8500,-0.5205,8.4459,-4.6677,-1.1313,-9.0764,3.5353,1.1204,-0.2143,2.0201
3.8600,-0.9168,9.6129,-4.5964,-0.9676,-9.1377,3.4245,1.1672,-0.7648,1.9286
3.8700,-0.8337,10.3242,-4.5492,-0.8241,-9.1948,3.3071,1.1784,-1.1422,1.9016
3.8800,0.2947,10.7926,-4.2170,-0.6824,-9.2476,3.1902,1.1398,-1.1666,2.0060
3.8900,2.4750,11.3758,-3.7237,-0.5155,-9.2952,3.0809,1.0655,-0.8859,2.2973
3.9000,4.3587,11.8865,-3.4216,-0.3034,-9.3370,2.9803,1.0194,-0.6386,2.7265
3.9100,3.9135,11.8166,-3.6487,-0.0445,-9.3729,2.8799,1.1147,-0.7496,3.1881
3.9200,1.4669,10.4096,-4.5715,0.2469,-9.4051,2.7614,1.4589,-1.1822,3.5133
3.9300,-1.2084,7.2398,-6.6453,0.5321,-9.4392,2.6005,2.1032,-1.7592,3.2544
3.9400,-4.0279,3.1315,-9.8412,0.7661,-9.4831,2.3717,2.9783,-1.8384,2.6118
3.9500,-4.0445,-0.1822,-11.3404,0.9565,-9.5386,2.0564,3.8489,-1.0140,2.1177
3.9600,-0.8337,-1.8588,-9.7601,1.1351,-9.5958,1.6570,4.5157,0.0386,1.8332
3.9700,0.1508,-3.5306,-8.0209,1.3079,-9.6421,1.1923,4.8260,1.5683,1.5087
3.9800,-2.1028,-7.0389,-6.0699,1.4291,-9.6734,0.7011,4.3432,3.9005,0.4482
3.9900,-8.2159,-14.9186,-0.1844,1.4378,-9.6949,0.2843,2.6824,5.5069,-0.6112
4.0000,-11.2044,-31.7195,5.4844,1.3669,-9.7104,0.0263,1.1266,5.7525,-0.9221
4.0100,-7.2643,-41.6853,-3.4634,1.2724,-9.7215,-0.1717,1.8370,4.1495,-0.9575
4.0200,1.0134,-32.9729,-12.1965,1.1832,-9.7211,-0.4808,3.6507,1.8785,-0.6981
4.0300,6.6774,-19.4317,-2.5870,1.1259,-9.7004,-0.8752,3.8521,0.8562,-0.3299
4.0400,4.9561,-11.6159,5.5251,1.1000,-9.6687,-1.2072,2.7871,0.2202,-0.1017
4.0500,2.5603,-8.8266,4.1957,1.1042,-9.6386,-1.4286,1.8831,-0.7297,0.1205
4.0600,0.5154,-6.1217,2.4690,1.1550,-9.6112,-1.5675,1.3570,-2.2789,0.4623
4.0700,-1.7973,-2.8461,1.9286,1.2720,-9.5846,-1.6378,0.9202,-4.2294,0.8597
4.0800,-2.9833,-1.2154,1.7487,1.4543,-9.5597,-1.6298,0.3612,-5.8672,1.1741
4.0900,-2.8975,1.4603,0.9649,1.6725,-9.5392,-1.5362,-0.2320,-6.5027,1.2552
4.1000,-2.6525,4.8794,0.6081,1.8787,-9.5242,-1.3834,-0.6087,-5.9763,1.0891
4.1100,-3.3351,6.6429,2.2376,2.0464,-9.5138,-1.2065,-0.8003,-5.0859,0.9082
4.1200,-4.5067,7.8937,3.8621,2.1797,-9.5056,-1.0260,-0.8592,-4.3359,0.7661
4.1300,-5.3185,8.2588,4.4426,2.2832,-9.4982,-0.8565,-0.7800,-3.7658,0.5876
4.1400,-5.5574,8.5890,4.8315,2.3583,-9.4924,-0.7049,-0.6509,-3.3576,0.4009
4.1500,-5.3277,8.9298,5.2421,2.4089,-9.4886,-0.5750,-0.5162,-2.8309,0.2440
4.1600,-5.1785,9.6144,5.9054,2.4380,-9.4871,-0.4693,-0.4640,-2.0111,0.0843
4.1700,-5.0373,10.6704,6.3115,2.4440,-9.4893,-0.3866,-0.4703,-1.0899,-0.1148
4.1800,-4.6617,11.6440,6.0663,2.4240,-9.4967,-0.3268,-0.4000,-0.3602,-0.3693
4.1900,-3.4071,12.3641,5.7777,2.3764,-9.5097,-0.2976,-0.1747,0.2164,-0.6311
4.2000,-2.4050,12.6477,5.6983,2.3067,-9.5265,-0.3071,0.1326,0.7176,-0.7768
4.2100,-1.1405,13.1024,6.1106,2.2307,-9.5429,-0.3537,0.3871,1.1083,-0.7201
4.2200,1.5019,13.8657,7.1531,2.1658,-9.5549,-0.4261,0.5324,1.3187,-0.5250
4.2300,3.3620,13.9369,8.1268,2.1164,-9.5619,-0.5089,0.5916,1.3099,-0.3966
4.2400,3.2060,13.2309,7.4350,2.0682,-9.5671,-0.5997,0.7504,1.3470,-0.4887
4.2500,2.1209,11.5183,4.1365,1.9978,-9.5735,-0.7210,1.1523,1.7113,-0.7811
4.2600,1.4080,8.6131,0.0750,1.8893,-9.5807,-0.8929,1.6140,2.1567,-1.1365
4.2700,0.3710,6.0993,-1.8578,1.7441,-9.5862,-1.1020,1.8177,2.3536,-1.3785
4.2800,-1.0577,5.5101,-1.1187,1.5818,-9.5884,-1.3095,1.6411,2.1893,-1.3785
4.2900,-2.0832,6.7729,0.7912,1.4310,-9.5882,-1.4762,1.1623,1.7576,-1.1570
4.3000,-1.9860,8.7543,2.5192,1.3077,-9.5891,-1.5826,0.5995,1.4178,-0.9153
4.3100,-0.5764,9.8896,3.1471,1.1975,-9.5947,-1.6354,0.2176,0.8089,-1.0350
4.3200,-3.2907,8.9835,2.4099,1.0797,-9.6062,-1.6498,0.0631,-0.5589,-1.3571
4.3300,-10.2585,6.4616,0.3125,0.9532,-9.6201,-1.6468,0.1140,-1.7650,-1.7056
4.3400,-12.8748,1.6565,-1.3599,0.7842,-9.6398,-1.6182,-0.6199,-0.9253,-2.3138
4.3500,-9.8925,-8.3896,6.4362,0.5383,-9.6818,-1.4500,-3.0126,2.3175,-2.4734
4.3600,-4.3953,-19.9866,20.1234,0.2855,-9.7425,-1.0438,-5.3598,5.2081,-1.7158
4.3700,-1.1785,-23.8489,21.9824,0.1050,-9.7889,-0.5078,-5.4424,4.7525,-1.1387
4.3800,-2.4381,-16.4981,9.0795,-0.0209,-9.8047,-0.0578,-3.6222,1.7870,-1.1469
4.3900,-2.2082,-7.1055,1.6046,-0.1390,-9.8030,0.2023,-1.7549,-0.5964,-1.2043
4.4000,2.2776,-2.1774,6.0291,-0.2541,-9.7976,0.3283,-1.0091,-1.0780,-1.0244
4.4100,6.5995,-0.3574,10.2214,-0.3316,-9.7910,0.4372,-1.3206,-0.1138,-0.4643
4.4200,4.6016,-2.0360,11.0634,-0.3385,-9.7820,0.5994,-1.9572,0.7014,0.2716
4.4300,-1.8587,-6.3031,9.6379,-0.2920,-9.7669,0.8223,-2.5140,0.3553,0.4889
4.4400,-7.2757,-12.1888,6.9813,-0.2757,-9.7409,1.0898,-2.9548,-0.5474,-0.2513
4.4500,-11.9052,-17.7908,3.0425,-0.3772,-9.6971,1.3992,-3.4811,-1.6205,-1.5739
4.4600,-13.1884,-23.1113,-1.8996,-0.6312,-9.6254,1.7495,-3.9218,-2.7307,-2.9017
4.4700,-8.9384,-26.3058,-5.8556,-1.0169,-9.5189,2.1080,-4.0936,-3.4494,-3.7322
4.4800,-2.7313,-25.5981,-11.2374,-1.4599,-9.3767,2.4557,-3.9522,-2.6736,-4.0593
4.4900,3.9360,-23.6633,-19.9327,-1.8736,-9.2125,2.7790,-3.1955,0.4623,-4.1579
4.5000,12.2160,-18.9454,-22.4916,-2.1556,-9.0512,3.0919,-2.3374,5.2082,-3.7711
4.5100,18.0499,-11.2899,-17.7605,-2.2032,-8.9073,3.4541,-2.1273,9.3731,-2.7441
4.5200,15.4245,-4.7824,-15.5744,-2.0513,-8.7742,3.8622,-2.3202,9.4941,-2.1046
4.5300,11.5884,-1.2784,-17.3413,-1.9083,-8.6444,4.2162,-2.1674,5.4800,-1.7105
4.5400,14.5627,1.6599,-16.4053,-1.8746,-8.5380,4.4441,-1.5780,1.5516,-0.7700
4.5500,16.2234,4.7706,-12.9829,-1.8751,-8.4794,4.5556,-0.8131,-0.4718,0.2954
4.5600,11.6329,6.1972,-10.3806,-1.8535,-8.4754,4.5718,-0.0025,-1.3101,1.2010
4.5700,8.3534,6.5429,-9.0835,-1.7877,-8.5173,4.5196,0.6176,-1.2618,1.7057
4.5800,4.3911,6.5048,-8.2297,-1.6816,-8.5853,4.4303,0.9973,-0.8448,1.8362
4.5900,-1.2877,6.6777,-6.9056,-1.5520,-8.6643,4.3222,1.2115,-0.5751,1.8504
4.6000,-2.9552,7.5094,-6.2401,-1.4135,-8.7469,4.2017,1.3353,-0.5770,1.8584
4.6100,-2.5620,8.5005,-5.9814,-1.2769,-8.8293,4.0710,1.3944,-0.8425,1.8853
4.6200,-2.0582,9.2506,-5.7830,-1.1489,-8.9097,3.9317,1.4060,-1.2417,1.9032
4.6300,-1.6844,9.8083,-5.5566,-1.0318,-8.9858,3.7884,1.3926,-1.5879,1.9129
4.6400,-0.9679,10.2963,-5.3355,-0.9178,-9.0561,3.6477,1.3493,-1.5859,1.9320
4.6500,0.7378,10.9267,-5.0859,-0.7869,-9.1202,3.5162,1.2643,-0.9814,1.9861
4.6600,3.3314,11.6168,-4.8139,-0.6161,-9.1767,3.4009,1.1546,0.0650,2.0966
4.6700,5.5033,12.1938,-4.8464,-0.3950,-9.2253,3.2999,1.0884,1.0179,2.2864
4.6800,5.8730,11.9491,-5.5960,-0.1282,-9.2689,3.1965,1.2271,1.4167,2.5785
4.6900,4.2061,9.4729,-6.9578,0.1654,-9.3123,3.0651,1.6057,1.0578,2.8001
4.7000,1.2300,6.0393,-8.2853,0.4355,-9.3600,2.8891,2.1547,-0.1553,2.5186
4.7100,-2.2561,2.9841,-10.1403,0.6129,-9.4185,2.6579,2.8951,-1.8333,1.8198
4.7200,-4.8884,-0.3851,-11.7870,0.7135,-9.4906,2.3576,3.7425,-2.5517,1.6005
4.7300,-3.3359,-2.5993,-10.9786,0.8063,-9.5542,2.0474,4.4421,-2.2973,1.9170
4.7400,-0.9610,-3.0605,-9.8092,0.8558,-9.5790,1.9065,4.7165,-2.1712,2.0846
4.7500,1.6287,-4.3895,-8.2820,1.0129,-9.6316,1.5176,5.2410,-1.3670,2.4419
4.7600,1.0502,-6.5040,-6.6002,1.2393,-9.6721,0.9986,5.3430,1.1746,2.2331
4.7700,-2.8762,-11.0814,-2.0241,1.4248,-9.6873,0.4811,4.3285,4.1711,1.2058
4.7800,-8.0900,-26.4990,9.4557,1.5095,-9.6881,0.0735,2.4739,5.4782,0.3416
4.7900,-8.9919,-41.2787,16.7547,1.5131,-9.6872,-0.1754,1.1426,4.8642,-0.1982
4.8000,-4.1949,-39.6851,9.4057,1.4671,-9.6893,-0.3545,1.5422,2.7332,-0.5140
4.8100,3.0908,-27.5841,2.6167,1.4125,-9.6853,-0.5906,2.7240,1.0952,-0.4376
4.8200,5.5851,-15.4131,4.4966,1.3605,-9.6697,-0.8900,2.9976,0.9622,-0.5231
4.8300,3.3477,-8.6286,6.1638,1.2825,-9.6504,-1.1730,2.5115,0.9535,-0.8699
4.8400,1.6390,-4.9088,4.1068,1.1813,-9.6339,-1.3967,1.9535,0.1491,-1.0223
4.8500,0.8713,-2.1229,1.5379,1.1016,-9.6190,-1.5579,1.5170,-1.3440,-0.7640
4.8600,0.6624,0.9717,0.1017,1.0871,-9.6039,-1.6587,1.0348,-2.9256,-0.2531
4.8700,0.6876,4.0235,-0.2283,1.1445,-9.5923,-1.6871,0.3335,-3.9344,0.1943
4.8800,0.4473,6.1091,0.0161,1.2414,-9.5896,-1.6322,-0.4647,-4.0314,0.3829
4.8900,-0.5396,6.6958,0.6981,1.3398,-9.5966,-1.5074,-1.0419,-3.6195,0.3842
4.9000,-1.6397,7.0412,2.1643,1.4236,-9.6089,-1.3427,-1.3574,-3.1461,0.3488
4.9100,-2.5716,7.6782,3.6490,1.4931,-9.6221,-1.1607,-1.4894,-2.8192,0.3275
4.9200,-3.2388,7.8298,4.3380,1.5555,-9.6330,-0.9726,-1.4942,-2.8140,0.3408
4.9300,-3.2198,8.0041,5.1261,1.6154,-9.6403,-0.7841,-1.4655,-2.7779,0.3833
4.9400,-3.1953,8.4495,5.6616,1.6765,-9.6432,-0.5994,-1.4237,-2.5962,0.4966
4.9500,-3.5063,9.0258,5.6817,1.7415,-9.6411,-0.4226,-1.3730,-2.1691,0.5707
4.9600,-3.6455,9.4211,5.6587,1.7972,-9.6367,-0.2611,-1.3165,-1.2769,0.4126
4.9700,-3.8878,9.6283,5.6347,1.8237,-9.6346,-0.1244,-1.2163,-0.2585,0.0875
4.9800,-3.8417,10.3967,5.3302,1.8193,-9.6363,-0.0188,-0.9974,0.4761,-0.1652
4.9900,-2.6485,11.4236,4.4019,1.7993,-9.6400,0.0478,-0.6500,0.8702,-0.2453
5.0000,-0.6642,12.1767,3.3846,1.7757,-9.6443,0.0714,-0.2277,1.1167,-0.2656
5.0100,1.0737,12.7950,2.6286,1.7485,-9.6493,0.0500,0.2343,1.2470,-0.3169
5.0200,1.8967,12.9887,1.9072,1.7118,-9.6560,-0.0168,0.6847,1.2262,-0.4587
5.0300,1.4389,12.2396,1.1037,1.6551,-9.6649,-0.1223,1.0601,1.1717,-0.7040
5.0400,0.3746,10.7182,0.1853,1.5689,-9.6764,-0.2606,1.3819,1.2387,-1.0342
5.0500,-0.1710,8.8944,-1.0015,1.4451,-9.6893,-0.4303,1.6783,1.4505,-1.4157
5.0600,0.0339,7.1925,-2.0462,1.2808,-9.7016,-0.6247,1.8318,1.7123,-1.7658
5.0700,0.5095,6.4319,-2.1962,1.0871,-9.7110,-0.8163,1.6125,1.7633,-1.8934
5.0800,1.6621,7.0587,-0.8550,0.8986,-9.7165,-0.9700,1.1700,1.7086,-1.6052
5.0900,3.8702,7.3838,0.3249,0.7407,-9.7182,-1.0822,0.9396,0.6887,-1.4027
5.1000,-1.2132,5.6228,-0.6954,0.6055,-9.7172,-1.1719,0.9011,-1.0170,-1.4072
5.1100,-7.8339,2.0503,-1.6015,0.4882,-9.7155,-1.2399,0.5299,-1.1529,-1.2901
5.1200,-5.5364,-2.6394,2.5173,0.3655,-9.7228,-1.2236,-1.0254,0.6590,-1.3208
5.1300,-4.5950,-12.2785,13.5173,0.2210,-9.7502,-1.0097,-3.4600,2.6642,-1.2248
5.1400,-7.6531,-23.1775,22.3486,0.0955,-9.7848,-0.5996,-4.7151,2.8219,-0.8306
5.1500,-6.4451,-24.3996,18.2992,0.0212,-9.8033,-0.1643,-3.9544,1.4123,-0.4924
5.1600,-3.6039,-12.8151,7.5434,-0.0174,-9.8047,0.1507,-2.4440,-0.1927,-0.2941
5.1700,-2.5331,-1.6548,3.2952,-0.0442,-9.8007,0.3331,-1.3525,-1.3023,-0.1983
5.1800,-0.5648,1.6448,5.1698,-0.0646,-9.7963,0.4440,-1.0080,-1.4688,-0.0898
5.1900,1.1516,2.7330,7.2202,-0.0687,-9.7906,0.5530,-1.2844,-0.8557,0.1423
5.2000,0.4932,2.0014,8.6059,-0.0405,-9.7804,0.7095,-1.9398,-0.3681,0.5089
5.2100,-2.6915,-0.4663,9.1407,0.0137,-9.7608,0.9372,-2.6839,-0.7765,0.6030
5.2200,-7.2892,-4.9842,8.1099,0.0314,-9.7280,1.2287,-3.2194,-1.9719,-0.0185
5.2300,-12.3703,-11.2187,5.4049,-0.0632,-9.6796,1.5599,-3.5696,-3.5373,-1.1500
5.2400,-14.6100,-14.7043,3.5739,-0.3200,-9.6106,1.9082,-3.7586,-4.8399,-2.6637
5.2500,-12.6656,-20.8702,-0.7175,-0.7575,-9.5119,2.2414,-3.6879,-5.0100,-4.2319
5.2600,-7.6218,-28.1595,-10.2704,-1.3188,-9.3765,2.5297,-3.1540,-3.1322,-5.4537
5.2700,4.4332,-26.7070,-18.7265,-1.8822,-9.2094,2.7789,-2.3204,1.5017,-5.9716
5.2800,21.4857,-19.4508,-19.7301,-2.2531,-9.0331,3.0736,-1.8758,7.9550,-5.0300
5.2900,28.1937,-12.1849,-16.0868,-2.2772,-8.8759,3.4837,-1.9601,12.0368,-3.2464
5.3000,19.4689,-8.4437,-17.0532,-2.1123,-8.7439,3.9000,-1.9439,8.7726,-1.9765
5.3100,13.6104,-4.6945,-17.9986,-2.0314,-8.6425,4.1645,-1.5110,1.9780,-0.9033
5.3200,15.0915,0.3971,-12.9295,-2.0698,-8.5818,4.2705,-1.0629,-1.8926,0.1640
5.3300,13.7248,3.8295,-8.3685,-2.1326,-8.5534,4.2967,-0.7357,-2.5836,0.7277
5.3400,10.3529,5.2612,-7.0923,-2.1455,-8.5486,4.2997,-0.3461,-1.3891,1.0154
5.3500,8.4676,5.7346,-6.9512,-2.0736,-8.5686,4.2949,0.1539,0.0863,1.2964
5.3600,5.9335,5.6117,-7.1991,-1.9230,-8.6163,4.2687,0.6715,0.8639,1.6781
5.3700,2.0267,5.4403,-7.3182,-1.7187,-8.6881,4.2092,1.0686,0.9836,2.0713
5.3800,-0.0140,5.8986,-6.7451,-1.4874,-8.7737,4.1184,1.3005,0.7229,2.3380
5.3900,-1.1825,6.9461,-5.9775,-1.2543,-8.8625,4.0044,1.4101,0.2247,2.4531
5.4000,-1.9574,8.0441,-5.5017,-1.0351,-8.9479,3.8751,1.4506,-0.2952,2.4539
5.4100,-1.8923,9.0231,-5.1267,-0.8345,-9.0268,3.7384,1.4538,-0.6752,2.3845
5.4200,-1.3887,9.7632,-4.7269,-0.6511,-9.0981,3.5996,1.4551,-0.9243,2.2870
5.4300,-1.2102,10.1974,-4.5855,-0.4819,-9.1630,3.4592,1.4803,-1.0722,2.1663
5.4400,-1.2842,10.4772,-4.7231,-0.3246,-9.2228,3.3155,1.5351,-1.0032,2.0172
5.4500,-0.8177,10.8600,-4.9704,-0.1682,-9.2791,3.1665,1.6232,-0.5629,1.9255
5.4600,0.5998,11.2465,-5.3707,0.0046,-9.3331,3.0081,1.7558,0.0325,1.9606
5.4700,1.2177,11.1515,-6.1246,0.2002,-9.3856,2.8322,1.9926,0.3332,2.0652
5.4800,-0.0304,9.2232,-7.5072,0.3897,-9.4400,2.6237,2.4213,0.0318,1.6972
5.4900,-2.4391,5.4006,-9.7947,0.5108,-9.5017,2.3673,3.0088,-0.6175,0.9905
5.5000,-3.7820,1.8489,-11.0426,0.5797,-9.5703,2.0520,3.6368,-0.5789,0.8645
5.5100,-0.2820,0.4146,-9.2322,0.6754,-9.6368,1.6734,4.2210,0.0098,1.2594
5.5200,3.1364,0.1241,-7.1651,0.8239,-9.6904,1.2350,4.7740,0.2414,1.7642
5.5300,2.4517,-1.9404,-6.4524,1.0219,-9.7207,0.7452,5.1140,0.6683,2.1543
5.5400,-3.3194,-13.6726,0.2825,1.2210,-9.7238,0.2497,4.5025,2.0271,1.7044
5.5500,-8.5737,-34.5992,13.5692,1.3351,-9.7134,-0.1306,2.3132,3.8733,0.6034
5.5600,-7.6867,-51.0485,18.8432,1.3314,-9.7114,-0.2922,-0.0455,4.7432,-0.4151
5.5700,-2.5451,-52.2362,6.1301,1.2562,-9.7199,-0.3378,0.2663,3.2322,-0.7397
5.5800,4.3492,-37.2972,-5.3956,1.1882,-9.7207,-0.4980,2.4600,1.6688,-0.4446
5.5900,4.4623,-19.9569,-1.7548,1.1361,-9.7036,-0.8255,3.6158,1.6043,-0.4739
5.6000,1.1878,-9.3897,4.4336,1.0622,-9.6753,-1.1837,3.2610,1.2308,-0.7267
5.6100,1.2116,-3.2895,5.4080,0.9847,-9.6455,-1.4662,2.4123,0.0933,-0.6448
5.6200,1.6394,0.3726,3.2315,0.9582,-9.6171,-1.6605,1.7605,-1.5432,-0.1130
5.6300,0.8839,3.2948,1.9293,1.0195,-9.5896,-1.7793,1.1894,-3.1827,0.5113
5.6400,0.0793,5.9900,2.0435,1.1585,-9.5658,-1.8213,0.5325,-4.2454,0.9142
5.6500,-0.4511,7.5046,3.7358,1.3339,-9.5503,-1.7815,-0.2006,-4.4382,1.0374
5.6600,-1.7286,8.0489,5.4551,1.5051,-9.5451,-1.6685,-0.8648,-4.1064,0.9776
5.6700,-3.0506,8.3456,5.5425,1.6585,-9.5474,-1.5010,-1.2839,-3.8089,0.9042
5.6800,-3.7140,8.2692,4.7413,1.7914,-9.5519,-1.3072,-1.3918,-3.4978,0.7619
5.6900,-4.4675,8.4086,4.0464,1.8955,-9.5563,-1.1155,-1.2956,-3.2514,0.5553
5.7000,-5.1078,8.8685,3.6223,1.9778,-9.5592,-0.9335,-1.1595,-3.3310,0.4706
5.7100,-5.0442,9.3729,3.5332,2.0509,-9.5592,-0.7601,-1.0421,-3.3510,0.4606
5.7200,-4.1683,9.9155,4.0702,2.1132,-9.5572,-0.5985,-0.9664,-2.8091,0.3731
5.7300,-3.0561,10.6147,4.6157,2.1519,-9.5564,-0.4602,-0.9025,-1.6318,0.1537
5.7400,-2.5892,11.0713,4.6683,2.1572,-9.5596,-0.3590,-0.7535,-0.3164,-0.1349
5.7500,-2.2620,11.5205,4.2914,2.1323,-9.5671,-0.3049,-0.4262,0.6218,-0.3610
5.7600,-1.3950,12.3849,3.4967,2.0904,-9.5763,-0.3076,0.0604,1.2067,-0.4432
5.7700,0.1022,13.3116,3.0998,2.0446,-9.5839,-0.3698,0.5940,1.6070,-0.4048
5.7800,1.6480,13.8984,3.3728,2.0014,-9.5877,-0.4851,1.0331,1.8922,-0.3382
5.7900,2.0137,13.7147,3.8209,1.9572,-9.5878,-0.6372,1.2794,2.0593,-0.3692
5.8000,0.8188,12.8486,3.7482,1.8967,-9.5870,-0.8084,1.4320,2.0882,-0.5947
5.8100,-1.0558,11.0854,2.4739,1.8033,-9.5877,-0.9912,1.5532,1.9695,-0.9637
5.8200,-2.4743,8.8121,1.1271,1.6745,-9.5905,-1.1731,1.5194,1.6738,-1.2813
5.8300,-2.8931,7.3847,1.1291,1.5241,-9.5949,-1.3321,1.2761,1.1811,-1.4462
5.8400,-2.5571,7.4731,2.1378,1.3685,-9.6010,-1.4526,0.9334,0.6855,-1.4987
5.8500,-0.7817,8.2816,2.8476,1.2123,-9.6091,-1.5355,0.6636,0.2401,-1.6277
5.8600,0.5620,7.9260,1.9969,1.0460,-9.6197,-1.5904,0.5427,-0.9148,-1.8831
5.8700,-4.2686,5.1117,0.5518,0.8880,-9.6301,-1.6241,0.4719,-2.2453,-1.8817
5.8800,-7.9750,2.0437,-0.0284,0.7478,-9.6400,-1.6359,0.0361,-1.6127,-1.7609
5.8900,-4.3957,-2.8728,3.9043,0.5832,-9.6636,-1.5585,-1.7518,1.2730,-1.7237
5.9000,-2.8623,-12.9461,15.4503,0.3902,-9.7143,-1.2614,-4.5778,4.3878,-1.4159
5.9100,-4.8064,-21.6323,24.0012,0.2177,-9.7711,-0.7436,-5.9782,4.9376,-1.1253
5.9200,-4.4409,-18.9894,13.0402,0.0843,-9.8010,-0.2009,-4.9428,2.9004,-1.1384
5.9300,-3.5769,-10.7923,0.4817,-0.0346,-9.8037,0.1842,-2.8773,0.4071,-1.2244
5.9400,-2.5076,-4.9817,1.4531,-0.1625,-9.7973,0.3855,-1.3548,-1.3121,-1.2965
5.9500,1.8165,-1.0588,5.6115,-0.2884,-9.7898,0.4914,-1.0167,-1.6107,-1.0547
5.9600,4.9814,-0.3394,9.3531,-0.3650,-9.7807,0.6084,-1.5200,-1.1073,-0.3017
5.9700,2.9209,-2.2701,9.9724,-0.3600,-9.7673,0.7926,-2.2994,-0.9979,0.4782
5.9800,-1.6755,-6.6152,8.2617,-0.3214,-9.7445,1.0446,-2.8923,-1.3745,0.4084
5.9900,-7.1940,-12.2744,5.0376,-0.3477,-9.7064,1.3442,-3.3237,-1.7597,-0.6357
6.0000,-12.6630,-17.2701,-0.3629,-0.5091,-9.6471,1.6733,-3.6017,-2.5076,-2.0403
6.0100,-12.9898,-21.4230,-5.7312,-0.8241,-9.5614,2.0013,-3.5392,-3.3756,-3.3028
6.0200,-12.6614,-24.8254,-12.8505,-1.2746,-9.4485,2.2777,-2.8930,-3.0396,-4.6384
6.0300,-10.1954,-23.5281,-18.2175,-1.8249,-9.3048,2.4818,-2.1007,-0.9993,-5.9200
6.0400,9.4939,-17.2886,-17.9366,-2.3436,-9.1284,2.6972,-1.8747,3.8585,-5.7690
6.0500,30.2739,-11.0079,-15.8861,-2.5792,-8.9505,3.0572,-2.0823,10.2040,-3.8602
6.0600,27.2337,-7.3365,-15.1407,-2.4664,-8.7993,3.5459,-2.3259,11.3578,-2.3328
6.0700,16.4257,-5.6491,-16.7617,-2.2944,-8.6710,3.9610,-2.1101,5.7313,-1.4210
6.0800,13.7611,-2.2047,-14.5133,-2.2651,-8.5778,4.1780,-1.5257,-0.2053,-0.2274
6.0900,11.7951,1.8492,-9.0560,-2.3194,-8.5293,4.2473,-0.9954,-2.6345,0.5077
6.1000,7.8635,3.9145,-6.0348,-2.3780,-8.5116,4.2506,-0.5861,-2.5669,0.7925
6.1100,4.3647,4.7713,-5.4977,-2.3895,-8.5162,4.2349,-0.2210,-1.5732,1.0295
6.1200,2.8249,4.9794,-5.6110,-2.3344,-8.5423,4.2128,0.1110,-0.6793,1.3572
6.1300,1.5492,5.1024,-5.8744,-2.2197,-8.5876,4.1822,0.3717,-0.1522,1.6872
6.1400,0.2837,5.5747,-6.0226,-2.0614,-8.6460,4.1423,0.5337,0.1562,1.9350
6.1500,0.5791,6.4974,-5.6184,-1.8767,-8.7097,4.0961,0.6188,0.3054,2.0511
6.1600,0.9688,7.6220,-5.1485,-1.6837,-8.7730,4.0446,0.6593,0.2360,2.0604
6.1700,0.7138,8.6952,-4.8863,-1.4989,-8.8332,3.9861,0.6716,-0.0341,1.9862
6.1800,0.1829,9.5422,-4.8042,-1.3362,-8.8881,3.9216,0.6863,-0.3681,1.8196
6.1900,-0.0481,10.1749,-5.0142,-1.2003,-8.9378,3.8522,0.7307,-0.4986,1.6122
6.2000,0.9707,10.7002,-5.5237,-1.0741,-8.9847,3.7798,0.7813,-0.1467,1.5188
6.2100,3.6831,11.2162,-5.9332,-0.9238,-9.0310,3.7080,0.8485,0.5673,1.6609
6.2200,5.6421,11.2708,-6.4542,-0.7266,-9.0812,3.6276,1.0948,1.0661,1.9978
6.2300,4.5204,9.5353,-7.7886,-0.4926,-9.1416,3.5126,1.5727,0.7951,2.2949
6.2400,1.5755,6.4860,-9.3808,-0.2748,-9.2139,3.3433,2.1336,-0.4336,2.1918
6.2500,-1.6032,3.4145,-11.0207,-0.1153,-9.2965,3.1159,2.7201,-1.6365,2.0009
6.2600,-1.7706,0.2682,-11.4210,0.0243,-9.3876,2.8301,3.3454,-1.6182,2.0895
6.2700,1.4534,-2.4714,-9.6326,0.1960,-9.4830,2.4811,4.0449,-1.1187,2.3145
6.2800,2.0721,-4.7779,-8.6096,0.4121,-9.5761,2.0565,4.8773,-0.8253,2.6867
6.2900,0.7353,-7.5229,-8.4739,0.6841,-9.6535,1.5542,5.4564,0.0937,3.0788
6.3000,-4.4046,-18.2356,0.7351,0.9812,-9.6983,1.0327,4.8122,1.9797,2.7298
6.3100,-9.8183,-34.4252,14.9127,1.2272,-9.7077,0.6253,2.7092,3.7671,1.8458
6.3200,-10.4728,-43.1650,19.9779,1.3813,-9.6998,0.4125,0.6563,4.3642,0.8601
6.3300,-7.4109,-41.2493,11.5935,1.4293,-9.6970,0.3048,0.7183,3.3745,-0.1724
6.3400,-4.1334,-37.6284,3.5733,1.3898,-9.7059,0.1114,2.5180,2.0955,-0.7204
6.3500,0.3405,-24.4396,5.8979,1.3091,-9.7146,-0.2173,3.4422,1.7719,-0.8914
6.3600,3.4075,-8.2867,8.4073,1.2168,-9.7138,-0.5534,2.9100,1.4126,-0.8398
6.3700,1.6179,-3.1850,6.5434,1.1459,-9.7051,-0.8103,2.1573,0.2054,-0.4627
6.3800,1.3617,0.5807,3.5912,1.1386,-9.6904,-0.9825,1.5063,-1.3925,0.1935
6.3900,1.4734,2.2066,2.8542,1.2055,-9.6729,-1.0716,0.8032,-2.4986,0.7116
6.4000,0.6401,4.9642,1.6784,1.3164,-9.6573,-1.0812,0.1204,-2.9819,0.9333
6.4100,-0.8510,8.3500,1.7040,1.4442,-9.6456,-1.0200,-0.5024,-3.1443,1.0181
6.4200,-2.3049,8.8125,3.5931,1.5732,-9.6373,-0.8993,-0.9802,-3.0551,0.9961
6.4300,-3.6834,8.8651,4.4487,1.6865,-9.6314,-0.7431,-1.2138,-2.7889,0.8343
6.4400,-4.9570,9.1617,4.3820,1.7720,-9.6276,-0.5760,-1.2402,-2.6820,0.5503
6.4500,-5.6710,9.4475,4.1504,1.8231,-9.6266,-0.4107,-1.1404,-2.7764,0.2179
6.4600,-5.4667,9.7515,4.2898,1.8379,-9.6292,-0.2558,-1.0001,-2.7494,-0.0963
6.4700,-4.7178,10.0697,4.5676,1.8281,-9.6336,-0.1383,-0.8941,-2.5978,-0.2601
6.4800,-4.2454,10.2827,4.7323,1.8198,-9.6356,-0.0945,-0.8646,-2.5034,-0.2881
6.4900,-2.9836,11.1111,5.2158,1.7943,-9.6409,0.0090,-0.8391,-2.0477,-0.3671
6.5000,-1.2686,12.4101,5.3105,1.7525,-9.6479,0.1187,-0.8050,-1.1889,-0.4859
6.5100,-0.3143,13.0982,5.0526,1.6995,-9.6560,0.2026,-0.6440,-0.2413,-0.5731
6.5200,0.7315,13.6441,4.5032,1.6462,-9.6643,0.2466,-0.3072,0.5300,-0.5173
6.5300,2.5955,14.5057,3.4044,1.6058,-9.6713,0.2411,0.1442,1.0903,-0.3570
6.5400,3.5422,14.5577,2.2701,1.5796,-9.6768,0.1831,0.6038,1.5766,-0.2580
6.5500,3.1424,13.3320,1.2693,1.5537,-9.6823,0.0754,1.0102,2.0158,-0.3441
6.5600,1.3304,10.9761,0.3222,1.5088,-9.6892,-0.0720,1.3238,2.2461,-0.5863
6.5700,-1.2405,8.4174,-0.7147,1.4342,-9.6976,-0.2445,1.5222,2.1612,-0.8710
6.5800,-3.3248,6.5820,-1.6842,1.3319,-9.7060,-0.4226,1.5266,1.7321,-1.0795
6.5900,-4.4058,6.0284,-1.8431,1.2138,-9.7135,-0.5802,1.2828,1.1839,-1.1796
6.6000,-4.0325,6.7016,-0.5679,1.0909,-9.7204,-0.6983,0.8851,0.8621,-1.1960
6.6100,-2.3192,8.0008,1.2768,0.9697,-9.7275,-0.7750,0.5403,0.6371,-1.1791
6.6200,-1.3393,8.6392,1.5660,0.8465,-9.7352,-0.8221,0.4021,-0.3288,-1.3289
6.6300,-4.3494,7.0021,0.0800,0.7189,-9.7427,-0.8540,0.4095,-1.8163,-1.4596
6.6400,-8.2380,3.8562,-0.4828,0.5923,-9.7495,-0.8738,0.2110,-2.3048,-1.5296
6.6500,-7.8582,-0.1811,2.7976,0.4477,-9.7602,-0.8369,-0.9539,-0.9474,-1.7210
6.6600,-6.1331,-7.9412,12.2818,0.2783,-9.7805,-0.6327,-3.2909,1.4524,-1.6698
6.6700,-5.9534,-16.3571,22.7258,0.1173,-9.8000,-0.2200,-4.9015,2.9032,-1.4269
6.6800,-3.9784,-19.8405,21.4168,-0.0175,-9.8018,0.2284,-3.9032,2.7521,-1.3459
6.6900,0.2227,-18.3698,9.1736,-0.1447,-9.7921,0.5038,-1.6860,1.5642,-1.3944
6.7000,0.5335,-8.4975,4.1642,-0.2799,-9.7835,0.6075,-0.5927,0.2116,-1.4168
6.7100,1.2321,0.2733,7.9216,-0.4116,-9.7747,0.6715,-0.8408,-0.2161,-1.2077
6.7200,4.4510,0.4400,10.3411,-0.5014,-9.7615,0.7910,-1.6275,0.0877,-0.5437
6.7300,2.5535,-2.0337,10.2039,-0.5054,-9.7425,0.9916,-2.4451,-0.2872,0.4708
6.7400,-0.1680,-3.9141,9.2027,-0.4450,-9.7145,1.2565,-3.0181,-1.3884,0.8584
6.7500,-3.9497,-9.6131,6.9224,-0.4179,-9.6708,1.5633,-3.4183,-2.1630,0.1163
6.7600,-10.8237,-18.0706,1.8152,-0.5151,-9.6054,1.8981,-3.7249,-2.9799,-1.2514
6.7700,-13.7698,-20.9000,-1.3214,-0.7858,-9.5126,2.2359,-3.6659,-3.9246,-2.9208
6.7800,-15.3774,-24.8337,-9.4357,-1.2440,-9.3909,2.5180,-3.0494,-3.9029,-4.6925
6.7900,-9.0325,-25.5897,-17.2915,-1.8260,-9.2345,2.7295,-2.4010,-1.5413,-5.9538
6.8000,15.1347,-18.4637,-17.6341,-2.3198,-9.0483,2.9747,-2.2119,4.3137,-5.3663
6.8100,31.9855,-11.6372,-16.3902,-2.4587,-8.8726,3.3668,-2.3307,10.5915,-3.1772
6.8200,23.1318,-7.9400,-16.1557,-2.2772,-8.7270,3.8403,-2.3840,10.3782,-1.8535
6.8300,12.7617,-5.3933,-17.3652,-2.1089,-8.6039,4.2042,-2.0473,4.2437,-1.1790
6.8400,12.0987,-0.8133,-13.8519,-2.1111,-8.5116,4.3888,-1.5836,-1.0635,-0.2224
6.8500,11.2901,3.3358,-9.1366,-2.2062,-8.4505,4.4597,-1.2239,-2.9726,0.2674
6.8600,9.7885,4.8415,-7.7599,-2.3006,-8.4129,4.4832,-0.8274,-2.4916,0.5050
6.8700,7.5400,5.2665,-7.9963,-2.3298,-8.4017,4.4892,-0.3661,-1.3279,0.8652
6.8800,3.9449,5.4383,-8.1201,-2.2769,-8.4213,4.4795,0.1179,-0.4394,1.2958
6.8900,1.8676,5.4781,-8.0473,-2.1592,-8.4689,4.4475,0.5381,0.1273,1.6038
6.9000,0.8787,5.8251,-7.5831,-2.0019,-8.5345,4.3949,0.8137,0.4432,1.7403
6.9100,-0.3145,6.7235,-6.7674,-1.8309,-8.6079,4.3257,0.9842,0.4637,1.7266
6.9200,-0.7678,7.9447,-6.2728,-1.6684,-8.6830,4.2405,1.1076,0.2744,1.6218
6.9300,-0.6958,8.9685,-6.0478,-1.5267,-8.7574,4.1400,1.2155,-0.0202,1.4653
6.9400,-0.3195,9.7297,-5.9799,-1.4118,-8.8303,4.0244,1.3308,-0.3272,1.3043
6.9500,0.7681,10.5381,-6.1391,-1.3042,-8.9033,3.8976,1.4128,-0.1647,1.4117
6.9600,5.4528,11.7457,-6.0673,-1.1495,-8.9784,3.7714,1.4296,0.5601,1.9201
6.9700,10.4216,12.8199,-5.8170,-0.9129,-9.0561,3.6468,1.5238,1.0466,2.6161
6.9800,9.4448,11.3851,-6.2513,-0.6094,-9.1387,3.4995,1.8911,0.6644,3.2578
6.9900,4.1358,7.3114,-7.5857,-0.2992,-9.2282,3.2990,2.4938,-0.9797,3.3741
7.0000,-2.8255,3.2726,-9.6272,-0.0775,-9.3232,3.0354,3.0843,-3.1740,2.7555
7.0100,-7.2200,-0.3642,-10.8097,0.0573,-9.4182,2.7264,3.4287,-3.5604,2.3413
7.0200,-1.8686,-3.0987,-8.2862,0.2086,-9.5054,2.3950,3.5948,-2.0557,2.4278
7.0300,4.0478,-5.4658,-5.7830,0.4154,-9.5805,2.0402,3.9044,-0.7410,2.5468
7.0400,2.7736,-9.5577,-6.6598,0.6693,-9.6421,1.6386,4.4357,-0.1921,2.9355
7.0500,1.4408,-14.0869,-6.4010,0.9758,-9.6799,1.1997,4.3776,0.9287,3.2206
7.0600,-0.9702,-19.5783,-0.6195,1.2947,-9.6839,0.8171,2.8914,2.3915,2.9295
7.0700,-5.8273,-28.6005,10.1357,1.5724,-9.6602,0.5986,0.7550,3.2700,2.3736
7.0800,-9.2628,-34.2587,14.1316,1.7824,-9.6287,0.5243,-0.1600,3.4158,1.5163
7.0900,-10.2681,-34.3796,12.0989,1.8962,-9.6114,0.4345,1.0626,2.5867,0.5358
7.1000,-3.5149,-26.0203,5.2450,1.9163,-9.6142,0.1880,3.0342,2.2133,-0.2330
7.1100,3.1223,-13.9998,2.9651,1.8607,-9.6239,-0.1998,3.7974,2.6731,-0.8735
7.1200,0.7369,-7.4163,9.3812,1.7528,-9.6292,-0.5863,3.1447,2.0898,-1.1045
7.1300,-1.9816,-3.1059,7.6385,1.6557,-9.6266,-0.8629,2.2321,-0.1125,-0.7087
7.1400,-0.6916,-0.3970,2.2938,1.6333,-9.6142,-1.0320,1.7121,-2.2208,-0.0179
7.1500,1.0229,2.4043,-0.0582,1.6902,-9.5934,-1.1303,1.2719,-3.2469,0.5345
7.1600,0.1493,5.1724,-0.3895,1.8010,-9.5694,-1.1614,0.6275,-3.7191,0.9109
7.1700,-1.2454,6.7959,0.9251,1.9466,-9.5462,-1.1147,-0.0996,-3.8200,1.1890
7.1800,-2.8613,7.3136,2.9411,2.1074,-9.5243,-1.0030,-0.6422,-3.4853,1.3306
7.1900,-5.1708,7.7564,3.9704,2.2676,-9.5018,-0.8549,-0.8926,-3.1800,1.3488
7.2000,-7.4011,7.9031,4.2638,2.4125,-9.4792,-0.6955,-0.8807,-3.0532,1.1369
7.2100,-8.9433,8.0627,4.9125,2.5192,-9.4616,-0.5434,-0.7552,-2.9193,0.6959
7.2200,-9.3067,8.7986,5.6234,2.5782,-9.4528,-0.4039,-0.6451,-2.7886,0.2859
7.2300,-9.0939,9.2637,5.7757,2.6023,-9.4509,-0.2746,-0.6089,-2.4821,0.0343
7.2400,-6.9496,10.8105,6.4968,2.6000,-9.4542,-0.1617,-0.6270,-1.5733,-0.1945
7.2500,-4.0310,13.0366,6.8941,2.5724,-9.4628,-0.0801,-0.5607,-0.3410,-0.4130
7.2600,-2.6947,14.3921,6.3336,2.5262,-9.4756,-0.0398,-0.3598,0.5842,-0.5391
7.2700,-2.0996,15.0751,6.1678,2.4725,-9.4897,-0.0391,-0.0538,0.9030,-0.5686
7.2800,-1.5172,15.3605,5.6967,2.4214,-9.5027,-0.0704,0.2694,0.7751,-0.4869
7.2900,0.4387,16.0463,5.1517,2.3845,-9.5114,-0.1263,0.5196,0.6767,-0.2592
7.3000,3.6046,16.4647,4.9160,2.3703,-9.5135,-0.2081,0.8532,0.7824,-0.0236
7.3100,5.1715,14.8890,2.3724,2.3662,-9.5104,-0.3423,1.5117,1.1775,-0.0497
7.3200,3.7695,10.6740,-2.8198,2.3393,-9.5062,-0.5590,2.2588,1.7989,-0.3914
7.3300,1.3656,6.4046,-5.9009,2.2634,-9.5034,-0.8408,2.5831,2.2397,-0.8884
7.3400,-1.0764,4.2833,-5.0918,2.1375,-9.5028,-1.1290,2.3024,2.3690,-1.2263
7.3500,-2.8300,4.4501,-2.4378,1.9883,-9.5037,-1.3708,1.7072,2.4361,-1.2253
7.3600,-2.1493,5.7010,-0.0842,1.8394,-9.5042,-1.5632,1.3826,2.4755,-1.1587
7.3700,0.0419,5.3827,-1.5456,1.6833,-9.5039,-1.7319,1.4622,1.1083,-1.4759
7.3800,-5.4816,3.4484,-5.1003,1.5251,-9.5038,-1.8742,1.4240,-0.8987,-1.7631
7.3900,-8.7346,1.2185,-3.7764,1.3804,-9.5060,-1.9735,0.9642,-1.2863,-1.7424
7.4000,-3.0759,-0.5759,1.7225,1.2279,-9.5185,-2.0132,-0.0363,0.0376,-1.7439
7.4100,-3.0480,-3.7705,9.0330,1.0336,-9.5576,-1.9324,-1.9964,2.1250,-1.8889
7.4200,-8.1408,-10.5350,19.4629,0.7901,-9.6312,-1.6517,-4.2744,3.4010,-2.0805
7.4300,-10.4743,-15.1421,25.2116,0.5413,-9.7144,-1.1937,-5.4031,2.9138,-2.0021
7.4400,-8.8644,-13.4567,20.1067,0.3342,-9.7735,-0.6812,-5.1206,1.4220,-1.7606
7.4500,-5.8509,-9.4936,11.9035,0.1615,-9.8003,-0.2309,-4.0191,-0.0118,-1.6692
7.4600,-1.5237,-4.7869,6.9872,-0.0040,-9.8047,0.1074,-2.9144,-1.0596,-1.6465
7.4700,5.9982,0.0448,7.4772,-0.1481,-9.7975,0.3724,-2.5776,-0.8349,-1.1735
7.4800,9.4790,0.8674,9.5528,-0.2241,-9.7823,0.6371,-2.8207,0.1791,-0.3749
7.4900,2.6788,-3.7393,8.5949,-0.2394,-9.7590,0.9242,-2.9832,-0.1066,-0.0311
7.5000,-5.4986,-11.2179,7.7406,-0.2642,-9.7253,1.2226,-3.1984,-1.7874,-0.3013
7.5100,-10.2163,-19.5603,6.6787,-0.3684,-9.6735,1.5547,-3.8378,-3.2893,-1.1333
7.5200,-12.9972,-27.5613,2.1279,-0.6097,-9.5892,1.9424,-4.5200,-4.1911,-2.5023
7.5300,-13.7201,-31.2878,-1.4758,-1.0045,-9.4600,2.3591,-4.8576,-4.4500,-3.6925
7.5400,-5.9889,-32.7831,-10.0070,-1.4821,-9.2869,2.7607,-4.5072,-3.0339,-4.3218
7.5500,6.2759,-30.9405,-22.1795,-1.9256,-9.0930,3.1152,-3.4228,0.8741,-4.5372
7.5600,15.5664,-20.7431,-22.1867,-2.1977,-8.9066,3.4592,-2.6029,6.0297,-3.9872
7.5700,18.4530,-9.4114,-15.6965,-2.2153,-8.7348,3.8611,-2.5808,9.0663,-3.0065
7.5800,14.3646,-3.1399,-14.2052,-2.1076,-8.5691,4.2723,-2.6441,7.0773,-2.2190
7.5900,14.2724,0.2592,-15.1218,-2.0473,-8.4231,4.5839,-2.1892,2.7447,-1.2354
7.6000,17.1681,3.7096,-13.4350,-2.0427,-8.3257,4.7619,-1.4166,-0.0679,-0.0094
7.6100,14.7169,6.0453,-10.9519,-2.0353,-8.2868,4.8328,-0.6267,-1.1007,0.9332
7.6200,7.5807,6.5000,-9.4019,-1.9864,-8.2981,4.8337,0.0676,-0.9466,1.4328
7.6300,1.3213,6.6429,-8.5773,-1.8926,-8.3449,4.7902,0.6118,-0.5198,1.6289
7.6400,-0.8365,7.0782,-7.8023,-1.7678,-8.4151,4.7141,1.0180,-0.2005,1.7294
7.6500,-0.9233,7.7167,-7.0372,-1.6224,-8.4998,4.6130,1.2943,-0.0453,1.8093
7.6600,-1.0387,8.0635,-6.6724,-1.4705,-8.5917,4.4920,1.4850,-0.1349,1.7883
7.6700,-1.7858,8.4985,-6.5812,-1.3303,-8.6853,4.3536,1.6066,-0.4130,1.6997
7.6800,-2.1689,9.1882,-6.3144,-1.2094,-8.7773,4.2018,1.6630,-0.7106,1.5986
7.6900,-1.5111,9.7298,-5.7907,-1.1046,-8.8652,4.0432,1.6856,-0.8175,1.4968
7.7000,-0.1690,10.2658,-5.4801,-0.9963,-8.9481,3.8857,1.6634,-0.3332,1.4983
7.7100,2.9449,10.9640,-5.2284,-0.8456,-9.0248,3.7408,1.5665,0.8638,1.6708
7.7200,6.7712,11.6481,-4.7395,-0.6235,-9.0937,3.6146,1.4410,2.2539,1.9389
7.7300,8.2250,11.5944,-4.7015,-0.3385,-9.1547,3.4957,1.4377,2.9688,2.1847
7.7400,5.8235,9.6059,-5.4604,-0.0311,-9.2110,3.3612,1.6153,2.4196,2.3807
7.7500,1.0514,6.8190,-6.2041,0.2427,-9.2655,3.2000,1.8573,0.3351,2.3942
7.7600,-4.1145,4.8211,-7.2847,0.4176,-9.3201,3.0197,2.1235,-2.5600,2.0527
7.7700,-6.9845,2.3441,-9.2253,0.4987,-9.3797,2.8159,2.5863,-3.9928,1.8380
7.7800,-3.1026,-0.7975,-9.7015,0.5773,-9.4484,2.5572,3.3260,-3.4083,2.0175
7.7900,1.6925,-3.2645,-9.0164,0.7140,-9.5235,2.2179,4.1508,-2.3138,2.3214
7.8000,1.3419,-6.0325,-8.6706,0.9213,-9.5919,1.8031,4.6445,-0.8074,2.6877
7.8100,-0.1494,-10.8397,-6.1802,1.1789,-9.6355,1.3690,4.0176,1.5002,2.5151
7.8200,-4.1759,-19.6977,1.6860,1.4185,-9.6469,1.0344,1.9949,3.6987,1.7773
7.8300,-8.9910,-31.3381,12.8236,1.5875,-9.6367,0.8826,-0.0555,4.3569,0.9072
7.8400,-8.6565,-35.9819,12.0726,1.6673,-9.6266,0.8484,-0.2470,3.1708,0.0326
7.8500,-3.7181,-31.0355,0.2805,1.6544,-9.6365,0.7497,1.5993,1.8245,-0.6949
7.8600,2.3988,-22.3454,-2.0898,1.5657,-9.6674,0.4698,3.4164,1.8475,-1.3343
7.8700,4.1136,-13.0202,5.9601,1.4180,-9.7009,0.0925,3.4635,2.2406,-1.7716
7.8800,2.1095,-5.9222,9.3937,1.2456,-9.7235,-0.2225,2.4290,1.3048,-1.6652
7.8900,1.8665,-2.0023,4.9517,1.1143,-9.7335,-0.4238,1.6461,-0.5644,-0.9637
7.9000,2.0499,0.6765,1.0122,1.0659,-9.7329,-0.5498,1.2402,-2.0775,-0.1972
7.9100,1.1417,3.6559,-0.2281,1.0887,-9.7261,-0.6221,0.7733,-2.8957,0.3199
7.9200,0.1417,6.4866,-0.1116,1.1590,-9.7174,-0.6303,0.1013,-3.3396,0.7121
7.9300,-0.7767,8.0172,1.5400,1.2656,-9.7079,-0.5655,-0.5580,-3.4201,1.0368
7.9400,-2.1158,8.2694,3.6257,1.3924,-9.6966,-0.4460,-0.9530,-3.1391,1.1908
7.9500,-4.0586,8.5584,4.8532,1.5180,-9.6833,-0.3000,-1.1169,-2.9431,1.1317
7.9600,-5.4579,8.9327,5.1086,1.6263,-9.6694,-0.1420,-1.1509,-3.0609,0.9391
7.9700,-5.6514,9.3512,4.9842,1.7091,-9.6561,0.0209,-1.1062,-3.2482,0.7272
7.9800,-5.1947,10.0236,4.9275,1.7669,-9.6442,0.1798,-1.0045,-3.1242,0.5289
7.9900,-4.7257,10.8274,4.8831,1.7997,-9.6345,0.3212,-0.8600,-2.4859,0.2781
8.0000,-4.0349,12.0601,4.4959,1.8043,-9.6295,0.4311,-0.6535,-1.5226,-0.0371
8.0100,-2.9505,13.4753,3.7922,1.7810,-9.6306,0.4987,-0.3434,-0.6153,-0.3363
8.0200,-1.3279,14.7142,3.5667,1.7366,-9.6377,0.5178,0.0301,0.1238,-0.5312
8.0300,0.9942,15.6168,3.8472,1.6869,-9.6480,0.4892,0.3958,0.6716,-0.5012
8.0400,2.3427,15.9667,4.0950,1.6522,-9.6571,0.4231,0.6558,0.9818,-0.2802
8.0500,2.8066,16.0118,4.2415,1.6384,-9.6629,0.3333,0.8269,1.1374,-0.1097
8.0600,2.6767,15.2674,3.5390,1.6286,-9.6677,0.2205,1.1074,1.3217,-0.1967
8.0700,1.0702,12.8479,0.8350,1.5949,-9.6754,0.0677,1.5712,1.5461,-0.5663
8.0800,-1.0381,9.5604,-2.6078,1.5150,-9.6873,-0.1310,1.9622,1.6343,-1.0593
8.0900,-2.8236,7.2460,-4.0966,1.3910,-9.7004,-0.3485,1.9724,1.4584,-1.3771
8.1000,-3.0521,6.6759,-3.1964,1.2478,-9.7111,-0.5438,1.6389,1.2458,-1.4086
8.1100,-0.6291,6.9401,-1.5608,1.1084,-9.7180,-0.7026,1.3316,1.2879,-1.2962
8.1200,1.8076,6.5141,-1.7287,0.9697,-9.7218,-0.8413,1.3328,0.5145,-1.4267
8.1300,-2.9808,3.9455,-4.1789,0.8167,-9.7231,-0.9760,1.4142,-0.8061,-1.7256
8.1400,-5.6546,0.5282,-3.4475,0.6564,-9.7226,-1.0964,1.1074,-0.7635,-1.7043
8.1500,-0.2103,0.1277,1.8249,0.4995,-9.7244,-1.1622,0.1638,0.7047,-1.5156
8.1600,-0.3156,-1.1841,8.7180,0.3355,-9.7388,-1.0954,-1.7801,2.6551,-1.4609
8.1700,-5.5528,-8.9098,18.4656,0.1593,-9.7693,-0.8085,-4.1908,3.4449,-1.5209
8.1800,-8.7259,-18.9380,26.2088,-0.0031,-9.7970,-0.3374,-5.1326,2.2308,-1.3492
8.1900,-8.5156,-24.9044,23.5889,-0.1180,-9.8034,0.1137,-3.8100,0.2359,-0.8792
8.2000,-6.3926,-24.2435,15.8393,-0.1784,-9.7975,0.3708,-2.3917,-1.1786,-0.5378
8.2100,-5.3648,-22.2784,12.5457,-0.1961,-9.7943,0.4404,-2.1265,-1.6278,-0.4509
8.2200,-4.1268,-13.0725,8.2437,-0.2376,-9.7847,0.6029,-1.9708,-2.4376,-0.3298
8.2300,-3.2216,-2.5023,6.9623,-0.2783,-9.7689,0.8055,-2.3259,-2.7995,-0.0806
8.2400,-0.6843,0.9383,6.5983,-0.2913,-9.7449,1.0506,-2.8192,-2.7402,0.3201
8.2500,-0.8995,-2.9146,6.0319,-0.2931,-9.7098,1.3350,-3.1322,-2.9635,0.2383
8.2600,-7.0408,-10.2024,4.3824,-0.3577,-9.6602,1.6414,-3.4044,-3.8222,-0.6047
8.2700,-13.5262,-17.0982,0.5274,-0.5642,-9.5878,1.9683,-3.7279,-4.7224,-2.1106
8.2800,-14.7673,-24.6347,-6.0354,-0.9568,-9.4848,2.2822,-3.5298,-5.1117,-3.8393
8.2900,-13.2957,-28.6750,-10.0125,-1.5131,-9.3492,2.5221,-2.6661,-3.6347,-5.5456
8.3000,1.1689,-25.5400,-14.1174,-2.1182,-9.1755,2.7181,-1.8832,1.6314,-6.5907
8.3100,27.9133,-17.4333,-17.2117,-2.5183,-8.9832,3.0122,-1.6131,9.2468,-5.4138
8.3200,35.2544,-9.9163,-15.0072,-2.5227,-8.8205,3.4538,-1.6641,12.7226,-3.2276
8.3300,21.8484,-6.1838,-15.2962,-2.3500,-8.7018,3.8594,-1.4686,7.8509,-1.7574
8.3400,12.6018,-1.3749,-12.9202,-2.3012,-8.6227,4.0645,-1.0397,0.6602,-0.7348
8.3500,11.1694,4.1433,-5.0563,-2.3894,-8.5713,4.1217,-0.9779,-2.3943,-0.2927
8.3600,10.4454,5.6687,-1.0968,-2.5061,-8.5226,4.1534,-1.0700,-1.9783,-0.1671
8.3700,8.5429,4.8278,-3.1591,-2.5581,-8.4824,4.2041,-0.8138,-0.5626,0.2377
8.3800,5.0068,4.0693,-6.4987,-2.5119,-8.4738,4.2488,-0.2334,0.4556,0.8667
8.3900,1.4396,4.2114,-7.8204,-2.3830,-8.5042,4.2618,0.3073,0.8798,1.4256
8.4000,-0.1599,5.1613,-7.7532,-2.2047,-8.5625,4.2407,0.6570,0.9306,1.7775
8.4100,0.0676,6.5361,-7.3212,-2.0059,-8.6337,4.1943,0.8305,0.8479,1.9128
8.4200,0.2439,7.3510,-7.0195,-1.8052,-8.7064,4.1350,0.8730,0.7873,1.9011
8.4300,0.5873,7.9775,-6.7261,-1.6071,-8.7744,4.0725,0.8471,0.7661,1.8817
8.4400,1.2044,8.9371,-6.3438,-1.4091,-8.8375,4.0090,0.8359,0.7642,1.8803
8.4500,1.4135,9.5206,-6.3236,-1.2097,-8.8968,3.9424,0.8786,0.8709,1.8561
8.4600,1.8813,9.9859,-6.5501,-1.0079,-8.9528,3.8716,0.9375,1.1383,1.7548
8.4700,2.7604,10.5540,-6.8721,-0.8078,-9.0056,3.7955,1.0050,1.3946,1.5883
8.4800,3.5479,11.0758,-7.8253,-0.6130,-9.0572,3.7080,1.1569,1.3634,1.5615
8.4900,3.7810,10.6485,-9.6801,-0.4186,-9.1131,3.5961,1.4386,0.7796,1.8253
8.5000,2.3521,8.7003,-11.2802,-0.2261,-9.1762,3.4496,1.7721,-0.5404,2.2131
8.5100,-0.4422,6.4204,-11.9709,-0.0619,-9.2450,3.2682,2.1238,-2.3861,2.3020
8.5200,-2.8419,3.6255,-12.8826,0.0471,-9.3195,3.0493,2.5968,-3.6820,2.1620
8.5300,-2.6905,0.0907,-12.8868,0.1478,-9.4020,2.7789,3.2329,-3.2920,2.2754
8.5400,0.6539,-2.1381,-10.4900,0.3080,-9.4901,2.4428,3.9545,-2.1699,2.6306
8.5500,1.6789,-4.0361,-8.9135,0.5433,-9.5742,2.0347,4.6976,-1.4658,3.1730
8.5600,0.1569,-6.9900,-8.1885,0.8635,-9.6380,1.5608,5.1349,-0.2466,3.7759
8.5700,-1.0774,-12.6915,-4.6900,1.2265,-9.6653,1.0785,4.2921,2.4318,3.3684
8.5800,-6.5730,-26.3515,5.3626,1.5232,-9.6599,0.7098,2.1065,4.7763,2.0867
8.5900,-12.2744,-43.3934,17.8844,1.6931,-9.6449,0.5231,0.3002,4.4921,0.8392
8.6000,-13.1082,-49.7437,22.6787,1.7319,-9.6426,0.4363,0.5835,1.9790,-0.3671
8.6100,-10.8882,-42.8274,15.2249,1.6546,-9.6613,0.2667,2.5770,0.4313,-1.2884
8.6200,-0.3229,-23.5959,9.0567,1.4953,-9.6891,-0.0676,3.8141,1.4032,-1.9464
8.6300,5.7912,-5.6014,11.6688,1.2795,-9.7100,-0.4494,3.3301,2.1668,-2.2546
8.6400,3.4710,1.2323,12.1570,1.0704,-9.7188,-0.7415,2.2185,1.1025,-1.6971
8.6500,3.0953,4.0679,7.2237,0.9579,-9.7159,-0.9215,1.4829,-0.7812,-0.5841
8.6600,2.1232,5.8028,2.2250,0.9624,-9.7041,-1.0350,1.1513,-2.2237,0.2960
8.6700,0.9607,8.5938,1.4752,1.0422,-9.6894,-1.0941,0.5590,-2.9207,0.6961
8.6800,0.1063,10.1772,1.9464,1.1447,-9.6798,-1.0761,-0.2478,-2.9847,0.6963
8.6900,-0.7624,10.6379,3.5822,1.2335,-9.6788,-0.9822,-0.9427,-2.7128,0.5105
8.7000,-2.2121,10.9742,5.1073,1.2993,-9.6841,-0.8324,-1.4097,-2.6308,0.3605
8.7100,-2.9820,10.7163,4.7507,1.3502,-9.6911,-0.6470,-1.6317,-2.7671,0.2826
8.7200,-3.1757,10.6598,4.1680,1.3895,-9.6969,-0.4454,-1.6705,-2.9475,0.2000
8.7300,-2.7588,10.7064,3.4023,1.4166,-9.7002,-0.2451,-1.5452,-3.0811,0.1563
8.7400,-2.2960,10.6778,2.9184,1.4372,-9.7002,-0.0618,-1.3231,-2.8689,0.1779
8.7500,-1.3033,11.1292,3.3292,1.4553,-9.6974,0.0933,-1.1204,-2.0802,0.1865
8.7600,-0.5165,12.0347,3.8393,1.4688,-9.6934,0.2182,-0.9847,-0.9792,0.1151
8.7700,-0.5548,12.8339,3.5366,1.4722,-9.6904,0.3116,-0.8004,0.1351,-0.0349
8.7800,-0.1963,13.2187,2.6018,1.4642,-9.6899,0.3640,-0.4432,0.9722,-0.1659
8.7900,0.5432,12.9965,1.4882,1.4505,-9.6919,0.3639,0.0957,1.4366,-0.2043
8.8000,1.3230,11.8988,0.7212,1.4360,-9.6961,0.3017,0.7024,1.7980,-0.2058
8.8100,1.5556,11.0651,0.5285,1.4177,-9.7017,0.1751,1.3246,2.0966,-0.2793
8.8200,0.7751,9.4277,-0.2278,1.3817,-9.7082,-0.0152,1.9454,2.1973,-0.5190
8.8300,-1.7068,6.2914,-1.9895,1.3088,-9.7145,-0.2576,2.3990,1.9618,-0.9319
8.8400,-4.9202,4.3900,-3.4247,1.1926,-9.7188,-0.5208,2.4763,1.4707,-1.2926
8.8500,-6.2252,4.7334,-3.2635,1.0519,-9.7195,-0.7603,2.0767,1.0644,-1.3935
8.8600,-4.6456,6.7953,-1.1106,0.9116,-9.7182,-0.9413,1.4061,1.0472,-1.2806
8.8700,-1.6275,8.7342,1.1350,0.7840,-9.7176,-1.0580,0.7999,1.3493,-1.0908
8.8800,1.1854,9.3995,0.9087,0.6514,-9.7198,-1.1252,0.4890,0.1656,-1.4779
8.8900,-3.1250,7.1800,-2.1274,0.4846,-9.7243,-1.1680,0.4832,-1.9935,-2.1562
8.9000,-8.8436,1.8024,-2.7661,0.2896,-9.7289,-1.1940,0.0950,-2.2544,-2.3471
8.9100,-5.1548,-6.1311,4.2533,0.0927,-9.7413,-1.1189,-1.7256,0.9427,-1.7682
8.9200,4.0716,-19.3532,18.6330,-0.0494,-9.7680,-0.8451,-3.5728,4.3938,-0.6005
8.9300,5.6826,-29.8948,25.2513,-0.0948,-9.7921,-0.5042,-2.9497,4.4734,0.2111
8.9400,0.8239,-26.6744,15.3425,-0.0778,-9.8016,-0.2992,-1.2216,2.2620,0.3875
8.9500,-2.4841,-13.1302,6.4214,-0.0464,-9.8042,-0.2117,-0.7184,-0.4360,0.2962
8.9600,-5.3635,-1.0674,6.7332,-0.0211,-9.8057,-0.1174,-1.2672,-2.1822,0.1903
8.9700,-5.2131,3.5924,8.6133,-0.0020,-9.8060,0.0450,-2.0131,-2.7515,0.2163
8.9800,-3.3420,3.4187,8.9257,0.0288,-9.8019,0.2739,-2.5966,-2.7291,0.5300
8.9900,-1.9013,0.9350,8.3451,0.0928,-9.7894,0.5529,-3.0048,-2.8795,0.9991
9.0000,-1.6190,-3.2771,7.2788,0.1667,-9.7663,0.8582,-3.0845,-3.1202,0.8897
9.0100,-1.8013,-5.9835,6.5500,0.1878,-9.7344,1.1632,-3.0203,-3.2328,0.1448
9.0200,-6.8029,-11.2610,4.2745,0.1075,-9.6942,1.4670,-3.1015,-3.3739,-0.9685
9.0300,-13.1215,-18.6282,-0.3486,-0.1199,-9.6417,1.7731,-3.1492,-3.5722,-2.5770
9.0400,-15.7955,-22.6935,-7.8844,-0.5267,-9.5724,2.0456,-2.6414,-2.8450,-4.5439
9.0500,-15.5299,-23.3953,-13.1571,-1.0908,-9.4770,2.2488,-1.9080,-0.9458,-6.3018
9.0600,-3.8311,-18.9784,-12.5938,-1.7159,-9.3382,2.4312,-1.8397,1.9190,-6.9445
9.0700,19.9323,-13.1245,-11.9960,-2.2065,-9.1556,2.7200,-2.3339,7.1512,-5.9464
9.0800,33.0905,-10.3777,-13.8030,-2.3732,-8.9647,3.1770,-2.6640,11.4416,-4.1227
9.0900,25.1869,-10.6311,-17.0725,-2.3157,-8.7993,3.6511,-2.3124,8.7003,-2.5011
9.1000,17.4250,-8.1954,-16.2157,-2.2630,-8.6866,3.9475,-1.5229,2.3977,-0.8206
9.1100,15.2397,-2.1749,-11.3728,-2.2568,-8.6389,4.0554,-0.8209,-1.3368,0.5957
9.1200,10.9864,2.5313,-8.2836,-2.2523,-8.6365,4.0630,-0.4025,-2.2940,1.2740
9.1300,6.8057,4.6151,-7.2431,-2.2113,-8.6575,4.0407,-0.1606,-1.7170,1.5772
9.1400,3.6495,5.2863,-7.0444,-2.1144,-8.6928,4.0163,0.0644,-0.9116,1.8544
9.1500,1.3493,5.3921,-7.0658,-1.9657,-8.7417,3.9851,0.3080,-0.5446,2.1890
9.1600,0.4351,5.9092,-6.5528,-1.7777,-8.8023,3.9393,0.4958,-0.5180,2.5368
9.1700,-0.0964,6.9677,-6.1161,-1.5628,-8.8692,3.8795,0.6273,-0.6806,2.7938
9.1800,-0.6808,8.2345,-6.2245,-1.3399,-8.9375,3.8054,0.7695,-0.9346,2.8517
9.1900,-0.5807,9.4015,-6.0570,-1.1263,-9.0039,3.7172,0.9040,-1.0271,2.6946
9.2000,-0.4651,9.9629,-5.7517,-0.9300,-9.0660,3.6196,1.0189,-0.8606,2.3948
9.2100,-0.3458,10.2400,-5.7682,-0.7492,-9.1240,3.5144,1.1484,-0.3966,2.0746
9.2200,0.5007,10.6361,-5.9995,-0.5699,-9.1792,3.4022,1.2639,0.4195,1.8447
9.2300,2.1335,11.0567,-5.9147,-0.3723,-9.2316,3.2854,1.3328,1.4694,1.7687
9.2400,3.9099,11.5056,-5.3671,-0.1422,-9.2802,3.1636,1.3748,2.3536,1.8453
9.2500,4.3647,11.7022,-4.9714,0.1173,-9.3247,3.0305,1.4964,2.5521,2.0427
9.2600,2.4752,10.8122,-5.3272,0.3880,-9.3672,2.8721,1.7830,1.8233,2.2833
9.2700,-0.9520,8.5782,-6.1058,0.6387,-9.4098,2.6820,2.1564,0.2111,2.3305
9.2800,-4.4233,6.5389,-6.9029,0.8220,-9.4551,2.4651,2.5867,-1.9462,1.9394
9.2900,-6.7210,4.5336,-8.2081,0.9332,-9.5063,2.2155,3.1639,-3.1579,1.7473
9.3000,-4.1203,2.2989,-8.5139,1.0530,-9.5593,1.9095,3.8291,-2.5808,2.0960
9.3100,1.0546,0.6793,-7.1521,1.2373,-9.6037,1.5342,4.3228,-0.9186,2.3720
9.3200,1.5785,-2.2308,-5.5857,1.4556,-9.6318,1.1027,4.3584,1.9050,1.9793
9.3300,-2.8758,-8.3201,-2.3760,1.6159,-9.6476,0.6577,3.5184,5.0814,0.7097
9.3400,-9.2688,-17.5728,5.1455,1.6525,-9.6608,0.2950,1.8648,6.6909,-0.4286
9.3500,-10.1338,-31.6745,13.4767,1.5944,-9.6755,0.0630,0.9372,5.9823,-0.9411
9.3600,-5.8883,-47.2101,14.1540,1.4851,-9.6915,-0.1449,1.9097,4.0454,-1.2353
9.3700,0.2797,-48.4154,5.1814,1.3506,-9.7011,-0.4446,3.1695,2.7728,-1.3293
9.3800,3.9865,-26.9269,2.7371,1.2030,-9.6984,-0.7937,3.1652,2.2237,-1.4148
9.3900,2.8335,-8.6388,6.4052,1.0423,-9.6888,-1.0903,2.4174,1.5601,-1.4816
9.4000,2.4661,-4.7256,4.8566,0.9019,-9.6780,-1.2976,1.6310,0.4007,-1.1017
9.4100,2.3824,-2.0815,2.1415,0.8374,-9.6664,-1.4236,1.0423,-1.1691,-0.3091
9.4200,1.6847,0.8571,0.2469,0.8733,-9.6542,-1.4840,0.5344,-2.5995,0.4464
9.4300,1.0100,4.3453,0.2186,0.9863,-9.6437,-1.4805,-0.0230,-3.4113,0.8863
9.4400,0.2108,7.0296,1.3042,1.1315,-9.6377,-1.4133,-0.5932,-3.5502,1.0389
9.4500,-1.1394,8.6074,2.2879,1.2869,-9.6357,-1.2867,-1.1074,-3.6142,1.1648
9.4600,-2.1323,8.9931,2.5383,1.4493,-9.6340,-1.1140,-1.3953,-3.6610,1.2341
9.4700,-3.0858,9.0198,2.8534,1.6001,-9.6307,-0.9193,-1.4789,-3.4845,1.0893
9.4800,-4.2412,9.3157,3.5401,1.7199,-9.6273,-0.7173,-1.5329,-3.2773,0.8104
9.4900,-4.4952,9.5947,3.9337,1.8035,-9.6252,-0.5106,-1.5739,-3.0694,0.5142
9.5000,-4.2286,9.8629,3.8568,1.8537,-9.6245,-0.3032,-1.5779,-2.8563,0.2787
9.5100,-3.7261,10.3666,3.7437,1.8768,-9.6243,-0.1014,-1.5499,-2.4644,0.0813
9.5200,-2.3468,11.2286,3.8009,1.8763,-9.6247,0.0858,-1.4928,-1.6699,-0.1044
9.5300,-0.6912,11.6300,3.2834,1.8580,-9.6256,0.2460,-1.3291,-0.7515,-0.2345
9.5400,1.2145,11.9078,2.5436,1.8317,-9.6270,0.3661,-1.0093,0.0873,-0.2865
9.5500,2.4699,11.8616,1.7981,1.8052,-9.6293,0.4334,-0.5473,0.8103,-0.2955
9.5600,2.5406,11.5403,1.3108,1.7801,-9.6336,0.4422,-0.0280,1.2955,-0.3336
9.5700,0.7194,10.3200,0.7463,1.7471,-9.6416,0.3956,0.4375,1.6175,-0.4901
9.5800,-1.0805,9.1046,0.2244,1.6928,-9.6544,0.3065,0.7845,1.7031,-0.7573
9.5900,-2.1254,8.3681,0.1865,1.6097,-9.6714,0.1895,1.0622,1.5162,-1.0357
9.6000,-3.4939,7.1331,-0.3762,1.4998,-9.6907,0.0512,1.3351,1.1563,-1.2442
9.6100,-3.7427,6.3472,-1.1525,1.3728,-9.7090,-0.1019,1.5016,0.6650,-1.3503
9.6200,-3.3009,6.2850,-1.1833,1.2351,-9.7247,-0.2551,1.4718,0.4164,-1.4589
9.6300,-1.0602,7.0104,-0.1172,1.0843,-9.7378,-0.3982,1.3049,0.8499,-1.5566
9.6400,3.2500,7.9613,1.0562,0.9236,-9.7481,-0.5299,1.2333,0.7430,-1.6347
9.6500,1.0926,7.4085,0.2070,0.7618,-9.7541,-0.6607,1.4097,-0.3423,-1.6253
9.6600,-4.7877,3.1012,-1.6442,0.6134,-9.7539,-0.8035,1.5246,-0.2902,-1.4503
9.6700,-1.4419,-3.2422,0.3011,0.4615,-9.7513,-0.9272,0.8367,1.5515,-1.5693
9.6800,0.2846,-10.7740,8.2611,0.2699,-9.7580,-0.9297,-1.0220,3.6214,-1.7955
9.6900,-4.1192,-19.3176,18.4469,0.0633,-9.7767,-0.7430,-2.7582,4.2582,-1.6417
9.7000,-3.0853,-21.6820,20.1003,-0.1025,-9.7944,-0.4482,-3.0217,3.1823,-1.2378
9.7100,0.2727,-15.0711,11.8884,-0.2119,-9.8019,-0.1797,-2.3231,1.2936,-0.8333
9.7200,-0.4558,-6.7442,5.1548,-0.2811,-9.8022,0.0211,-1.8050,-0.4837,-0.5340
9.7300,-2.3714,-1.6090,3.9806,-0.3196,-9.7991,0.1946,-1.8490,-1.6909,-0.2006
9.7400,-2.3605,0.5512,4.8624,-0.3238,-9.7932,0.3847,-2.1634,-2.4437,0.2648
9.7500,-1.7372,0.3974,5.2229,-0.2819,-9.7830,0.6062,-2.5060,-3.0969,0.8985
9.7600,-0.9232,-1.8617,5.5381,-0.1848,-9.7657,0.8626,-2.8785,-3.7277,1.5780
9.7700,-0.3736,-5.4040,6.3771,-0.0601,-9.7360,1.1609,-3.3125,-3.6704,1.6468
9.7800,-3.1532,-9.4098,5.6213,0.0200,-9.6878,1.5097,-3.8441,-3.0975,0.8189
9.7900,-8.5818,-14.3340,1.3183,-0.0135,-9.6176,1.9040,-4.1995,-3.0543,-0.4897
9.8000,-13.4220,-19.7238,-5.4677,-0.2085,-9.5305,2.2895,-3.7686,-3.9150,-2.0354
9.8100,-13.0428,-22.2170,-8.8799,-0.5787,-9.4378,2.5874,-2.8514,-4.8650,-3.3707
9.8200,-9.4375,-21.3896,-10.9973,-1.0812,-9.3389,2.7755,-1.9013,-3.5710,-4.7765
9.8300,-3.1895,-17.2347,-12.5732,-1.6417,-9.2165,2.9053,-1.2915,0.4381,-6.1506
9.8400,14.1347,-10.9374,-10.9000,-2.1124,-9.0601,3.0928,-1.3952,5.8948,-5.9320
9.8500,29.9141,-6.6074,-10.6764,-2.2894,-8.8956,3.4276,-1.6942,10.8850,-4.2057
9.8600,25.7405,-4.8884,-12.7258,-2.2075,-8.7546,3.8222,-1.6173,9.8918,-2.7407
9.8700,16.7556,-3.2440,-12.3509,-2.1139,-8.6527,4.1015,-1.1827,4.0011,-1.3982
9.8800,14.5078,0.6023,-8.4552,-2.1040,-8.5998,4.2173,-0.7253,-0.5927,0.0984
9.8900,10.9611,4.0865,-5.6857,-2.1321,-8.5886,4.2261,-0.3593,-2.5748,0.8801
9.9000,6.3729,5.6010,-4.4550,-2.1563,-8.5993,4.1919,-0.1213,-2.2406,0.9750
9.9100,2.8037,6.0661,-4.5019,-2.1425,-8.6179,4.1607,0.0757,-0.8217,0.8536
9.9200,0.6255,6.2500,-5.7576,-2.0773,-8.6455,4.1361,0.3775,0.2465,0.9040
9.9300,0.4212,6.9577,-6.5584,-1.9709,-8.6885,4.0977,0.6979,0.5462,1.1355
9.9400,1.2936,7.8998,-6.6668,-1.8622,-8.7358,4.0474,0.9105,0.4791,1.3619
9.9500,1.6616,8.3385,-6.6580,-1.8149,-8.7574,4.0222,0.9789,0.4219,1.4412
9.9600,2.5433,9.2445,-6.5115,-1.6893,-8.8147,3.9507,1.1038,0.3635,1.6040
9.9700,2.9710,9.7483,-6.3237,-1.5249,-8.8870,3.8542,1.1896,0.3897,1.7535
9.9800,2.7629,10.0604,-6.1437,-1.3450,-8.9599,3.7508,1.2461,0.4697,1.8931
9.9900,2.5981,10.4952,-6.0196,-1.1445,-9.0318,3.6430,1.2823,0.6883,2.0840
10.0000,3.1214,10.7792,-5.8609,-0.9105,-9.1010,3.5346,1.2849,1.1138,2.3517
10.0100,4.2052,11.0440,-5.6638,-0.6358,-9.1649,3.4270,1.2735,1.5169,2.6064
10.0200,4.3002,10.9349,-5.9001,-0.3348,-9.2217,3.3152,1.3206,1.5209,2.7453
10.0300,2.3568,9.1734,-6.6824,-0.0349,-9.2728,3.1870,1.5195,0.9484,2.7931
10.0400,-0.8394,6.4961,-7.8308,0.2337,-9.3225,3.0306,1.8462,-0.2650,2.6318
10.0500,-4.2241,4.4211,-9.2971,0.4182,-9.3753,2.8434,2.2460,-2.0329,1.9077
10.0600,-7.0692,1.3541,-11.1213,0.4871,-9.4372,2.6183,2.8196,-3.2720,1.1745
10.0700,-5.6408,-2.7341,-11.7297,0.5153,-9.5110,2.3271,3.6541,-2.9405,1.2152
10.0800,0.3774,-5.3276,-10.3350,0.6065,-9.5897,1.9464,4.5298,-1.8002,1.8231
10.0900,4.0909,-6.9578,-8.3450,0.8004,-9.6568,1.4823,5.1771,-0.6908,2.6648
10.1000,3.3853,-9.0555,-6.0205,1.0854,-9.6928,0.9746,5.0855,0.9531,3.1226
10.1100,-0.6212,-13.1621,-0.7898,1.3814,-9.6923,0.5109,3.7048,2.9988,2.6169
10.1200,-6.9215,-22.6136,8.2638,1.6052,-9.6713,0.1989,1.5095,4.2071,1.7295
10.1300,-10.0403,-34.8680,17.0579,1.7405,-9.6506,0.0688,-0.0226,3.5574,0.9488
10.1400,-9.2523,-40.8590,19.6051,1.8026,-9.6395,0.0279,0.1072,1.6058,0.3347
10.1500,-4.7486,-35.8008,14.3363,1.8127,-9.6373,-0.0534,1.2582,0.4540,-0.1239
10.1600,1.7259,-22.2729,8.0784,1.7701,-9.6417,-0.2415,2.3024,1.0387,-0.7549
10.1700,3.5997,-10.2265,6.6492,1.6567,-9.6503,-0.5176,2.7287,2.1545,-1.4047
10.1800,1.5053,-3.6552,7.1267,1.4952,-9.6563,-0.8137,2.5990,2.0352,-1.5251
10.1900,-0.5025,1.0391,6.0131,1.3592,-9.6526,-1.0655,2.1550,0.4642,-0.9790
10.2000,-0.9125,4.2785,4.3223,1.3031,-9.6403,-1.2380,1.4819,-1.2187,-0.3149
10.2100,-0.3373,6.2883,2.8508,1.3131,-9.6281,-1.3208,0.7017,-2.1169,0.0094
10.2200,0.1090,7.3944,1.6651,1.3435,-9.6234,-1.3252,0.0319,-2.2507,-0.0359
10.2300,0.0103,8.2695,1.6318,1.3578,-9.6280,-1.2759,-0.4296,-2.0539,-0.2672
10.2400,-0.1993,8.7275,2.0001,1.3497,-9.6400,-1.1898,-0.7750,-2.0607,-0.4039
10.2500,-0.1709,9.0161,3.2214,1.3362,-9.6558,-1.0706,-1.0669,-2.2796,-0.3641
10.2600,-0.0070,9.2220,4.7256,1.3286,-9.6718,-0.9254,-1.2590,-2.3481,-0.2844
10.2700,0.0242,9.3942,4.8645,1.3229,-9.6863,-0.7674,-1.3653,-2.1761,-0.2386
10.2800,-0.2099,9.6834,4.3784,1.3181,-9.6986,-0.6028,-1.4379,-2.0171,-0.1390
10.2900,0.0843,9.9083,3.8583,1.3210,-9.7071,-0.4373,-1.4186,-1.7018,-0.0007
10.3000,0.8120,10.2688,3.7974,1.3323,-9.7113,-0.2857,-1.3005,-1.0082,0.1162
10.3100,0.9340,10.6894,3.7440,1.3521,-9.7115,-0.1557,-1.1848,-0.3148,0.2461
10.3200,0.7038,11.0937,3.4160,1.3814,-9.7086,-0.0447,-1.0779,0.2386,0.3368
10.3300,0.6473,11.2527,3.1687,1.4143,-9.7039,0.0452,-0.8836,0.6528,0.3271
10.3400,0.3119,11.0415,1.7183,1.4441,-9.6991,0.1056,-0.5710,0.8960,0.2665
10.3500,-0.0175,10.8312,0.3056,1.4679,-9.6953,0.1282,-0.1815,1.0844,0.1955
10.3600,-0.0029,10.6513,-0.2729,1.4835,-9.6932,0.1058,0.2992,1.2468,0.0885
10.3700,-0.2032,9.8158,-1.7089,1.4843,-9.6935,0.0275,0.9056,1.3960,-0.1042
10.3800,-1.0026,8.1577,-3.1113,1.4607,-9.6962,-0.1112,1.4953,1.3906,-0.3776
10.3900,-2.5049,6.7476,-3.5997,1.4082,-9.7000,-0.2949,1.8607,1.1316,-0.6349
10.4000,-3.9126,6.3413,-3.2760,1.3357,-9.7021,-0.4943,1.9152,0.7511,-0.7623
10.4100,-4.1093,6.7174,-2.4708,1.2579,-9.7016,-0.6767,1.6267,0.4132,-0.7552
10.4200,-3.1527,7.8450,-1.0398,1.1863,-9.7003,-0.8148,1.0939,0.3067,-0.6581
10.4300,-1.1911,9.2848,0.5145,1.1210,-9.7005,-0.9012,0.6143,0.5239,-0.6377
10.4400,0.9807,9.8540,0.6025,1.0295,-9.7049,-0.9598,0.5799,-0.0279,-1.2452
10.4500,-2.1188,7.3931,-2.2607,0.8808,-9.7118,-1.0325,1.0365,-1.2009,-1.9023
10.4600,-6.8687,0.6434,-4.3510,0.7090,-9.7143,-1.1355,1.1504,-1.3275,-1.8852
10.4700,-6.5178,-9.3601,1.4150,0.5402,-9.7193,-1.1862,-0.2497,1.2266,-1.5765
10.4800,-1.9748,-25.6095,16.1268,0.3686,-9.7395,-1.0767,-2.0581,4.4112,-1.2486
10.4900,0.9871,-38.0594,22.6280,0.2118,-9.7641,-0.8801,-1.9609,4.8649,-1.0091
10.5000,1.8049,-30.2610,11.9526,0.0921,-9.7769,-0.7552,-0.7461,3.3662,-0.7047
10.5100,3.8269,-12.7337,2.9051,0.0282,-9.7806,-0.7140,-0.2383,0.7572,-0.2534
10.5200,0.8667,-2.3070,2.8848,0.0341,-9.7827,-0.6839,-0.4034,-2.0013,0.3063
10.5300,-2.2987,-0.1657,4.4929,0.1158,-9.7858,-0.6244,-0.7581,-3.8715,0.9669
10.5400,-1.8918,-0.6687,5.4089,0.2701,-9.7886,-0.5170,-1.2530,-4.9510,1.6523
10.5500,-2.0468,-1.3518,5.5177,0.4849,-9.7873,-0.3432,-1.8760,-5.5008,2.2161
10.5600,-1.7183,-2.3987,5.2648,0.7169,-9.7783,-0.0938,-2.5067,-5.2918,2.1331
10.5700,-2.1152,-4.4375,4.4332,0.8871,-9.7624,0.2175,-3.0031,-4.3525,1.2988
10.5800,-2.8766,-5.9757,3.4850,0.9548,-9.7425,0.5586,-3.1534,-3.5983,0.4071
10.5900,-4.9779,-8.1301,0.5021,0.9345,-9.7203,0.8873,-2.8341,-3.3735,-0.2974
10.6000,-7.6225,-9.7701,-2.6149,0.8370,-9.6999,1.1671,-2.2641,-3.4339,-0.9804
10.6100,-7.8285,-8.5632,-3.1379,0.6629,-9.6840,1.3891,-1.7686,-3.5539,-1.6554
10.6200,-7.2436,-7.5910,-5.2189,0.4130,-9.6729,1.5524,-1.2180,-2.6418,-2.5507
10.6300,-4.9502,-5.5595,-5.7596,0.0921,-9.6637,1.6557,-0.8118,-0.1649,-3.5647
10.6400,1.2880,-2.9105,-3.4532,-0.2597,-9.6459,1.7399,-0.8640,3.1287,-4.1109
10.6500,9.8425,-2.3560,-3.4911,-0.5679,-9.6118,1.8544,-0.9927,6.4391,-3.9903
10.6600,16.2183,-3.0407,-4.9287,-0.7840,-9.5681,1.9987,-0.8375,8.5704,-3.5645
10.6700,18.0653,-3.1133,-5.0439,-0.9134,-9.5282,2.1317,-0.4059,7.8967,-2.6984
10.6800,17.9072,-2.8381,-4.7639,-0.9597,-9.5058,2.2111,0.0114,5.0220,-1.1620
10.6900,13.1367,0.4985,-3.0579,-0.9158,-9.5047,2.2337,0.1830,2.0363,0.4012
10.7000,6.2353,5.3990,-1.3033,-0.8040,-9.5164,2.2264,0.1102,-0.2510,1.4723
10.7100,3.2194,7.7677,-1.0643,-0.6547,-9.5293,2.2199,-0.1244,-1.5567,2.0393
10.7200,1.3616,9.0912,-0.9550,-0.4893,-9.5357,2.2349,-0.3951,-1.9532,2.2099
10.7300,0.3081,9.6012,-1.0853,-0.3245,-9.5331,2.2756,-0.6047,-1.8021,2.1008
10.7400,-0.1917,9.8659,-1.7332,-0.1716,-9.5228,2.3346,-0.7023,-1.4981,1.8791
10.7500,-0.9153,10.4027,-3.1253,-0.0367,-9.5083,2.3991,-0.6565,-1.1783,1.5983
10.7600,-1.2954,10.8919,-4.7260,0.0794,-9.4943,2.4535,-0.4598,-0.6212,1.3052
10.7700,-0.7569,11.1698,-6.3292,0.1893,-9.4851,2.4827,-0.1350,0.3018,1.1042
10.7800,0.5155,11.1902,-8.0979,0.3132,-9.4835,2.4759,0.2221,1.3924,1.0771
10.7900,1.6933,11.0284,-9.7497,0.4726,-9.4881,2.4319,0.5214,2.4530,1.3020
10.8000,3.0223,10.4520,-10.0912,0.6861,-9.4947,2.3522,0.7884,3.2950,1.7228
10.8100,3.7022,9.1313,-8.9014,0.9526,-9.5002,2.2322,1.1212,3.7022,2.1381
10.8200,2.6431,7.5018,-7.1053,1.2506,-9.5033,2.0641,1.5652,3.5385,2.4153
10.8300,0.2999,5.9606,-5.5675,1.5486,-9.5043,1.8454,2.1301,2.5817,2.4916
10.8400,-3.1485,4.1920,-5.3468,1.8053,-9.5069,1.5804,2.8538,0.7878,2.1317
10.8500,-6.5119,1.1496,-6.3890,1.9768,-9.5182,1.2797,3.6136,-1.5937,1.5449
10.8600,-8.9155,-2.9975,-6.7369,2.0828,-9.5332,0.9606,4.1804,-3.7028,1.3450
10.8700,-8.9883,-5.0657,-5.1294,2.1801,-9.5388,0.6315,4.5544,-4.6124,1.3593
10.8800,-7.5684,-6.6114,-3.3187,2.2770,-9.5325,0.2917,4.3222,-3.3048,1.0240
10.8900,-6.6559,-13.3434,1.5212,2.3400,-9.5222,-0.0273,2.9500,0.4459,0.4137
10.9000,-5.2980,-25.9262,11.2267,2.3522,-9.5154,-0.2867,1.2027,4.7902,0.0896
10.9100,-2.0274,-36.5535,18.1162,2.3328,-9.5110,-0.5076,0.6439,6.8825,0.0295
10.9200,0.7605,-32.8404,13.2106,2.2866,-9.5046,-0.7627,1.8250,5.1160,-0.2333
10.9300,3.5240,-18.4321,7.0607,2.2257,-9.4875,-1.0827,3.1958,1.4774,-0.4285
10.9400,7.2387,-6.6287,8.7501,2.1959,-9.4528,-1.4038,3.3349,-1.1001,-0.1868
10.9500,7.4357,-0.5643,11.2594,2.2252,-9.4070,-1.6483,2.5097,-2.0075,0.2610
10.9600,4.1141,1.2622,12.5391,2.3005,-9.3638,-1.7871,1.3675,-1.8240,0.5818
10.9700,-0.2365,0.8598,11.2220,2.3841,-9.3338,-1.8343,0.4424,-1.1836,0.5794
10.9800,-3.5354,0.2157,8.0609,2.4435,-9.3191,-1.8313,0.0279,-0.6522,0.3150
10.9900,-4.2250,0.0167,5.6241,2.4659,-9.3153,-1.8208,0.0126,-0.2454,-0.0111
11.0000,-3.2096,0.4160,4.9093,2.4523,-9.3178,-1.8261,0.1093,0.1949,-0.2726
11.0100,-2.6153,0.8533,4.9824,2.4121,-9.3241,-1.8472,0.1610,0.4449,-0.4333
11.0200,-2.7902,1.1399,5.4298,2.3620,-9.3322,-1.8708,0.1352,0.2803,-0.4624
11.0300,-2.5397,1.8674,6.3510,2.3215,-9.3405,-1.8803,0.0158,-0.1351,-0.3533
11.0400,-1.6536,2.6998,7.1348,2.3040,-9.3478,-1.8656,-0.1742,-0.4968,-0.1447
11.0500,-1.3179,3.4168,7.3678,2.3109,-9.3538,-1.8263,-0.3701,-0.6517,0.0512
11.0600,-1.8776,4.1023,6.9847,2.3328,-9.3596,-1.7678,-0.5349,-0.6887,0.1373
11.0700,-2.4479,4.8357,6.3436,2.3553,-9.3673,-1.6956,-0.6632,-0.6385,0.0841
11.0800,-2.4942,5.3391,5.6333,2.3674,-9.3786,-1.6142,-0.7520,-0.5784,-0.0411
11.0900,-2.2707,5.6064,4.9253,2.3681,-9.3933,-1.5252,-0.8186,-0.6706,-0.1423
11.1000,-1.7972,5.8343,4.2749,2.3637,-9.4100,-1.4260,-0.8869,-0.8846,-0.1819
11.1100,-1.4824,5.9297,3.8844,2.3603,-9.4270,-1.3139,-0.9768,-1.1241,-0.1731
11.1200,-1.4052,5.8925,3.4473,2.3603,-9.4439,-1.1862,-1.0978,-1.3344,-0.1509
11.1300,-1.4190,5.6494,2.5356,2.3627,-9.4602,-1.0425,-1.2023,-1.5045,-0.1345
11.1400,-1.6203,4.8498,1.4062,2.3624,-9.4762,-0.8858,-1.3021,-1.5709,-0.1879
11.1500,-1.7903,3.6190,0.6475,2.3497,-9.4935,-0.7180,-1.4007,-1.5334,-0.3271
11.1600,-1.9592,2.7125,-0.0149,2.3189,-9.5125,-0.5450,-1.4323,-1.4901,-0.4963
11.1700,-2.1163,2.3544,-1.1627,2.2709,-9.5323,-0.3742,-1.3999,-1.4687,-0.6318
11.1800,-1.9354,2.2470,-2.1630,2.2110,-9.5514,-0.2105,-1.3031,-1.4575,-0.6889
11.1900,-1.4260,2.1913,-3.0067,2.1476,-9.5681,-0.0615,-1.1353,-1.3705,-0.6533
11.2000,-0.5810,2.2536,-3.7586,2.0902,-9.5809,0.0632,-0.8809,-1.1330,-0.5266
11.2100,0.4849,2.3428,-4.4288,2.0477,-9.5892,0.1529,-0.5664,-0.7271,-0.3280
11.2200,1.5512,2.3457,-4.7444,2.0259,-9.5929,0.2028,-0.2693,-0.2023,-0.1082
11.2300,2.3016,2.0850,-4.2747,2.0232,-9.5932,0.2159,-0.0305,0.2959,0.0382
11.2400,2.2586,1.6238,-3.3662,2.0288,-9.5924,0.2005,0.1483,0.6075,0.0403
11.2500,1.3205,1.3252,-2.4492,2.0276,-9.5933,0.1670,0.2805,0.5816,-0.0961
11.2600,-0.1529,1.2935,-1.6060,2.0095,-9.5977,0.1283,0.3410,0.2147,-0.2905
11.2700,-1.4114,1.5913,-0.6352,1.9730,-9.6056,0.0958,0.3451,-0.2887,-0.4607
11.2800,-2.0172,2.0504,0.1477,1.9221,-9.6161,0.0733,0.3236,-0.6995,-0.5736
11.2900,-1.8726,2.5006,1.0299,1.8629,-9.6278,0.0598,0.2816,-0.9297,-0.6287
11.3000,-1.5837,2.7247,1.6420,1.7999,-9.6399,0.0530,0.2266,-0.9878,-0.6590
11.3100,-0.9952,2.5645,2.0206,1.7331,-9.6521,0.0511,0.1646,-0.9170,-0.7102
11.3200,-0.2549,1.9867,2.6565,1.6596,-9.6650,0.0534,0.0953,-0.8309,-0.7979
11.3300,0.2184,0.6433,3.1874,1.5750,-9.6790,0.0612,0.0236,-0.8339,-0.9382
11.3400,0.5608,-0.2804,3.4521,1.4762,-9.6945,0.0735,-0.0024,-0.8077,-1.0620
11.3500,3.9348,-3.6989,4.0962,1.3755,-9.7093,0.0801,0.0700,-0.3993,-0.9486
11.3600,8.2635,-8.1953,4.4502,1.3015,-9.7196,0.0669,0.2157,0.4163,-0.5398
11.3700,7.7752,-10.1587,3.3464,1.2707,-9.7239,0.0276,0.3761,1.1567,-0.1153
11.3800,3.3752,-11.2122,1.9655,1.2714,-9.7238,-0.0310,0.4740,1.3191,0.1070
11.3900,-1.3213,-10.6786,1.6782,1.2850,-9.7217,-0.0882,0.3826,0.8975,0.1824
11.4000,-2.9331,-8.6461,2.3761,1.3027,-9.7190,-0.1204,0.0970,0.5039,0.1968
11.4100,-2.4297,-5.5883,2.3602,1.3207,-9.7165,-0.1217,-0.1746,0.4390,0.1824
11.4200,-1.9612,-2.4473,1.2658,1.3384,-9.7143,-0.1056,-0.2450,0.4248,0.1994
11.4300,-1.8288,-1.0267,0.5936,1.3609,-9.7113,-0.0910,-0.1321,0.2337,0.2711
11.4400,-2.3623,1.0222,0.2490,1.3909,-9.7071,-0.0856,0.0070,-0.1771,0.3429
11.4500,-3.0761,3.3549,0.3151,1.4271,-9.7019,-0.0811,0.0135,-0.7270,0.3935
11.4600,-3.4052,3.6315,0.8775,1.4689,-9.6958,-0.0609,-0.1342,-1.2848,0.4550
11.4700,-3.8253,3.4922,0.9052,1.5173,-9.6885,-0.0144,-0.3385,-1.8034,0.5318
11.4800,-4.3101,3.1284,0.6227,1.5717,-9.6796,0.0598,-0.5106,-2.3013,0.5992
11.4900,-4.5654,2.4839,0.3902,1.6282,-9.6691,0.1547,-0.5730,-2.7104,0.6306
11.5000,-4.6466,2.0634,0.2602,1.6827,-9.6576,0.2568,-0.5397,-2.9399,0.6162
11.5100,-4.6702,1.7164,0.3396,1.7295,-9.6461,0.3586,-0.4911,-2.9713,0.5454
11.5200,-4.6942,1.0419,0.7636,1.7619,-9.6361,0.4570,-0.4485,-2.8618,0.3905
11.5300,-4.7680,0.3110,1.3283,1.7724,-9.6295,0.5484,-0.3970,-2.6634,0.1207
11.5400,-4.7319,-0.4888,1.7675,1.7494,-9.6289,0.6269,-0.2873,-2.3046,-0.2935
11.5500,-4.3901,-1.2130,1.9162,1.6821,-9.6371,0.6818,-0.1134,-1.6315,-0.8127
11.5600,-3.4848,-1.4684,1.7924,1.5713,-9.6541,0.7036,0.0571,-0.5866,-1.2645
11.5700,-1.8923,-0.8416,1.5559,1.4340,-9.6759,0.6973,0.0849,0.6271,-1.4917
11.5800,-0.3479,0.0586,1.4824,1.2939,-9.6968,0.6803,-0.0246,1.6379,-1.4747
11.5900,0.3411,0.4403,1.2544,1.1685,-9.7139,0.6641,-0.0899,2.2479,-1.3120
11.6000,0.3316,0.3572,0.4805,1.0629,-9.7274,0.6454,-0.0303,2.4648,-1.1353
11.6100,0.0690,0.1119,-0.1843,0.9717,-9.7386,0.6192,0.0823,2.3596,-1.0234
11.6200,-0.1426,0.0828,-0.2196,0.8863,-9.7487,0.5871,0.1674,2.0793,-0.9726
11.6300,-0.0581,0.2027,0.0737,0.8036,-9.7579,0.5527,0.2207,1.7366,-0.9034
11.6400,0.2805,0.1745,0.3782,0.7285,-9.7657,0.5191,0.2306,1.4060,-0.7704
11.6500,0.7393,0.0987,0.7242,0.6674,-9.7716,0.4893,0.2096,1.1545,-0.5784
11.6600,1.1550,0.0731,1.0541,0.6254,-9.7756,0.4658,0.1431,0.9657,-0.3577
11.6700,1.2132,0.1405,1.2639,0.6056,-9.7774,0.4538,0.0500,0.8227,-0.1846
11.6800,1.1089,0.2146,1.3366,0.6014,-9.7778,0.4517,0.0119,0.7671,-0.1223
11.6900,0.4527,0.3703,1.2481,0.5989,-9.7779,0.4521,-0.0747,0.6400,0.0185
11.7000,-0.3801,0.3785,0.9314,0.6089,-9.7768,0.4622,-0.1743,0.5004,0.1482
11.7100,-0.7590,0.2549,0.5045,0.6294,-9.7746,0.4813,-0.2509,0.3750,0.2356
11.7200,-1.1172,0.2307,0.0867,0.6552,-9.7715,0.5079,-0.3214,0.2297,0.2586
11.7300,-1.5696,0.1241,-0.2982,0.6772,-9.7681,0.5435,-0.4072,0.0313,0.1752
11.7400,-1.7642,-0.0100,-0.5585,0.6880,-9.7649,0.5860,-0.4308,-0.1290,0.0604
11.7500,-1.3487,-0.4510,-0.8741,0.6897,-9.7623,0.6259,-0.3327,-0.1317,0.0144
11.7600,-0.6790,-0.8792,-1.0258,0.6917,-9.7605,0.6511,-0.1524,0.0615,0.0597
11.7700,-0.4921,-1.0660,-0.4543,0.7028,-9.7593,0.6580,-0.0163,0.3922,0.1508
11.7800,-0.8303,-1.4012,0.2039,0.7230,-9.7579,0.6562,-0.0219,0.7112,0.1965
11.7900,-1.5785,-1.1470,0.1418,0.7432,-9.7562,0.6590,-0.1290,0.8353,0.1196
11.8000,-2.2649,-0.6011,-0.5763,0.7501,-9.7548,0.6715,-0.1978,0.6800,-0.0626
11.8100,-2.2648,-0.5564,-1.2184,0.7379,-9.7547,0.6865,-0.1473,0.3651,-0.2219
11.8200,-1.7079,-0.6499,-1.4084,0.7129,-9.7560,0.6943,-0.0133,0.0875,-0.2791
11.8300,-1.0591,-0.3125,-1.1581,0.6853,-9.7583,0.6896,0.1296,-0.0197,-0.2565
11.8400,-0.5708,0.2865,-0.5535,0.6618,-9.7611,0.6733,0.2129,0.0902,-0.2042
11.8500,-0.3943,0.6414,0.1566,0.6445,-9.7638,0.6510,0.2311,0.3309,-0.1518
11.8600,-0.5000,0.6423,0.7872,0.6329,-9.7660,0.6277,0.2033,0.5547,-0.1197
11.8700,-0.8262,0.0973,1.3824,0.6235,-9.7678,0.6105,0.0830,0.6431,-0.1268
11.8800,-1.0478,-0.3712,1.6762,0.6117,-9.7687,0.6066,-0.0574,0.4949,-0.1770
11.8900,-1.3078,-0.9811,1.8215,0.5926,-9.7694,0.6145,-0.1261,0.1948,-0.2415
11.9000,-1.4613,-0.5517,1.7567,0.5661,-9.7699,0.6310,-0.2063,-0.0430,-0.2807
11.9100,-1.0889,1.3841,1.2479,0.5369,-9.7697,0.6596,-0.3524,-0.1447,-0.2774
11.9200,-0.6274,2.2015,0.6619,0.5099,-9.7680,0.7036,-0.4948,-0.1496,-0.2225
11.9300,-0.2295,1.5065,-0.0215,0.4904,-9.7651,0.7558,-0.5172,-0.0943,-0.1367
11.9400,0.0285,0.1917,-0.7148,0.4802,-9.7619,0.8031,-0.4194,-0.0050,-0.0541
11.9500,0.0747,-0.9797,-1.0958,0.4782,-9.7590,0.8386,-0.2996,0.1043,0.0122
11.9600,0.0634,-1.6437,-1.1090,0.4823,-9.7566,0.8641,-0.2267,0.2351,0.0530
11.9700,0.0200,-1.7119,-0.9351,0.4900,-9.7543,0.8855,-0.2275,0.3525,0.0663
11.9800,-0.1273,-1.3822,-0.8221,0.4985,-9.7517,0.9090,-0.2660,0.4148,0.0565
11.9900,-0.2967,-1.0325,-0.9052,0.5060,-9.7489,0.9345,-0.2725,0.4162,0.0340
12.0000,-0.3910,-0.7097,-1.0720,0.5115,-9.7463,0.9584,-0.2407,0.3600,0.0165
12.0100,-0.3725,-0.4494,-1.1239,0.5155,-9.7441,0.9784,-0.1902,0.2706,0.0141
12.0200,-0.2285,-0.3549,-0.9871,0.5196,-9.7423,0.9937,-0.1389,0.1816,0.0351
12.0300,-0.0142,-0.2702,-0.7222,0.5264,-9.7408,1.0050,-0.1040,0.1079,0.0852
12.0400,0.1928,-0.0658,-0.3800,0.5384,-9.7392,1.0142,-0.0887,0.0622,0.1524
12.0500,0.3023,0.3098,-0.0132,0.5569,-9.7372,1.0233,-0.0984,0.0418,0.2189
12.0600,0.2468,0.7674,0.2695,0.5809,-9.7346,1.0343,-0.1241,0.0147,0.2690
12.0700,-0.1674,1.0539,0.3738,0.6074,-9.7314,1.0491,-0.1611,-0.0373,0.2863
12.0800,-0.6716,1.0061,0.2987,0.6329,-9.7278,1.0677,-0.1775,-0.1066,0.2697
12.0900,-0.8922,0.8746,0.3143,0.6546,-9.7243,1.0863,-0.1646,-0.1293,0.2155
12.1000,-0.9785,0.8290,0.5812,0.6694,-9.7213,1.1036,-0.1648,-0.0488,0.1245
12.1100,-1.0292,0.6863,0.9387,0.6757,-9.7188,1.1220,-0.2039,0.1008,0.0125
12.1200,-1.1158,0.2676,1.1470,0.6725,-9.7164,1.1447,-0.2754,0.2424,-0.1090
12.1300,-1.1330,-0.4661,1.0495,0.6590,-9.7137,1.1745,-0.3651,0.3004,-0.2216
12.1400,-0.8386,-1.1728,0.6023,0.6353,-9.7105,1.2131,-0.4461,0.2810,-0.3175
12.1500,-0.0412,-1.2956,-0.1095,0.6038,-9.7070,1.2565,-0.4437,0.2789,-0.3737
12.1600,1.0063,-0.6954,-0.6256,0.5710,-9.7041,1.2942,-0.3418,0.3644,-0.3549
12.1700,1.7785,0.0110,-0.5415,0.5453,-9.7021,1.3197,-0.2177,0.5324,-0.2666
12.1800,2.0524,0.3231,-0.0330,0.5329,-9.7008,1.3347,-0.1540,0.7181,-0.1422
12.1900,1.7729,0.3196,0.3730,0.5348,-9.6989,1.3477,-0.1939,0.7962,-0.0170
12.2000,1.1482,0.0937,0.3675,0.5477,-9.6953,1.3679,-0.2889,0.6838,0.0810
12.2100,0.5684,-0.1820,0.0651,0.5653,-9.6901,1.3975,-0.3603,0.4117,0.1311
12.2200,0.2546,-0.2700,-0.2930,0.5812,-9.6839,1.4336,-0.3891,0.0639,0.1375
12.2300,0.2387,-0.2368,-0.5174,0.5919,-9.6773,1.4728,-0.3857,-0.2721,0.1288
12.2400,0.2990,-0.2195,-0.5938,0.5974,-9.6708,1.5131,-0.3871,-0.5190,0.1177
12.2500,0.5277,-0.0356,-0.5730,0.5987,-9.6639,1.5555,-0.3995,-0.6379,0.1106
12.2600,0.8098,0.2000,-0.6208,0.5987,-9.6568,1.5994,-0.4057,-0.6433,0.1216
12.2700,0.8026,0.2453,-0.7676,0.6015,-9.6492,1.6432,-0.4060,-0.5983,0.1618
12.2800,0.7375,0.2382,-0.8466,0.6103,-9.6412,1.6864,-0.4039,-0.5514,0.2245
12.2900,0.6490,0.2088,-0.9331,0.6256,-9.6328,1.7286,-0.3886,-0.5235,0.2867
12.3000,0.4253,0.0982,-1.0610,0.6461,-9.6241,1.7688,-0.3593,-0.5067,0.3317
12.3100,0.2134,0.0427,-1.1491,0.6697,-9.6157,1.8057,-0.3249,-0.4807,0.3502
12.3200,0.0641,0.0910,-1.1612,0.6942,-9.6077,1.8383,-0.2697,-0.4547,0.3420
12.3300,-0.1062,0.1840,-1.1615,0.7171,-9.6009,1.8649,-0.2052,-0.4275,0.3099
12.3400,-0.2417,0.2853,-1.1213,0.7365,-9.5954,1.8860,-0.1668,-0.3913,0.2622
12.3500,-0.2778,0.1959,-0.8911,0.7518,-9.5902,1.9059,-0.1830,-0.3519,0.2146
12.3600,-0.2266,-0.0940,-0.5714,0.7637,-9.5847,1.9287,-0.2231,-0.3255,0.1798
12.3700,-0.1554,-0.4769,-0.4268,0.7732,-9.5790,1.9531,-0.2167,-0.3020,0.1530
12.3800,-0.0831,-0.7170,-0.5254,0.7806,-9.5742,1.9737,-0.1539,-0.2418,0.1237
12.3900,0.0650,-0.4920,-0.5970,0.7873,-9.5711,1.9863,-0.0652,-0.1092,0.1001
12.4000,0.2638,0.1298,-0.5315,0.7957,-9.5699,1.9886,0.0295,0.0708,0.0974
12.4100,0.3399,0.5887,-0.4016,0.8085,-9.5703,1.9816,0.0930,0.2252,0.1201
12.4200,0.2218,0.5971,-0.1443,0.8268,-9.5710,1.9702,0.0980,0.3239,0.1546
12.4300,-0.0085,0.4128,0.0808,0.8492,-9.5713,1.9592,0.0751,0.3588,0.1714
12.4400,-0.3097,0.1643,0.0754,0.8709,-9.5712,1.9501,0.0576,0.3230,0.1404
12.4500,-0.5636,-0.1359,0.1961,0.8862,-9.5712,1.9437,0.0301,0.2328,0.0692
12.4600,-0.5110,-0.1924,0.4688,0.8924,-9.5710,1.9415,-0.0090,0.1055,0.0011
12.4700,-0.1213,-0.0138,0.6595,0.8912,-9.5706,1.9443,-0.0495,-0.0346,-0.0259
12.4800,0.1339,0.0691,0.7589,0.8874,-9.5693,1.9521,-0.0912,-0.1456,-0.0049
12.4900,0.5684,0.2680,0.5445,0.8852,-9.5672,1.9636,-0.1063,-0.1937,0.0404
12.5000,1.0452,0.2370,0.2777,0.8870,-9.5646,1.9756,-0.0952,-0.1942,0.0899
12.5100,1.0015,-0.0949,0.1129,0.8935,-9.5617,1.9864,-0.0880,-0.1843,0.1282
12.5200,0.7386,-0.1415,-0.1349,0.9026,-9.5587,1.9966,-0.0835,-0.1747,0.1408
12.5300,0.4236,-0.0705,-0.2631,0.9119,-9.5559,2.0059,-0.0705,-0.1581,0.1318
12.5400,0.1591,-0.0789,-0.1899,0.9205,-9.5534,2.0136,-0.0554,-0.1378,0.1181
12.5500,-0.0660,-0.1351,-0.0424,0.9285,-9.5512,2.0205,-0.0548,-0.1305,0.1149
12.5600,-0.2165,-0.1153,0.0048,0.9370,-9.5489,2.0274,-0.0543,-0.1237,0.1242
12.5700,-0.3129,-0.0081,-0.0180,0.9468,-9.5467,2.0333,-0.0382,-0.0916,0.1345
12.5800,-0.3942,0.1544,0.0676,0.9583,-9.5448,2.0370,-0.0188,-0.0273,0.1379
12.5900,-0.4591,0.3354,0.2566,0.9714,-9.5432,2.0383,-0.0048,0.0708,0.1309
12.6000,-0.5153,0.3855,0.5119,0.9854,-9.5418,2.0379,-0.0086,0.1787,0.1116
12.6100,-0.5964,0.2888,0.6387,0.9990,-9.5403,2.0382,-0.0388,0.2463,0.0837
12.6200,-0.6623,0.1201,0.5145,1.0102,-9.5385,2.0414,-0.0734,0.2452,0.0467
12.6300,-0.5717,-0.0331,0.2845,1.0169,-9.5364,2.0476,-0.0970,0.1913,0.0044
12.6400,-0.2880,-0.0252,0.0045,1.0184,-9.5344,2.0562,-0.1115,0.1290,-0.0374
12.6500,-0.1031,0.0386,-0.1659,1.0153,-9.5327,2.0657,-0.1067,0.0955,-0.0721
12.6600,0.0880,0.1511,-0.3449,1.0097,-9.5316,2.0736,-0.0726,0.1032,-0.0814
12.6700,0.4070,0.2412,-0.6237,1.0050,-9.5314,2.0766,-0.0090,0.1456,-0.0603
12.6800,0.5952,0.1325,-0.7216,1.0047,-9.5324,2.0720,0.0692,0.2113,-0.0171
12.6900,0.6186,0.0044,-0.5916,1.0108,-9.5346,2.0594,0.1426,0.2953,0.0382
12.7000,0.5174,0.0338,-0.3196,1.0237,-9.5374,2.0396,0.1931,0.3924,0.0850
12.7100,0.3305,0.1253,0.0155,1.0417,-9.5405,2.0161,0.1976,0.4886,0.0982
12.7200,0.0481,0.2082,0.3235,1.0606,-9.5431,1.9935,0.1564,0.5465,0.0771
12.7300,-0.2578,0.1861,0.4371,1.0772,-9.5451,1.9752,0.1079,0.5349,0.0440
12.7400,-0.4159,-0.0309,0.3656,1.0899,-9.5465,1.9611,0.0760,0.4729,0.0152
12.7500,-0.3153,-0.1666,0.2319,1.0990,-9.5478,1.9500,0.0612,0.4054,-0.0008
12.7600,-0.0652,-0.1802,0.1283,1.1062,-9.5490,1.9398,0.0672,0.3745,-0.0012
12.7700,0.2026,-0.2294,0.1765,1.1141,-9.5503,1.9288,0.0749,0.3930,0.0147
12.7800,0.3717,-0.3059,0.3959,1.1244,-9.5514,1.9173,0.0710,0.4316,0.0361
12.7900,0.3472,-0.4059,0.5907,1.1367,-9.5523,1.9056,0.0741,0.4401,0.0450
12.8000,0.1620,-0.4352,0.6563,1.1484,-9.5532,1.8939,0.0725,0.3924,0.0336
12.8100,-0.0334,-0.2569,0.6209,1.1569,-9.5542,1.8839,0.0581,0.3067,0.0097
12.8200,-0.1094,0.0043,0.4434,1.1614,-9.5552,1.8760,0.0500,0.2087,-0.0085
12.8300,-0.0509,0.1752,0.1939,1.1637,-9.5562,1.8697,0.0498,0.1246,0.0001
12.8400,0.1286,0.1232,-0.0314,1.1662,-9.5571,1.8632,0.0755,0.0765,0.0229
12.8500,0.2625,0.0044,0.0044,1.1702,-9.5585,1.8538,0.1087,0.0744,0.0393
12.8600,0.2185,-0.0105,0.1884,1.1759,-9.5597,1.8436,0.0782,0.0881,0.0510
12.8700,0.0776,-0.1827,0.0554,1.1823,-9.5599,1.8389,0.0085,0.0697,0.0542
12.8800,0.0168,-0.4535,-0.3162,1.1880,-9.5592,1.8388,0.0001,0.0344,0.0531
12.8900,0.1207,-0.3514,-0.6074,1.1938,-9.5589,1.8366,0.0458,0.0372,0.0622
12.9000,0.1924,0.0181,-0.6857,1.2014,-9.5590,1.8308,0.0571,0.0882,0.0771
12.9100,0.0759,0.1050,-0.6510,1.2109,-9.5589,1.8254,0.0348,0.1289,0.0814
12.9200,-0.0681,-0.0886,-0.5172,1.2209,-9.5583,1.8218,0.0142,0.1215,0.0827
12.9300,-0.1562,-0.4452,-0.2895,1.2306,-9.5574,1.8201,0.0041,0.0534,0.0901
12.9400,-0.1092,-0.4278,-0.1652,1.2401,-9.5561,1.8205,-0.0085,-0.0146,0.1015
12.9500,-0.0513,0.1465,-0.3778,1.2491,-9.5547,1.8214,0.0055,-0.0343,0.0997
12.9600,-0.0770,0.3112,-0.5404,1.2572,-9.5540,1.8197,0.0453,-0.0413,0.0868
12.9700,-0.0338,0.0430,-0.3184,1.2644,-9.5539,1.8150,0.0653,-0.0430,0.0851
12.9800,0.0047,-0.3234,-0.0124,1.2718,-9.5541,1.8091,0.0716,-0.0247,0.0888
12.9900,-0.0044,-0.7701,0.2803,1.2802,-9.5542,1.8026,0.0741,-0.0066,0.0964
13.0000,0.2109,-0.3919,0.5324,1.2918,-9.5541,1.7947,0.0756,0.1347,0.1261
13.0100,0.4324,0.1849,0.6392,1.3080,-9.5536,1.7857,0.0408,0.3661,0.1096
13.0200,-0.2160,0.5394,0.2851,1.3212,-9.5529,1.7794,-0.0108,0.3913,0.0180
13.0300,-0.8538,0.8945,-0.0738,1.3240,-9.5528,1.7778,-0.0341,0.2165,-0.0680
13.0400,-0.6878,0.8924,-0.1458,1.3174,-9.5533,1.7802,-0.0483,0.0373,-0.1055
13.0500,-0.2166,0.8315,-0.2073,1.3074,-9.5536,1.7858,-0.0612,-0.0506,-0.0905
13.0600,0.2717,0.6156,-0.1919,1.2995,-9.5535,1.7924,-0.0557,-0.0495,-0.0483
13.0700,0.4820,0.2645,-0.2184,1.2970,-9.5529,1.7972,-0.0391,0.0497,0.0042
13.0800,0.4935,-0.0932,-0.3330,1.3027,-9.5521,1.7977,-0.0092,0.2629,0.0572
13.0900,0.3391,-0.4459,-0.5061,1.3159,-9.5513,1.7918,0.0359,0.4549,0.0771
13.1000,-0.0493,-0.8700,-0.5528,1.3304,-9.5516,1.7799,0.0851,0.4543,0.0452
13.1100,-0.3721,-0.9675,-0.3249,1.3385,-9.5532,1.7651,0.1097,0.3260,-0.0217
13.1200,-0.2799,-0.5182,0.0883,1.3372,-9.5557,1.7522,0.0819,0.1868,-0.0940
13.1300,-0.0013,0.0393,0.3757,1.3279,-9.5582,1.7458,0.0236,0.0381,-0.1313
13.1400,0.1982,0.3823,0.3206,1.3148,-9.5599,1.7465,-0.0234,-0.0956,-0.1194
13.1500,0.3443,0.4523,0.1007,1.3031,-9.5606,1.7515,-0.0385,-0.1543,-0.0662
13.1600,0.4716,0.4345,-0.1225,1.2977,-9.5600,1.7585,-0.0646,-0.1467,0.0129
13.1700,0.4649,0.1424,-0.2159,1.2998,-9.5575,1.7705,-0.1424,-0.1723,0.0893
13.1800,0.2469,-0.8243,-0.0134,1.3079,-9.5522,1.7930,-0.2577,-0.3069,0.1662
13.1900,0.0641,-1.8714,0.3925,1.3192,-9.5437,1.8294,-0.3822,-0.4899,0.2178
13.2000,0.0655,-2.0680,0.7771,1.3293,-9.5327,1.8787,-0.4803,-0.6286,0.2094
13.2100,0.1392,-1.4443,0.8087,1.3344,-9.5204,1.9366,-0.5356,-0.6982,0.1629
13.2200,0.2866,-0.3759,0.4085,1.3331,-9.5077,1.9991,-0.5727,-0.6825,0.0973
13.2300,0.4041,0.2468,0.1004,1.3258,-9.4946,2.0652,-0.6306,-0.6306,0.0325
13.2400,0.2572,0.0492,-0.2418,1.3135,-9.4801,2.1382,-0.7331,-0.6204,-0.0055
13.2500,0.1698,-0.3475,-0.5707,1.2989,-9.4626,2.2226,-0.8686,-0.6417,-0.0022
13.2600,0.2844,-0.6234,-0.6413,1.2854,-9.4409,2.3206,-1.0098,-0.6778,0.0438
13.2700,0.3823,-0.4723,-0.7901,1.2760,-9.4145,2.4302,-1.1067,-0.6831,0.1036
13.2800,0.4349,-0.0793,-1.0708,1.2718,-9.3851,2.5436,-1.0987,-0.6057,0.1467
13.2900,0.2990,0.3143,-1.5480,1.2720,-9.3561,2.6484,-0.9551,-0.4809,0.1514
13.3000,0.0615,0.7590,-2.2259,1.2738,-9.3323,2.7302,-0.6537,-0.3466,0.1226
13.3100,-0.0129,1.1350,-2.4268,1.2765,-9.3183,2.7767,-0.2550,-0.2161,0.1077
13.3200,0.0491,1.3909,-1.4828,1.2833,-9.3144,2.7867,0.0654,-0.0727,0.1304
13.3300,-0.0365,1.3892,-0.1934,1.2975,-9.3165,2.7729,0.2078,0.0752,0.1750
13.3400,-0.1735,1.2862,0.3446,1.3185,-9.3201,2.7508,0.2194,0.1566,0.1963
13.3500,-0.6173,0.9797,0.3577,1.3400,-9.3233,2.7297,0.1867,0.1399,0.1682
13.3600,-0.8926,0.5314,0.3589,1.3562,-9.3259,2.7126,0.1531,0.0768,0.1148
13.3700,-0.7389,0.3926,0.3642,1.3659,-9.3284,2.6992,0.1180,0.0506,0.0574
13.3800,-0.3512,0.2372,0.3589,1.3706,-9.3307,2.6889,0.0860,0.0746,0.0116
13.3900,0.1998,0.0026,0.3369,1.3732,-9.3326,2.6811,0.0538,0.1119,-0.0071
13.4000,0.3886,-0.0915,0.2925,1.3757,-9.3336,2.6762,0.0135,0.1248,-0.0041
13.4100,0.3783,-0.0395,0.1779,1.3783,-9.3335,2.6753,-0.0219,0.0938,0.0076
13.4200,0.3391,0.0287,0.0969,1.3793,-9.3332,2.6758,-0.0352,0.0691,0.0134
13.4300,0.2401,0.1335,-0.1201,1.3815,-9.3319,2.6793,-0.0594,-0.0078,0.0253
13.4400,0.1800,0.1688,-0.2604,1.3828,-9.3296,2.6865,-0.0753,-0.1056,0.0357
13.4500,0.1468,0.1095,-0.3233,1.3827,-9.3269,2.6958,-0.0775,-0.1824,0.0487
13.4600,0.0993,-0.0211,-0.3419,1.3827,-9.3242,2.7050,-0.0557,-0.2154,0.0693
13.4700,0.0465,-0.1372,-0.2402,1.3845,-9.3219,2.7122,-0.0326,-0.2209,0.1008
13.4800,-0.0542,-0.1172,-0.1082,1.3896,-9.3196,2.7173,-0.0135,-0.1764,0.1229
13.4900,-0.1009,-0.0863,-0.0723,1.3972,-9.3180,2.7189,0.0169,-0.0607,0.1071
13.5000,-0.1434,-0.1280,-0.1765,1.4050,-9.3175,2.7165,0.0292,0.0594,0.0589
13.5100,-0.2748,-0.1613,-0.2654,1.4108,-9.3178,2.7128,0.0180,0.1514,0.0050
13.5200,-0.2936,-0.3196,-0.2839,1.4144,-9.3182,2.7093,0.0025,0.2095,-0.0307
13.5300,-0.1346,-0.5366,-0.2453,1.4167,-9.3187,2.7065,-0.0097,0.2239,-0.0439
13.5400,0.0536,-0.5507,-0.2023,1.4182,-9.3191,2.7045,-0.0060,0.2018,-0.0474
13.5500,0.1654,-0.2980,-0.3197,1.4188,-9.3196,2.7023,0.0029,0.1508,-0.0387
13.5600,0.2733,-0.0584,-0.3687,1.4197,-9.3200,2.7006,-0.0031,0.0845,-0.0064
13.5700,0.4086,-0.0187,-0.2196,1.4222,-9.3196,2.7004,-0.0091,0.0243,0.0277
13.5800,0.3751,0.0505,-0.2295,1.4256,-9.3189,2.7013,-0.0074,-0.0243,0.0453
13.5900,0.2074,0.2133,-0.3521,1.4292,-9.3178,2.7029,-0.0169,-0.0532,0.0563
13.6000,0.0975,0.2211,-0.3114,1.4334,-9.3161,2.7067,-0.0457,-0.0580,0.0671
13.6100,-0.0277,-0.0099,-0.1701,1.4383,-9.3133,2.7137,-0.0891,-0.0560,0.0723
13.6200,-0.2020,-0.1077,-0.2351,1.4430,-9.3093,2.7250,-0.1283,-0.0699,0.0652
13.6300,-0.3366,0.0675,-0.5271,1.4456,-9.3048,2.7388,-0.1318,-0.0988,0.0369
13.6400,-0.3223,0.1255,-0.5873,1.4442,-9.3012,2.7519,-0.1083,-0.1174,-0.0000
13.6500,-0.1305,0.0042,-0.3648,1.4402,-9.2986,2.7626,-0.0838,-0.1027,-0.0133
13.6600,0.0309,-0.0506,-0.2112,1.4370,-9.2969,2.7702,-0.0528,-0.0496,-0.0080
13.6700,0.0630,-0.0192,-0.1188,1.4361,-9.2961,2.7733,-0.0077,0.0183,-0.0002
13.6800,0.0481,0.0449,0.0050,1.4379,-9.2963,2.7716,0.0246,0.0817,0.0098
13.6900,0.0278,0.0487,0.0881,1.4422,-9.2967,2.7680,0.0157,0.1286,0.0183
13.7000,-0.0290,-0.0385,0.0408,1.4478,-9.2965,2.7658,-0.0110,0.1406,0.0206
13.7100,-0.0688,-0.1094,-0.0925,1.4531,-9.2957,2.7657,-0.0280,0.1189,0.0176
13.7200,0.0040,-0.1666,-0.1850,1.4574,-9.2946,2.7672,-0.0349,0.0894,0.0149
13.7300,0.1470,-0.1963,-0.2169,1.4612,-9.2934,2.7692,-0.0319,0.0828,0.0192
13.7400,0.2196,-0.1945,-0.2249,1.4659,-9.2923,2.7704,-0.0201,0.1018,0.0293
13.7500,0.1813,-0.1330,-0.2013,1.4719,-9.2915,2.7699,-0.0022,0.1174,0.0329
13.7600,0.0597,-0.1123,-0.0724,1.4771,-9.2912,2.7680,0.0092,0.0799,0.0168
13.7700,-0.0389,-0.1904,0.2003,1.4778,-9.2914,2.7672,-0.0026,-0.0262,-0.0204
13.7800,0.0041,-0.2074,0.4347,1.4718,-9.2913,2.7704,-0.0386,-0.1547,-0.0482
13.7900,0.1340,-0.1667,0.4396,1.4614,-9.2903,2.7793,-0.0838,-0.2557,-0.0421
13.8000,0.2083,-0.1124,0.2330,1.4508,-9.2879,2.7930,-0.1157,-0.3111,-0.0091
13.8100,0.2110,-0.0810,0.0804,1.4429,-9.2844,2.8087,-0.1179,-0.3182,0.0342
13.8200,0.1877,-0.1241,-0.0603,1.4394,-9.2803,2.8238,-0.1078,-0.2975,0.0785
13.8300,0.1033,-0.1549,-0.2382,1.4405,-9.2759,2.8379,-0.1072,-0.2551,0.1164
13.8400,0.0299,-0.1723,-0.3134,1.4458,-9.2709,2.8513,-0.1131,-0.1867,0.1317
13.8500,-0.0318,-0.2211,-0.3702,1.4531,-9.2657,2.8647,-0.1217,-0.1261,0.1203
13.8600,-0.1221,-0.1642,-0.4198,1.4597,-9.2605,2.8781,-0.1278,-0.0961,0.0896
13.8700,-0.1757,-0.0441,-0.4645,1.4636,-9.2556,2.8917,-0.1342,-0.1044,0.0569
13.8800,-0.1196,0.0220,-0.4539,1.4642,-9.2510,2.9062,-0.1357,-0.1372,0.0370
13.8900,0.0088,0.0774,-0.4160,1.4626,-9.2467,2.9204,-0.1204,-0.1620,0.0277
13.9000,0.0971,0.1236,-0.4282,1.4601,-9.2431,2.9333,-0.1020,-0.1752,0.0285
13.9100,0.1064,0.1561,-0.3832,1.4578,-9.2397,2.9450,-0.0957,-0.1794,0.0385
13.9200,0.0620,0.1301,-0.2814,1.4566,-9.2362,2.9565,-0.0976,-0.1633,0.0486
13.9300,-0.0072,-0.0316,-0.1941,1.4569,-9.2326,2.9677,-0.0993,-0.1308,0.0509
13.9400,-0.1133,-0.1629,-0.1255,1.4578,-9.2288,2.9789,-0.1053,-0.1039,0.0447
13.9500,-0.2291,-0.1504,-0.1143,1.4583,-9.2249,2.9909,-0.1202,-0.1022,0.0319
13.9600,-0.2702,-0.0606,-0.2005,1.4572,-9.2208,3.0039,-0.1262,-0.1083,0.0151
13.9700,-0.1863,0.0071,-0.3184,1.4546,-9.2170,3.0170,-0.1188,-0.1014,0.0006
13.9800,-0.0391,0.0045,-0.3498,1.4514,-9.2136,3.0287,-0.1030,-0.0821,-0.0066
13.9900,0.1219,0.0037,-0.3322,1.4486,-9.2110,3.0381,-0.0793,-0.0473,-0.0080
14.0000,0.1863,0.0047,-0.2876,1.4471,-9.2089,3.0450,-0.0635,-0.0045,-0.0058
14.0100,0.1093,-0.0280,-0.2034,1.4471,-9.2070,3.0508,-0.0683,0.0243,0.0002
14.0200,-0.0062,-0.0352,-0.1771,1.4484,-9.2045,3.0577,-0.0910,0.0305,0.0084
14.0300,-0.1248,0.0202,-0.2391,1.4502,-9.2011,3.0671,-0.1213,0.0259,0.0106
14.0400,-0.1681,0.0607,-0.3508,1.4516,-9.1969,3.0791,-0.1454,0.0292,0.0054
14.0500,0.1294,-0.0455,-0.4118,1.4563,-9.1919,3.0916,-0.1460,0.1661,0.0506
14.0600,0.3869,-0.2261,-0.4155,1.4749,-9.1868,3.0979,-0.0801,0.4618,0.1455
14.0700,-0.0750,-0.1402,-0.3036,1.5075,-9.1836,3.0918,0.0292,0.6184,0.1676
14.0800,-0.6253,0.1146,0.1882,1.5360,-9.1834,3.0782,0.0686,0.4539,0.0676
14.0900,-0.5309,0.0967,0.8307,1.5447,-9.1850,3.0693,0.0167,0.1243,-0.0724
14.1000,-0.1486,-0.0677,1.1023,1.5323,-9.1862,3.0717,-0.0545,-0.1915,-0.1618
