time,seconds_elapsed,z,y,x
1759335452453375200,0.226375244140625,9.182063102722168,3.1699230670928955,-0.05746084079146385
1759335452463375000,0.236375,9.423876762390137,3.157952070236206,-0.15083470940589905
1759335452473375200,0.246375244140625,9.584288597106934,3.1316158771514893,-0.19871874153614044
1759335452483362000,0.256362060546875,9.58907699584961,3.095702886581421,-0.15801730751991272
1759335452493362200,0.266362060546875,9.658509254455566,3.0885202884674072,-0.0933738648891449
1759335452503362000,0.276362060546875,9.601048469543457,3.1292216777801514,0.028730420395731926
1759335452513362200,0.286362060546875,9.447818756103516,3.1220390796661377,0.06224924325942993
1759335452523362000,0.296362060546875,9.273042678833008,3.2106244564056396,0.0694318488240242
1759335452533362200,0.306362060546875,9.16769790649414,3.272873640060425,0.038307227194309235
1759335452543362000,0.316362060546875,9.124602317810059,3.265691041946411,0.06224924325942993
1759335452553362200,0.326362060546875,9.31613826751709,3.2369606494903564,0.009576806798577309
1759335452563362000,0.336362060546875,9.368810653686523,3.224989652633667,-0.047884032130241394
1759335452573362200,0.346362060546875,9.35205078125,3.24414324760437,-0.07900865375995636
1759335452583362000,0.356362060546875,9.344868659973145,3.227383852005005,-0.033518824726343155
1759335452593362200,0.366362060546875,9.31853199005127,3.141192674636841,0
1759335452603362000,0.376362060546875,9.198822021484375,3.045424461364746,-0.016759412363171577
1759335452613362200,0.386362060546875,9.124602317810059,3.023876667022705,-0.043095629662275314
1759335452623362000,0.396362060546875,8.89954662322998,3.0334534645080566,-0.0694318488240242
1759335452633362200,0.406362060546875,8.696040153503418,2.978386878967285,-0.05267243832349777
1759335452643362000,0.416362060546875,8.7391357421875,2.9520506858825684,-0.033518824726343155
1759335452653362200,0.426362060546875,8.794201850891113,2.959233283996582,-0.0454898327589035
1759335452663362000,0.436362060546875,8.810961723327637,2.985569477081299,-0.035913024097681046
1759335452673362200,0.446362060546875,8.952219009399414,2.9544448852539062,0.002394201699644327
1759335452683360800,0.45636083984375,9.153332710266113,2.896984100341797,0.033518824726343155
1759335452693361000,0.46636083984375,9.249100685119629,2.7916390895843506,0.05506663769483566
1759335452703361000,0.476361083984375,9.38317584991455,2.7461493015289307,0.040701430290937424
1759335452713361000,0.48636083984375,9.256282806396484,2.7772738933563232,0.06464344263076782
1759335452723360800,0.49636083984375,9.047987937927246,2.7892448902130127,0.0933738648891449
1759335452733361000,0.50636083984375,8.854057312011719,2.8371291160583496,0.10773907601833344
1759335452743361000,0.516361083984375,8.798990249633789,2.808398485183716,0.0694318488240242
1759335452753361000,0.52636083984375,8.856451034545898,2.832340717315674,0.0071826050989329815
1759335452763360800,0.53636083984375,8.818143844604492,2.8826189041137695,0.0454898327589035
1759335452773361000,0.54636083984375,8.825326919555664,2.8443117141723633,0.1388636976480484
1759335452783361800,0.55636181640625,8.86602783203125,2.82515811920166,0.17956513166427612
1759335452793361700,0.566361572265625,8.837297439575195,2.8179752826690674,0.10295066982507706
1759335452803361800,0.57636181640625,8.89954662322998,2.765302896499634,0.031124621629714966
1759335452813361700,0.586361572265625,8.906729698181152,2.6839001178741455,-0.035913024097681046
1759335452823361800,0.59636181640625,8.789413452148438,2.626439332962036,-0.004788403399288654
1759335452833361700,0.606361572265625,8.660126686096191,2.58813214302063,0.035913024097681046
1759335452843361800,0.61636181640625,8.767866134643555,2.6144683361053467,0.08858546614646912
1759335452853361700,0.626361572265625,8.985737800598145,2.63362193107605,0.1364694982767105
1759335452863361800,0.63636181640625,9.026439666748047,2.63362193107605,0.15322890877723694
1759335452873361700,0.646361572265625,9.088688850402832,2.647987127304077,0.13168109953403473
1759335452883360800,0.65636083984375,9.004891395568848,2.652775526046753,0.11971008777618408
1759335452893361000,0.66636083984375,8.961795806884766,2.604891538619995,0.09816227108240128
1759335452903360800,0.67636083984375,8.7175874710083,2.6216509342193604,0.06224924325942993
1759335452913361000,0.68636083984375,8.459013938903809,2.655169725418091,0.023942016065120697
1759335452923360800,0.69636083984375,8.463802337646484,2.691082715988159,0.05027823522686958
1759335452933361000,0.70636083984375,8.801384925842285,2.80361008644104,0.047884032130241394
1759335452943360800,0.71636083984375,9.17009162902832,2.9041666984558105,-0.038307227194309235
1759335452953361000,0.72636083984375,9.402329444885254,2.9448680877685547,-0.10534487664699554
1759335452963360800,0.73636083984375,9.5316162109375,2.851494312286377,-0.17477671802043915
1759335452973361000,0.74636083984375,9.58668327331543,2.779668092727661,-0.2106897532939911
1759335452983361800,0.75636181640625,9.56274127960205,2.736572504043579,-0.33997663855552673
1759335452993361700,0.766361572265625,9.347262382507324,2.7030537128448486,-0.5506663918495178
1759335453003361800,0.77636181640625,9.182063102722168,2.6839001178741455,-0.6727706789970398
1759335453013361700,0.786361572265625,9.124602317810059,2.7317841053009033,-0.7086837291717529
1759335453023361800,0.79636181640625,9.115025520324707,2.8850131034851074,-0.6607996821403503
1759335453033361700,0.806361572265625,9.184456825256348,2.980781078338623,-0.4836287498474121
1759335453043361800,0.81636181640625,9.459790229797363,3.0119056701660156,-0.2777273952960968
1759335453053361700,0.826361572265625,9.783007621765137,3.090914487838745,-0.14844051003456116
1759335453063361800,0.83636181640625,9.98412036895752,3.069366693496704,-0.17238251864910126
1759335453073361700,0.846361572265625,10.043975830078125,2.889801502227783,-0.21308395266532898
1759335453083360800,0.85636083984375,9.969755172729492,2.6216509342193604,-0.26575639843940735
1759335453093361000,0.86636083984375,9.876380920410156,2.451662540435791,-0.2346317619085312
1759335453103360800,0.87636083984375,9.627384185791016,2.346317768096924,-0.08379705995321274
1759335453113361000,0.88636083984375,9.31613826751709,2.363077163696289,0.05506663769483566
1759335453123360800,0.89636083984375,9.057564735412598,2.410961151123047,0.08858546614646912
1759335453133361000,0.90636083984375,9.112630844116211,2.542642116546631,0.07182604819536209
1759335453143361000,0.916361083984375,9.455001831054688,2.8155810832977295,0.031124621629714966
1759335453153361000,0.92636083984375,9.981725692749023,2.999934673309326,0.035913024097681046
1759335453163361000,0.936361083984375,10.606613159179688,3.0334534645080566,0.014365210197865963
1759335453173361000,0.94636083984375,11.109395027160645,2.9879636764526367,0.08379705995321274
1759335453183361800,0.95636181640625,11.50922679901123,2.896984100341797,0.14844051003456116
1759335453193362000,0.96636181640625,11.844414710998535,2.8155810832977295,0.2753331959247589
1759335453203361800,0.97636181640625,11.911452293395996,2.82515811920166,0.38067805767059326
1759335453213362000,0.98636181640625,11.72470474243164,2.8107926845550537,0.4668693244457245
1759335453223361800,0.99636181640625,11.389516830444336,2.7533318996429443,0.4357447028160095
1759335453233362000,1.00636181640625,10.960954666137695,2.7293899059295654,0.3256114423274994
1759335453243361800,1.01636181640625,10.486903190612793,2.7269957065582275,0.21547815203666687
1759335453253362000,1.02636181640625,10.03918743133545,2.7772738933563232,0.1388636976480484
1759335453263361800,1.03636181640625,9.65372085571289,2.8107926845550537,0.1173158809542656
1759335453273362000,1.04636181640625,9.273042678833008,2.8562827110290527,0.15083470940589905
1759335453283361000,1.056361083984375,8.99052619934082,2.7676970958709717,0.21787235140800476
1759335453293361000,1.06636083984375,8.851662635803223,2.669534921646118,0.2992752194404602
1759335453303361000,1.076361083984375,8.7391357421875,2.5258827209472656,0.31603461503982544
1759335453313361000,1.08636083984375,8.674491882324219,2.3774423599243164,0.304063618183136
1759335453323361000,1.096361083984375,8.74152946472168,2.2864625453948975,0.3016694188117981
1759335453333361000,1.10636083984375,8.95461368560791,2.185906171798706,0.2298433631658554
1759335453343361000,1.116361083984375,9.069535255432129,2.123656988143921,0.14365209639072418
1759335453353361000,1.12636083984375,9.34965705871582,2.0661959648132324,0.09816227108240128
1759335453363361000,1.136361083984375,9.696816444396973,2.054224967956543,0.06703764945268631
1759335453373361000,1.14636083984375,9.730335235595703,2.0207061767578125,0.1149216815829277
1759335453383361800,1.15636181640625,9.684844970703125,1.9033904075622559,0.24660277366638184
1759335453393362000,1.16636181640625,9.550769805908203,1.8100165128707886,0.40462008118629456
1759335453403361800,1.17636181640625,9.471760749816895,1.8148049116134644,0.42377370595932007
1759335453413362000,1.18636181640625,9.356839179992676,1.8770540952682495,0.33518823981285095
1759335453423361800,1.19636181640625,9.416694641113281,1.867477297782898,0.11971008777618408
1759335453433362000,1.20636181640625,9.601048469543457,1.8148049116134644,-0.023942016065120697
1759335453443361800,1.21636181640625,9.751882553100586,1.821987509727478,-0.1412578970193863
1759335453453362000,1.22636181640625,9.883563995361328,1.8794482946395874,-0.13168109953403473
1759335453463361800,1.23636181640625,10.149320602416992,1.8746598958969116,-0.016759412363171577
1759335453473362000,1.24636181640625,10.259453773498535,1.8770540952682495,0.12689268589019775
1759335453483361000,1.256361083984375,10.103830337524414,1.8267759084701538,0.26815059781074524
1759335453493361000,1.26636083984375,9.876380920410156,1.7980455160140991,0.304063618183136
1759335453503361000,1.276361083984375,9.778219223022461,1.8124107122421265,0.31364041566848755
1759335453513361000,1.28636083984375,9.639355659484863,1.8267759084701538,0.26815059781074524
1759335453523361000,1.296361083984375,9.507674217224121,1.8602946996688843,0.2561795711517334
1759335453533361000,1.30636083984375,9.40711784362793,1.8602946996688843,0.21308395266532898
1759335453543361000,1.316361083984375,9.3735990524292,1.9177556037902832,0.15083470940589905
1759335453553361000,1.32636083984375,9.320926666259766,1.9369091987609863,0.05027823522686958
1759335453563361000,1.336361083984375,9.232340812683105,1.9369091987609863,0.06224924325942993
1759335453573361000,1.34636083984375,9.208398818969727,1.867477297782898,0.1149216815829277
1759335453583361800,1.35636181640625,9.402329444885254,1.8411411046981812,0.22026655077934265
1759335453593361700,1.366361572265625,9.438241958618164,1.843535304069519,0.2777273952960968
1759335453603361800,1.37636181640625,9.421483039855957,1.7836803197860718,0.35913026332855225
1759335453613362000,1.38636181640625,9.488520622253418,1.7573440074920654,0.4165911078453064
1759335453623361800,1.39636181640625,9.62259578704834,1.7381904125213623,0.4118026793003082
1759335453633362000,1.40636181640625,9.735123634338379,1.7310078144073486,0.3280056416988373
1759335453643361800,1.41636181640625,9.96257209777832,1.6855180263519287,0.24660277366638184
1759335453653362000,1.42636181640625,10.084676742553711,1.6352397203445435,0.12449848651885986
1759335453663361800,1.43636181640625,10.05115795135498,1.6424223184585571,0.06703764945268631
1759335453673362000,1.44636181640625,9.950601577758789,1.6519991159439087,0.10534487664699554
1759335453683361000,1.456361083984375,9.749488830566406,1.7310078144073486,0.13407529890537262
1759335453693361000,1.46636083984375,9.486125946044922,1.778891921043396,0.15083470940589905
1759335453703361000,1.476361083984375,9.325715065002441,1.8387469053268433,0.18914192914962769
1759335453713361000,1.48636083984375,9.304166793823242,1.8626888990402222,0.15322890877723694
1759335453723361000,1.496361083984375,9.344868659973145,1.9057846069335938,0.090979665517807
1759335453733361000,1.50636083984375,9.49809741973877,1.9488801956176758,0.06464344263076782
1759335453743361000,1.516361083984375,9.68005657196045,1.9488801956176758,-0.031124621629714966
1759335453755973600,1.5289736328125,9.842862129211426,1.9728221893310547,-0.11013327538967133
1759335453765973500,1.538973388671875,9.96257209777832,1.9536685943603516,-0.12689268589019775
1759335453775973600,1.5489736328125,9.993697166442871,1.941697597503662,-0.06703764945268631
1759335453785974500,1.558974609375,10.103830337524414,1.9776105880737305,0.026336219161748886
1759335453795974400,1.568974365234375,10.084676742553711,1.98958158493042,0.14604631066322327
1759335453805974500,1.578974609375,9.98412036895752,1.9273324012756348,0.19393034279346466
1759335453815974400,1.588974365234375,9.778219223022461,1.886630892753601,0.2059013396501541
1759335453825974500,1.598974609375,9.58668327331543,1.843535304069519,0.19153612852096558
1759335453835974400,1.608974365234375,9.577106475830078,1.843535304069519,0.08619125932455063
1759335453845974300,1.618974365234375,9.610625267028809,1.8842366933822632,-0.040701430290937424
1759335453855974400,1.628974365234375,9.65611457824707,1.8914192914962769,-0.07900865375995636
1759335453865974300,1.638974365234375,9.821314811706543,1.8794482946395874,-0.05506663769483566
1759335453875974400,1.648974365234375,10.010457038879395,1.8195933103561401,-0.016759412363171577
1759335453885973500,1.658973388671875,10.187627792358398,1.7908629179000854,0
1759335453895973400,1.668973388671875,10.132560729980469,1.7477672100067139,-0.002394201699644327
1759335453905973500,1.678973388671875,10.070311546325684,1.6711528301239014,0.031124621629714966
1759335453915973400,1.688973388671875,9.943418502807617,1.6879122257232666,0.07182604819536209
1759335453925973500,1.698973388671875,9.694421768188477,1.7477672100067139,0.07182604819536209
1759335453935973400,1.708973388671875,9.543587684631348,1.7501614093780518,0.0694318488240242
1759335453945973500,1.718973388671875,9.411906242370605,1.7549498081207275,0.06464344263076782
1759335453955973400,1.728973388671875,9.25867748260498,1.7262194156646729,0.07422025501728058
1759335453965973500,1.738973388671875,9.124602317810059,1.7262194156646729,0.1628057211637497
1759335453975973400,1.748973388671875,9.160514831542969,1.7070658206939697,0.16759411990642548
1759335453985974300,1.758974365234375,9.375992774963379,1.7262194156646729,0.1364694982767105
1759335453995974400,1.768974365234375,9.601048469543457,1.6974890232086182,0.1149216815829277
1759335454005974300,1.778974365234375,9.694421768188477,1.6639702320098877,0.12689268589019775
1759335454015974400,1.788974365234375,9.766247749328613,1.6208745241165161,0.181959331035614
1759335454025974300,1.798974365234375,9.811738014221191,1.5610195398330688,0.17956513166427612
1759335454035974400,1.808974365234375,9.888352394104004,1.5921441316604614,0.1388636976480484
1759335454045974300,1.818974365234375,9.890746116638184,1.6136919260025024,0.1173158809542656
1759335454055974400,1.828974365234375,9.754277229309082,1.6208745241165161,0.15083470940589905
1759335454065974300,1.838974365234375,9.646537780761719,1.6089035272598267,0.22744916379451752
1759335454075974400,1.848974365234375,9.62259578704834,1.6352397203445435,0.2561795711517334
1759335454085973500,1.858973388671875,9.699210166931152,1.6879122257232666,0.1843535304069519
1759335454095973400,1.868973388671875,9.783007621765137,1.723825216293335,0.1604115068912506
1759335454105973500,1.878973388671875,9.8691987991333,1.699883222579956,0.14604631066322327
1759335454115973400,1.888973388671875,9.964966773986816,1.7190368175506592,0.05267243832349777
1759335454125973500,1.898973388671875,10.032004356384277,1.721431016921997,-0.06464344263076782
1759335454135973400,1.908973388671875,10.087071418762207,1.742978811264038,-0.22026655077934265
1759335454145973500,1.918973388671875,10.079888343811035,1.7932571172714233,-0.26096799969673157
1759335454155973400,1.928973388671875,10.034399032592773,1.8052281141281128,-0.26815059781074524
1759335454165973500,1.938973388671875,9.931447982788086,1.8387469053268433,-0.23942017555236816
1759335454175973400,1.948973388671875,9.92665958404541,1.8579005002975464,-0.17477671802043915
1759335454185974300,1.958974365234375,9.955389976501465,1.9249382019042969,-0.08379705995321274
1759335454195974400,1.968974365234375,9.818920135498047,1.9273324012756348,0.002394201699644327
1759335454205974300,1.978974365234375,9.68005657196045,1.9297266006469727,0.1388636976480484
1759335454215974400,1.988974365234375,9.617807388305664,1.8555063009262085,0.22026655077934265
1759335454225974300,1.998974365234375,9.500492095947266,1.8315643072128296,0.2825157940387726
1759335454235974400,2.008974365234375,9.433453559875488,1.802833914756775,0.26575639843940735
1759335454245973500,2.018973388671875,9.325715065002441,1.742978811264038,0.2298433631658554
1759335454255973600,2.0289736328125,9.38317584991455,1.7070658206939697,0.1412578970193863
1759335454265973500,2.038973388671875,9.450213432312012,1.6711528301239014,0.090979665517807
1759335454275973600,2.0489736328125,9.495702743530273,1.6735470294952393,0.05267243832349777
1759335454285972700,2.05897265625,9.555558204650879,1.6376339197158813,0.023942016065120697
1759335454295972600,2.06897265625,9.610625267028809,1.623268723487854,0.016759412363171577
1759335454305972700,2.07897265625,9.663297653198242,1.644816517829895,0
1759335454315972600,2.08897265625,9.723152160644531,1.7070658206939697,-0.014365210197865963
1759335454325972700,2.09897265625,9.799766540527344,1.702277421951294,-0.021547814831137657
1759335454335972600,2.10897265625,9.890746116638184,1.6927006244659424,0.002394201699644327
1759335454345972700,2.11897265625,9.89314079284668,1.7118542194366455,0
1759335454355972600,2.12897265625,9.912294387817383,1.723825216293335,-0.011971008032560349
1759335454365972700,2.13897265625,9.950601577758789,1.6855180263519287,0.028730420395731926
1759335454375972600,2.14897265625,9.866804122924805,1.7070658206939697,0.14844051003456116
1759335454385973500,2.158973388671875,9.723152160644531,1.7046716213226318,0.2968810200691223
1759335454395973600,2.1689736328125,9.636960983276367,1.7573440074920654,0.4405331015586853
1759335454405973500,2.178973388671875,9.605836868286133,1.8171991109848022,0.4884171485900879
1759335454415973600,2.1889736328125,9.615413665771484,1.9105730056762695,0.4165911078453064
1759335454425973500,2.198973388671875,9.76864242553711,1.968033790588379,0.21547815203666687
1759335454435973600,2.2089736328125,9.80455493927002,2.006340980529785,0.08140286058187485
1759335454445973500,2.218973388671875,9.885957717895508,1.9752163887023926,0.033518824726343155
1759335454455973600,2.2289736328125,9.883563995361328,1.9704279899597168,0.090979665517807
1759335454465973500,2.238973388671875,9.826103210449219,2.0015525817871094,0.1388636976480484
1759335454475973600,2.2489736328125,9.6896333694458,2.030282974243164,0.19153612852096558
1759335454485972700,2.25897265625,9.47654914855957,2.027888774871826,0.2561795711517334
1759335454495972600,2.26897265625,9.22755241394043,2.078166961669922,0.21547815203666687
1759335454505972700,2.27897265625,9.153332710266113,2.0590133666992188,0.20111294090747833
1759335454515972600,2.28897265625,9.22515869140625,2.0254945755004883,0.21547815203666687
1759335454525972700,2.29897265625,9.237129211425781,2.0422539710998535,0.1412578970193863
1759335454535972600,2.30897265625,9.285013198852539,2.03507137298584,0.08140286058187485
1759335454545973500,2.318973388671875,9.397541046142578,1.922544002532959,0.090979665517807
1759335454555973400,2.328973388671875,9.49809741973877,1.8315643072128296,0.10534487664699554
1759335454565973500,2.338973388671875,9.433453559875488,1.8124107122421265,0.12928688526153564
1759335454575973400,2.348973388671875,9.253889083862305,1.7836803197860718,0.1628057211637497
1759335454585974300,2.358974365234375,9.107842445373535,1.6974890232086182,0.2298433631658554
1759335454595974400,2.368974365234375,9.093477249145508,1.644816517829895,0.2082955539226532
1759335454605974300,2.378974365234375,9.126996040344238,1.721431016921997,0.1149216815829277
1759335454615974400,2.388974365234375,9.1940336227417,1.821987509727478,-0.014365210197865963
1759335454625974300,2.398974365234375,9.445425033569336,1.8291701078414917,-0.14365209639072418
1759335454635974400,2.408974365234375,9.692028045654297,1.9081788063049316,-0.26336219906806946
1759335454645974300,2.418974365234375,9.845256805419922,1.9512743949890137,-0.26815059781074524
1759335454655974400,2.428974365234375,9.914688110351562,1.9608511924743652,-0.18914192914962769
1759335454665974300,2.438974365234375,9.83807373046875,1.920149803161621,0.002394201699644327
1759335454675974400,2.448974365234375,9.682451248168945,1.889025092124939,0.1173158809542656
1759335454685973500,2.458973388671875,9.423876762390137,1.8770540952682495,0.23942017555236816
1759335454695973600,2.4689736328125,9.22515869140625,1.8842366933822632,0.24181437492370605
1759335454705973500,2.478973388671875,9.06714153289795,1.8531121015548706,0.24899697303771973
1759335454715973600,2.4889736328125,8.901941299438477,1.8315643072128296,0.22026655077934265
1759335454725973500,2.498973388671875,8.813355445861816,1.8124107122421265,0.12449848651885986
1759335454735973600,2.5089736328125,8.77265453338623,1.7573440074920654,0.014365210197865963
1759335454745973500,2.518973388671875,8.801384925842285,1.647210717201233,-0.016759412363171577
1759335454755973600,2.5289736328125,8.880393028259277,1.5610195398330688,-0.023942016065120697
1759335454765973500,2.538973388671875,9.01207447052002,1.5083470344543457,0.026336219161748886
1759335454775973600,2.5489736328125,9.177274703979492,1.4676456451416016,0.035913024097681046
1759335454785974300,2.558974365234375,9.241917610168457,1.4460978507995605,0.026336219161748886
1759335454795974400,2.568974365234375,9.244312286376953,1.4317326545715332,0.004788403399288654
1759335454805974300,2.578974365234375,9.196428298950195,1.290474772453308,-0.002394201699644327
1759335454815974400,2.588974365234375,8.918700218200684,1.3455413579940796,0.08379705995321274
1759335454825974300,2.598974365234375,8.394370079040527,1.3694833517074585,0.15562310814857483
1759335454835974400,2.608974365234375,7.8867998123168945,1.2282254695892334,0.22266076505184174
1759335454845974300,2.618974365234375,7.443872451782227,1.0342950820922852,0.2801215946674347
1759335454855974400,2.628974365234375,7.127837657928467,0.8786720037460327,0.27054479718208313
1759335454865974300,2.638974365234375,6.859687328338623,0.8451532125473022,0.28730419278144836
1759335454875974400,2.648974365234375,6.675333499908447,0.8882488012313843,0.2825157940387726
1759335454885973500,2.658973388671875,6.426336765289307,0.8786720037460327,0.33039984107017517
1759335454895973600,2.6689736328125,6.234800338745117,0.8236053586006165,0.3208230137825012
1759335454905973500,2.678973388671875,6.079177379608154,0.7350199222564697,0.2322375625371933
1759335454915973400,2.688973388671875,6.062417984008789,0.6871358752250671,0.07900865375995636
1759335454925973500,2.698973388671875,6.237194538116455,0.6943184733390808,-0.038307227194309235
1759335454935973400,2.708973388671875,6.49098014831543,0.7350199222564697,-0.12928688526153564
1759335454945973500,2.718973388671875,6.917148113250732,0.7829039692878723,-0.12689268589019775
1759335454955973400,2.728973388671875,7.1805100440979,0.7972691655158997,-0.033518824726343155
1759335454965973500,2.738973388671875,7.27148962020874,0.7326257228851318,0.15083470940589905
1759335454975973400,2.748973388671875,7.295432090759277,0.6871358752250671,0.3878606855869293
1759335454985974300,2.758974365234375,7.247547626495361,0.6368576288223267,0.47644615173339844
1759335454995974400,2.768974365234375,7.290643215179443,0.5339069962501526,0.44532153010368347
1759335455005974300,2.778974365234375,7.5540056228637695,0.5602431893348694,0.4429273009300232
1759335455015974400,2.788974365234375,7.659350395202637,0.4836287498474121,0.17717093229293823
1759335455025974300,2.798974365234375,7.613860607147217,0.5386953949928284,0.07182604819536209
1759335455035974400,2.808974365234375,7.716811180114746,0.646434485912323,0.10534487664699554
1759335455045974300,2.818974365234375,7.671321392059326,0.727837324142456,0.20111294090747833
1759335455055974400,2.828974365234375,7.659350395202637,0.8403648138046265,0.3519476354122162
1759335455065974300,2.838974365234375,7.779060363769531,0.8882488012313843,0.3998316824436188
1759335455075974400,2.848974365234375,7.999327182769775,0.9840168952941895,0.35434186458587646
1759335455085973500,2.858973388671875,8.353669166564941,1.0773907899856567,0.2537853717803955
1759335455095973400,2.868973388671875,8.353669166564941,1.0773907899856567,0.1867477297782898
1759335455105973500,2.878973388671875,8.145373344421387,1.0319008827209473,0.2059013396501541
1759335455115973400,2.888973388671875,7.814973831176758,0.8403648138046265,0.3878606855869293
1759335455125973500,2.898973388671875,7.556399822235107,0.6368576288223267,0.5746083855628967
1759335455135973400,2.908973388671875,7.668927192687988,0.586579442024231,0.7445967197418213
1759335455145973500,2.918973388671875,8.205228805541992,0.6967126727104187,0.8762778043746948
1759335455155973400,2.928973388671875,8.770259857177734,0.9097966551780701,0.9457096457481384
1759335455165973500,2.938973388671875,9.308955192565918,1.1803414821624756,0.8643068075180054
1759335455175973400,2.948973388671875,9.488520622253418,1.3048399686813354,0.8619126081466675
1759335455185974300,2.958974365234375,9.481337547302246,1.2114660739898682,0.8451532125473022
1759335455195974400,2.968974365234375,9.325715065002441,0.9959878921508789,0.9385270476341248
1759335455205974300,2.978974365234375,9.313743591308594,0.7805097699165344,1.0438719987869263
1759335455215974400,2.988974365234375,9.6896333694458,0.646434485912323,1.0127472877502441
1759335455225974300,2.998974365234375,10.623372077941895,0.6943184733390808,0.7757213711738586
1759335455235974400,3.008974365234375,11.80371379852295,0.8738836050033569,0.629675030708313
1759335455245974300,3.018974365234375,12.102989196777344,0.8882488012313843,0.6392518281936646
1759335455255974400,3.028974365234375,12.193968772888184,0.6655880808830261,0.8140285611152649
1759335455265974300,3.038974365234375,12.134113311767578,0.4381389021873474,0.8547300100326538
1759335455275974400,3.048974365234375,12.01919174194336,0.33039984107017517,0.6799532771110535
1759335455285973500,3.058973388671875,12.057498931884766,0.3232172429561615,0.15083470940589905
1759335455295973600,3.0689736328125,12.102989196777344,0.40222588181495667,-0.26575639843940735
1759335455305973500,3.078973388671875,12.134113311767578,0.4668693244457245,-0.6536170840263367
1759335455315973600,3.0889736328125,12.093412399291992,0.5434837937355042,-1.0199298858642578
1759335455325973500,3.098973388671875,11.918635368347168,0.6703764796257019,-1.2114660739898682
1759335455335973600,3.1089736328125,11.743858337402344,0.849941611289978,-1.2042834758758545
1759335455345973500,3.118973388671875,11.791742324829102,1.0271124839782715,-1.0055646896362305
1759335455355973600,3.1289736328125,11.990461349487305,1.0582371950149536,-0.6703764796257019
1759335455365973500,3.138973388671875,12.462119102478027,1.0247182846069336,-0.2561795711517334
1759335455375973600,3.1489736328125,13.05588150024414,1.1827356815338135,-0.026336219161748886
1759335455385974300,3.158974365234375,13.620912551879883,1.3886369466781616,0.2753331959247589
1759335455395974400,3.168974365234375,13.992013931274414,1.623268723487854,0.7852981686592102
1759335455405974300,3.178974365234375,13.984831809997559,1.4532804489135742,1.2066776752471924
1759335455415974400,3.188974365234375,13.680768013000488,1.213860273361206,1.5107412338256836
1759335455425974300,3.198974365234375,12.938565254211426,0.9864110946655273,1.558625340461731
1759335455435974400,3.208974365234375,11.978490829467773,0.912190854549408,1.37906014919281
1759335455445973500,3.218973388671875,11.154885292053223,0.8307880163192749,1.05105459690094
1759335455455973600,3.2289736328125,10.767024040222168,0.7589619159698486,0.6153098344802856
1759335455465973500,3.238973388671875,10.929829597473145,0.8236053586006165,0.24181437492370605
1759335455475973600,3.2489736328125,11.499650001525879,1.015141487121582,0.06224924325942993
1759335455485972700,3.25897265625,12.17720890045166,1.3096283674240112,0.08619125932455063
1759335455495972600,3.26897265625,12.258611679077148,1.4101848602294922,0.2059013396501541
1759335455505972700,3.27897265625,11.913846969604492,1.3431471586227417,0.4165911078453064
1759335455515972600,3.28897265625,11.650485038757324,1.137245774269104,0.4692635238170624
1759335455525972700,3.29897265625,11.4972562789917,1.1037269830703735,0.4189853072166443
1759335455535972600,3.30897265625,11.487679481506348,1.072602391242981,0.2298433631658554
1759335455545972700,3.31897265625,11.403882026672363,1.01753568649292,0.026336219161748886
1759335455555972600,3.32897265625,11.255441665649414,0.9744400978088379,-0.19393034279346466
1759335455565972700,3.33897265625,11.013627052307129,0.9193734526634216,-0.3734954595565796
1759335455575972600,3.34897265625,10.881945610046387,0.9241618514060974,-0.3926490843296051
1759335455585973500,3.358973388671875,11.039963722229004,0.993593692779541,-0.26336219906806946
1759335455595973400,3.368973388671875,11.406275749206543,1.0821791887283325,-0.1843535304069519
1759335455605973500,3.378973388671875,12.000038146972656,1.3048399686813354,-0.09816227108240128
1759335455615973600,3.3889736328125,12.849979400634766,1.6112977266311646,-0.1412578970193863
1759335455625973500,3.398973388671875,13.762170791625977,2.0590133666992188,-0.11971008777618408
1759335455635973600,3.4089736328125,14.353538513183594,2.33913516998291,-0.028730420395731926
1759335455645972700,3.41897265625,14.403817176818848,2.3750481605529785,0.0454898327589035
1759335455655972600,3.42897265625,13.709498405456543,2.142810583114624,0.3495534360408783
1759335455665972700,3.43897265625,12.639289855957031,1.8722656965255737,0.727837324142456
1759335455675972600,3.44897265625,11.755829811096191,1.6089035272598267,1.0606313943862915
1759335455685971700,3.4589716796875,10.585064888000488,1.6184803247451782,1.2473790645599365
1759335455695971800,3.468971923828125,9.469367027282715,1.7980455160140991,1.1851298809051514
1759335455705971700,3.4789716796875,8.518868446350098,2.011129379272461,0.9241618514060974
1759335455715971800,3.488971923828125,7.987356185913086,2.188300371170044,0.5961562395095825
1759335455725971700,3.4989716796875,7.893982410430908,2.279279947280884,0.35673606395721436
1759335455735971800,3.508971923828125,7.824550628662109,2.5067291259765625,0.10295066982507706
1759335455745972700,3.51897265625,7.905953407287598,2.782062292098999,-0.028730420395731926
1759335455755972600,3.52897265625,8.157344818115234,2.9712042808532715,-0.019153613597154617
1759335455765972700,3.53897265625,8.320150375366211,3.0190882682800293,0.047884032130241394
1759335455775972600,3.54897265625,8.454225540161133,2.9520506858825684,0.11252748221158981
1759335455785973500,3.558973388671875,8.528446197509766,2.892195701599121,0.09816227108240128
1759335455795973400,3.568973388671875,8.578723907470703,2.801215887069702,0.0454898327589035
1759335455805973500,3.578973388671875,8.870816230773926,2.6815059185028076,0.0694318488240242
1759335455815973400,3.588973388671875,9.402329444885254,2.5546131134033203,0.011971008032560349
1759335455825973500,3.598973388671875,9.936236381530762,2.4851813316345215,-0.09816227108240128
1759335455835973400,3.608973388671875,10.276212692260742,2.3965959548950195,-0.19632454216480255
1759335455845973500,3.618973388671875,10.498873710632324,2.252943754196167,-0.2777273952960968
1759335455855973400,3.628973388671875,10.479720115661621,2.0901381969451904,-0.11971008777618408
1759335455865973500,3.638973388671875,10.115801811218262,2.013523578643799,0.0454898327589035
1759335455875973400,3.648973388671875,9.727940559387207,1.9752163887023926,0.3734954595565796
1759335455885972700,3.65897265625,9.31613826751709,1.9584569931030273,0.8738836050033569
1759335455895972600,3.66897265625,9.150938034057617,1.9704279899597168,1.3862427473068237
1759335455905972500,3.678972412109375,8.770259857177734,2.078166961669922,1.580173134803772
1759335455915972600,3.68897265625,8.298602104187012,2.2194249629974365,1.5394717454910278
1759335455925972500,3.698972412109375,8.023268699645996,2.343923568725586,1.3718775510787964
1759335455935972600,3.70897265625,8.047211647033691,2.557007312774658,1.0630255937576294
1759335455945973500,3.718973388671875,8.183680534362793,2.9328970909118652,0.6967126727104187
1759335455955973400,3.728973388671875,8.28902530670166,3.268085241317749,0.5123591423034668
1759335455965973500,3.738973388671875,8.449437141418457,3.445256233215332,0.4118026793003082
1759335455975973400,3.748973388671875,8.674491882324219,3.4548330307006836,0.3758896589279175
1759335455985974300,3.758974365234375,9.06714153289795,3.3686418533325195,0.3878606855869293
1759335455995974400,3.768974365234375,9.07911205291748,3.220201253890991,0.3926490843296051
1759335456005974300,3.778974365234375,8.478167533874512,3.1699230670928955,0.6368576288223267
1759335456015974400,3.788974365234375,8.090307235717773,3.1004912853240967,0.8379706144332886
1759335456025974300,3.798974365234375,8.111854553222656,3.0813376903533936,0.8786720037460327
1759335456035974400,3.808974365234375,8.394370079040527,3.1507694721221924,0.7326257228851318
1759335456045974300,3.818974365234375,8.803778648376465,3.2345664501190186,0.49799394607543945
1759335456055974400,3.828974365234375,9.189245223999023,3.2178070545196533,0.31124621629714966
1759335456065974300,3.838974365234375,9.445425033569336,3.1268274784088135,0.3519476354122162
1759335456075974400,3.848974365234375,9.5316162109375,3.023876667022705,0.45010992884635925
1759335456085973500,3.858973388671875,9.514857292175293,2.918531894683838,0.5626373887062073
1759335456095973400,3.868973388671875,9.505280494689941,2.851494312286377,0.5985504388809204
1759335456105973500,3.878973388671875,9.567529678344727,2.8107926845550537,0.49559974670410156
1759335456115973400,3.888973388671875,9.62259578704834,2.7676970958709717,0.3711012601852417
1759335456125973500,3.898973388671875,9.65611457824707,2.717418909072876,0.24899697303771973
1759335456135973400,3.908973388671875,9.694421768188477,2.631227731704712,0.2753331959247589
1759335456145973500,3.918973388671875,9.730335235595703,2.585737943649292,0.3447650372982025
1759335456155973400,3.928973388671875,9.917082786560059,2.5258827209472656,0.3495534360408783
1759335456165973500,3.938973388671875,10.032004356384277,2.513911724090576,0.26575639843940735
1759335456175973400,3.948973388671875,10.034399032592773,2.564189910888672,0.05027823522686958
1759335456185974300,3.958974365234375,9.806949615478516,2.6240451335906982,-0.026336219161748886
1759335456195974400,3.968974365234375,9.452607154846191,2.585737943649292,0
1759335456205974300,3.978974365234375,9.064746856689453,2.5306711196899414,0.033518824726343155
1759335456215974400,3.988974365234375,8.940248489379883,2.4851813316345215,0.011971008032560349
1759335456225974300,3.998974365234375,9.036016464233398,2.513911724090576,-0.15083470940589905
1759335456235974400,4.008974365234375,9.155726432800293,2.612074136734009,-0.27054479718208313
1759335456245974300,4.018974365234375,9.265859603881836,2.6815059185028076,-0.304063618183136
1759335456255974400,4.028974365234375,9.483732223510742,2.6144683361053467,-0.19632454216480255
1759335456265974300,4.038974365234375,9.5316162109375,2.5761611461639404,-0.090979665517807
1759335456275974400,4.048974365234375,9.455001831054688,2.5522189140319824,-0.040701430290937424
1759335456285973500,4.058973388671875,9.35205078125,2.535459518432617,-0.004788403399288654
1759335456295973400,4.068973388671875,9.1940336227417,2.5330653190612793,0.014365210197865963
1759335456305973500,4.078973388671875,9.088688850402832,2.5785553455352783,-0.014365210197865963
1759335456315973400,4.088973388671875,9.115025520324707,2.58813214302063,-0.08858546614646912
1759335456325973500,4.098973388671875,9.455001831054688,2.628833532333374,-0.17956513166427612
1759335456335973400,4.108973388671875,9.730335235595703,2.698265314102173,-0.3016694188117981
1759335456345973500,4.118973388671875,9.881169319152832,2.738966703414917,-0.3974374830722809
1759335456355973400,4.128973388671875,9.955389976501465,2.669534921646118,-0.35673606395721436
1759335456365973500,4.138973388671875,9.885957717895508,2.6408045291900635,-0.2801215946674347
1759335456375973400,4.148973388671875,9.701604843139648,2.607285737991333,-0.19871874153614044
1759335456385974300,4.158974365234375,9.52922248840332,2.559401512145996,-0.16759411990642548
1759335456395974400,4.168974365234375,9.419088363647461,2.492363929748535,-0.11013327538967133
1759335456405974300,4.178974365234375,9.275436401367188,2.494758129119873,-0.05506663769483566
1759335456415974400,4.188974365234375,9.275436401367188,2.4468741416931152,-0.009576806798577309
1759335456425974300,4.198974365234375,9.364022254943848,2.403778553009033,-0.0071826050989329815
1759335456445974300,4.218974365234375,9.452607154846191,2.3247697353363037,0.06224924325942993
1759335456455974400,4.228974365234375,9.550769805908203,2.3295583724975586,0.22744916379451752
1759335456465974300,4.238974365234375,9.505280494689941,2.3367409706115723,0.2849099934101105
1759335456475974400,4.248974365234375,9.569923400878906,2.3271639347076416,0.26575639843940735
1759335456485973500,4.258973388671875,9.65372085571289,2.33913516998291,0.22266076505184174
1759335456495973400,4.268973388671875,9.725546836853027,2.3535003662109375,0.2106897532939911
1759335456505973500,4.278973388671875,9.766247749328613,2.387019157409668,0.12928688526153564
1759335456515973400,4.288973388671875,9.670479774475098,2.432508945465088,0.019153613597154617
1759335456525973500,4.298973388671875,9.557952880859375,2.408566951751709,-0.043095629662275314
1759335456535973400,4.308973388671875,9.519645690917969,2.403778553009033,-0.023942016065120697
1759335456545973500,4.318973388671875,9.522039413452148,2.4444799423217773,0.035913024097681046
1759335456555973400,4.328973388671875,9.49809741973877,2.542642116546631,0.035913024097681046
1759335456565973500,4.338973388671875,9.47654914855957,2.604891538619995,0.05267243832349777
1759335456575973400,4.348973388671875,9.486125946044922,2.5737667083740234,0.090979665517807
1759335456585974300,4.358974365234375,9.5531644821167,2.5019407272338867,0.1149216815829277
1759335456595974400,4.368974365234375,9.613018989562988,2.4684219360351562,0.11013327538967133
1759335456605974300,4.378974365234375,9.538799285888672,2.477998733520508,0.1388636976480484
1759335456615974400,4.388974365234375,9.510068893432617,2.4420857429504395,0.17717093229293823
1759335456625974300,4.398974365234375,9.538799285888672,2.406172752380371,0.13407529890537262
1759335456635974400,4.408974365234375,9.483732223510742,2.4157495498657227,0.08379705995321274
1759335456645975000,4.41897509765625,9.550769805908203,2.3774423599243164,0.05506663769483566
1759335456655975200,4.42897509765625,9.569923400878906,2.346317768096924,0.026336219161748886
1759335456665975000,4.43897509765625,9.58907699584961,2.3319525718688965,-0.05267243832349777
1759335456675975200,4.44897509765625,9.58907699584961,2.341529369354248,-0.12210428714752197
1759335456685974300,4.458974365234375,9.663297653198242,2.3127987384796143,-0.21787235140800476
1759335456695974100,4.46897412109375,9.636960983276367,2.315192937850952,-0.16998831927776337
1759335456705974300,4.478974365234375,9.62020206451416,2.3558945655822754,-0.09816227108240128
1759335456715974100,4.48897412109375,9.593865394592285,2.3726539611816406,0.002394201699644327
1759335456725974300,4.498974365234375,9.514857292175293,2.4157495498657227,0.038307227194309235
1759335456735974100,4.50897412109375,9.44063663482666,2.4444799423217773,0.0933738648891449
1759335456745974300,4.518974365234375,9.3735990524292,2.408566951751709,0.12928688526153564
1759335456755974100,4.52897412109375,9.328108787536621,2.367865562438965,0.10055647045373917
1759335456765974300,4.538974365234375,9.359233856201172,2.3295583724975586,0.0071826050989329815
1759335456775974100,4.54897412109375,9.495702743530273,2.360682964324951,-0.12928688526153564
1759335456785975000,4.55897509765625,9.615413665771484,2.449268341064453,-0.19632454216480255
1759335456795975200,4.56897509765625,9.613018989562988,2.4875755310058594,-0.1604115068912506
1759335456805975000,4.57897509765625,9.584288597106934,2.451662540435791,-0.038307227194309235
1759335456815975200,4.58897509765625,9.605836868286133,2.3942017555236816,0.047884032130241394
1759335456825975000,4.59897509765625,9.627384185791016,2.4396915435791016,0.10773907601833344
1759335456835975200,4.60897509765625,9.555558204650879,2.47560453414917,0.090979665517807
1759335456845975000,4.61897509765625,9.49809741973877,2.4468741416931152,0.1173158809542656
1759335456855975200,4.62897509765625,9.483732223510742,2.4013843536376953,0.18914192914962769
1759335456865975000,4.63897509765625,9.47415542602539,2.3965959548950195,0.1867477297782898
1759335456875975200,4.64897509765625,9.47415542602539,2.4636335372924805,0.1843535304069519
1759335456885974300,4.658974365234375,9.502885818481445,2.494758129119873,0.13407529890537262
1759335456895974100,4.66897412109375,9.572318077087402,2.4684219360351562,0.08619125932455063
1759335456905974300,4.678974365234375,9.648932456970215,2.427720546722412,0.028730420395731926
1759335456915974100,4.68897412109375,9.62259578704834,2.4660277366638184,-0.040701430290937424
1759335456925974300,4.698974365234375,9.519645690917969,2.4899697303771973,-0.028730420395731926
1759335456935974100,4.70897412109375,9.500492095947266,2.425326347351074,0.040701430290937424
1759335456945973500,4.718973388671875,9.419088363647461,2.389413356781006,0.11971008777618408
1759335456955973400,4.728973388671875,9.31613826751709,2.3942017555236816,0.1412578970193863
1759335456965973500,4.738973388671875,9.273042678833008,2.403778553009033,0.11013327538967133
1759335456975973400,4.748973388671875,9.354445457458496,2.3774423599243164,0.06224924325942993
1759335456985974300,4.758974365234375,9.450213432312012,2.367865562438965,0.0071826050989329815
1759335456995974400,4.768974365234375,9.545981407165527,2.387019157409668,-0.0454898327589035
1759335457005974300,4.778974365234375,9.615413665771484,2.4229321479797363,-0.10773907601833344
1759335457015974400,4.788974365234375,9.610625267028809,2.454056739807129,-0.0694318488240242
1759335457025974300,4.798974365234375,9.62259578704834,2.5019407272338867,0.033518824726343155
1759335457035974400,4.808974365234375,9.613018989562988,2.537853717803955,0.15801730751991272
1759335457045974300,4.818974365234375,9.605836868286133,2.537853717803955,0.22266076505184174
1759335457055974400,4.828974365234375,9.524434089660645,2.5522189140319824,0.24420857429504395
1759335457065974300,4.838974365234375,9.5316162109375,2.5258827209472656,0.24899697303771973
1759335457075974400,4.848974365234375,9.538799285888672,2.516305923461914,0.2513911724090576
1759335457085973500,4.858973388671875,9.490914344787598,2.4803929328918457,0.19153612852096558
1759335457095973400,4.868973388671875,9.56513500213623,2.4612393379211426,0.07422025501728058
1759335457105973500,4.878973388671875,9.548376083374023,2.473210334777832,-0.0454898327589035
1759335457115973400,4.888973388671875,9.541193008422852,2.47560453414917,-0.043095629662275314
1759335457125973500,4.898973388671875,9.486125946044922,2.4875755310058594,0.0071826050989329815
1759335457135973400,4.908973388671875,9.421483039855957,2.4851813316345215,0.0694318488240242
1759335457145973500,4.918973388671875,9.325715065002441,2.4827871322631836,0.09576806426048279
1759335457155973400,4.928973388671875,9.34965705871582,2.4396915435791016,0.08140286058187485
1759335457165973500,4.938973388671875,9.3735990524292,2.47560453414917,0.0694318488240242
1759335457175973400,4.948973388671875,9.244312286376953,2.4396915435791016,0.0933738648891449
1759335457185974300,4.958974365234375,9.162909507751465,2.33913516998291,0.07900865375995636
1759335457195974400,4.968974365234375,8.784625053405762,2.229001760482788,0.05027823522686958
1759335457205974300,4.978974365234375,9.471760749816895,2.231395959854126,-0.07422025501728058
1759335457215974400,4.988974365234375,9.766247749328613,2.4396915435791016,-0.2561795711517334
1759335457225974300,4.998974365234375,9.613018989562988,2.6599581241607666,-0.22505496442317963
1759335457235974100,5.00897412109375,9.715970039367676,2.580949544906616,-0.090979665517807
1759335457245974300,5.018974365234375,9.668086051940918,2.535459518432617,0.07182604819536209
1759335457255974100,5.02897412109375,9.651326179504395,2.6168625354766846,0.1388636976480484
1759335457265974300,5.038974365234375,9.71357536315918,2.5785553455352783,0.11971008777618408
1759335457275974100,5.04897412109375,9.783007621765137,2.4684219360351562,0.1364694982767105
1759335457285973200,5.05897314453125,9.584288597106934,2.4684219360351562,0.20111294090747833
1759335457295973400,5.068973388671875,9.732728958129883,2.477998733520508,0.1149216815829277
1759335457305973200,5.07897314453125,9.756670951843262,2.542642116546631,0.035913024097681046
1759335457315973400,5.088973388671875,9.522039413452148,2.6240451335906982,0.019153613597154617
1759335457325973200,5.09897314453125,9.411906242370605,2.542642116546631,0
1759335457335973400,5.108973388671875,9.323320388793945,2.425326347351074,-0.009576806798577309
1759335457345973500,5.118973388671875,9.28261947631836,2.298433542251587,-0.033518824726343155
1759335457355973400,5.128973388671875,9.330503463745117,2.2888567447662354,-0.07182604819536209
1759335457365973500,5.138973388671875,9.390357971191406,2.3487119674682617,-0.047884032130241394
1759335457375973400,5.148973388671875,9.419088363647461,2.451662540435791,-0.028730420395731926
1759335457385974300,5.158974365234375,9.452607154846191,2.477998733520508,-0.004788403399288654
1759335457395974100,5.16897412109375,9.550769805908203,2.5043349266052246,-0.019153613597154617
1759335457405974300,5.178974365234375,9.58907699584961,2.5115175247192383,-0.040701430290937424
1759335457415974400,5.188974365234375,9.596260070800781,2.4372973442077637,-0.038307227194309235
1759335457425974300,5.198974365234375,9.557952880859375,2.4420857429504395,-0.016759412363171577
1759335457435974100,5.20897412109375,9.40711784362793,2.4612393379211426,0.13168109953403473
1759335457445973800,5.218973876953125,9.457395553588867,2.434903144836426,0.23942017555236816
1759335457455974000,5.228973876953125,9.613018989562988,2.4588451385498047,0.2059013396501541
1759335457465973800,5.238973876953125,9.711181640625,2.58813214302063,0.07182604819536209
1759335457475974000,5.248973876953125,9.684844970703125,2.6216509342193604,-0.004788403399288654
1759335457485973000,5.258972900390625,9.605836868286133,2.5665841102600098,-0.004788403399288654
1759335457495973000,5.26897314453125,9.534010887145996,2.4420857429504395,0.016759412363171577
1759335457505973000,5.278972900390625,9.545981407165527,2.4372973442077637,-0.021547814831137657
1759335457515973000,5.28897314453125,9.423876762390137,2.47560453414917,-0.07422025501728058
1759335457525973200,5.29897314453125,9.234735488891602,2.4875755310058594,-0.028730420395731926
1759335457535973000,5.30897314453125,9.179668426513672,2.434903144836426,0.07422025501728058
1759335457545973200,5.31897314453125,9.275436401367188,2.387019157409668,0.08858546614646912
1759335457555973000,5.32897314453125,9.340080261230469,2.4636335372924805,0.06224924325942993
1759335457565973200,5.33897314453125,9.457395553588867,2.494758129119873,0.031124621629714966
1759335457575973000,5.34897314453125,9.601048469543457,2.4468741416931152,0.0933738648891449
1759335457585974000,5.35897412109375,9.581894874572754,2.403778553009033,0.17717093229293823
1759335457595974000,5.368973876953125,9.596260070800781,2.4468741416931152,0.22266076505184174
1759335457605974000,5.37897412109375,9.725546836853027,2.456450939178467,0.10055647045373917
1759335457615974100,5.38897412109375,9.816526412963867,2.535459518432617,0.014365210197865963
1759335457625974000,5.39897412109375,9.821314811706543,2.607285737991333,-0.05985504388809204
1759335457635974100,5.40897412109375,9.703998565673828,2.5785553455352783,-0.090979665517807
1759335457645974000,5.41897412109375,9.452607154846191,2.564189910888672,-0.026336219161748886
1759335457655974000,5.428973876953125,9.229947090148926,2.5905263423919678,0.019153613597154617
1759335457665974000,5.43897412109375,9.055170059204102,2.583343744277954,0.0071826050989329815
1759335457675974000,5.448973876953125,9.098265647888184,2.58813214302063,0.009576806798577309
1759335457685973200,5.45897314453125,9.189245223999023,2.5258827209472656,-0.047884032130241394
1759335457695973000,5.46897314453125,9.213187217712402,2.3726539611816406,-0.090979665517807
1759335457705973200,5.47897314453125,9.332897186279297,2.2912509441375732,-0.07900865375995636
1759335457715973000,5.48897314453125,9.486125946044922,2.473210334777832,-0.05746084079146385
1759335457725973200,5.49897314453125,9.512462615966797,2.7054479122161865,-0.08379705995321274
1759335457735973000,5.50897314453125,9.493309020996094,2.7964274883270264,-0.17717093229293823
1759335457745973500,5.518973388671875,9.603442192077637,2.7246015071868896,-0.24899697303771973
1759335457755973600,5.5289736328125,9.76864242553711,2.612074136734009,-0.31364041566848755
1759335457765973500,5.538973388671875,9.76864242553711,2.5330653190612793,-0.3232172429561615
1759335457775973600,5.5489736328125,9.699210166931152,2.5306711196899414,-0.2537853717803955
1759335457785974300,5.558974365234375,9.541193008422852,2.5067291259765625,-0.0694318488240242
1759335457795974400,5.568974365234375,9.44063663482666,2.537853717803955,-0.002394201699644327
1759335457805974300,5.578974365234375,9.414299964904785,2.5905263423919678,0.004788403399288654
1759335457815974400,5.588974365234375,9.292196273803711,2.6360161304473877,-0.004788403399288654
1759335457825974300,5.598974365234375,9.186851501464844,2.58813214302063,-0.07661445438861847
1759335457835974400,5.608974365234375,9.148544311523438,2.557007312774658,-0.2059013396501541
1759335457845974300,5.618974365234375,9.186851501464844,2.612074136734009,-0.33279404044151306
1759335457855974400,5.628974365234375,9.234735488891602,2.6408045291900635,-0.43095630407333374
1759335457865974300,5.638974365234375,9.375992774963379,2.6408045291900635,-0.4118026793003082
1759335457875974400,5.648974365234375,9.512462615966797,2.698265314102173,-0.35913026332855225
1759335457885973500,5.658973388671875,9.402329444885254,2.7246015071868896,-0.26096799969673157
1759335457895973400,5.668973388671875,9.265859603881836,2.671929121017456,-0.10055647045373917
1759335457905973500,5.678973388671875,9.285013198852539,2.583343744277954,-0.15083470940589905
1759335457915973400,5.688973388671875,8.600272178649902,2.518700122833252,-0.20111294090747833
1759335457925973500,5.698973388671875,9.208398818969727,2.5091233253479004,-0.3016694188117981
1759335457935973400,5.708973388671875,9.708786964416504,2.6862943172454834,-0.47405192255973816
1759335457945973500,5.718973388671875,9.459790229797363,2.8802247047424316,-0.26096799969673157
1759335457955973400,5.728973388671875,9.888352394104004,2.801215887069702,-0.2346317619085312
1759335457965973500,5.738973388671875,10.16368579864502,2.6791117191314697,-0.10534487664699554
1759335457975973400,5.748973388671875,10.41268253326416,2.3487119674682617,-0.014365210197865963
1759335457985974300,5.758974365234375,9.763854026794434,2.497152328491211,0.24420857429504395
1759335457995974400,5.768974365234375,9.155726432800293,2.894589900970459,0.15562310814857483
