time,seconds_elapsed,z,y,x
1759157635439398700,0.046398681640625,-0.018302549409866333,0.18576281010806558,-0.3409527872979641
1759157635449457000,0.056456787109375,-0.024306178305414504,0.20062544819712638,-0.23224574434161185
1759157635459516000,0.066515869140625,-0.00634556963443756,0.17846797692477703,-0.1684320283398032
1759157635469573600,0.07657373046875,-0.05367138899948913,0.13335340843498705,-0.12225246096700429
1759157635479632000,0.0866318359375,-0.10492109467685222,0.09795417827367782,-0.08292027527093887
1759157635489689900,0.09668994140625,-0.09574702361822128,0.1100549504339695,-0.03823533037006855
1759157635499748900,0.106748779296875,-0.0036491701573133466,0.07768705079257487,-0.035355098758637904
1759157635509806800,0.116806884765625,0.045481648236513135,0.06797580411732196,-0.05631839181035757
1759157635519864800,0.12686474609375,0.08809563208222389,0.03032031946182251,-0.1089829372882843
1759157635529923800,0.136923828125,0.04423719656679313,0.04210428075790405,-0.1334068921878934
1759157635539981800,0.14698193359375,0.01822714608609676,0.06831131968200206,-0.13272738549113272
1759157635550039800,0.157039794921875,0.05145604647099972,0.06332008726596831,-0.10131430235654115
1759157635560098000,0.16709814453125,0.08322247308790683,0.037186698099970814,-0.0742699358254671
1759157635570156800,0.17715673828125,0.06369769297328312,0.056934185621142386,-0.06410246981531381
1759157635580214800,0.18721484375,0.055358319173124615,0.07779869447350501,-0.029430677145719526
1759157635590273000,0.19727294921875,-0.014770863585802726,0.06646949120759964,-0.0401481782540679
1759157635600331800,0.207331787109375,-0.09376140275895595,0.023742110115289688,-0.1062812771141529
1759157635610389800,0.2173896484375,-0.03833119195997715,0.002041150438785553,-0.15465367835611105
1759157635620448000,0.227447998046875,0.015796704068779945,0.007623919007182121,-0.1896864132925868
1759157635630505700,0.237505615234375,0.10654606553018092,-0.003969488152861595,-0.20014614024758337
1759157635640565000,0.24756494140625,0.17464169663488863,0.024690789142251014,-0.20152239703685043
1759157635650622700,0.257622802734375,0.14512918642461298,0.08240706505179404,-0.20182693294137716
1759157635660680700,0.2676806640625,0.11628712282180785,0.12254735226035117,-0.18056290337741374
1759157635670740000,0.277739990234375,0.10722820257544517,0.0820212806046009,-0.15046265640705822
1759157635680797700,0.287797607421875,0.07592355281796771,0.026579963889718054,-0.0992731519177556
1759157635690856000,0.29785595703125,0.003622282150387764,-0.005687982508540153,-0.06553396392315626
1759157635700914200,0.3079140625,0.00685059654712677,-0.028478490987420082,-0.034172026453912256
1759157635710973000,0.317972900390625,0.012076222240924835,-0.044991818892955775,-0.05139525619447231
1759157635721031200,0.32803125,0.011046285538142546,-0.0448252301543951,-0.05188917719125748
1759157635731089200,0.338089111328125,0.05394669424295425,0.04544190074801445,-0.058113166272640224
1759157635741148000,0.34814794921875,0.06333586935698986,0.12094400871694087,-0.10877017132043838
1759157635751206100,0.3582060546875,0.06367956366154831,0.17852818267941473,-0.1486208279326558
1759157635761264000,0.36826416015625,0.04839548529002349,0.16363456493020057,-0.1747124237835407
1759157635771322000,0.378322021484375,0.02955518030822277,0.1753326015084982,-0.21011749916374683
1759157635781381000,0.388381103515625,0.004651049809390679,0.15200784002244472,-0.21156039144843816
1759157635791439000,0.398439208984375,0.0033288612949196245,0.15167875419855117,-0.2106386004284024
1759157635801497000,0.4084970703125,-0.02770458400547504,0.15082301415205002,-0.22791502166092395
1759157635811555000,0.41855517578125,-0.07927343406802974,0.15224632495343685,-0.2317202591627836
1759157635821614000,0.428614013671875,-0.052476037168502805,0.21398411146402357,-0.18635726886987686
1759157635831672000,0.438672119140625,-0.027362054178118704,0.2260650098800659,-0.17712737597078085
1759157635841730000,0.44872998046875,0.027255684893927535,0.18395313033759592,-0.21557459552586078
1759157635851789000,0.4587890625,0.01794482201337814,0.13492752588391302,-0.23970745852440595
1759157635861847000,0.468846923828125,-0.008755548819038086,0.06853402252197265,-0.20306290447711944
1759157635871905000,0.478905029296875,0.004482118416693993,0.0865524942934513,-0.15032032532691955
1759157635881963000,0.488962890625,0.040471131164697,0.06859890445172787,-0.12449965537190437
1759157635892022000,0.49902197265625,0.04141338045087177,0.04712298570275306,-0.10473843158632516
1759157635902080000,0.509080078125,0.13617781820595265,0.03370119407176971,-0.11024667361378669
1759157635912138000,0.519137939453125,0.10958499483466148,0.04408522544205189,-0.18027531860768795
1759157635922197000,0.529197021484375,0.10892974579632282,0.05795826797187328,-0.25001462526619433
1759157635932255000,0.5392548828125,0.006095978787541389,0.03688625384867191,-0.29874533842653034
1759157635942313200,0.549313232421875,-0.12360416783690452,0.10023848981857299,-0.24625790308117865
1759157635952371200,0.55937109375,-0.06683948899719398,0.09617956981658934,-0.04152911121845245
1759157635962430000,0.569429931640625,-0.040568741753697395,0.06639759501516819,0.056033437389135354
1759157635972488200,0.57948828125,0.09225099819600581,0.019382161340117453,0.14452011461555958
1759157635982546200,0.589546142578125,0.11189619438648223,-0.020487492233514783,0.11228723953068255
1759157635992604000,0.59960400390625,-0.031176644030213353,0.02489478728175163,0.07288958738297224
1759157636002663200,0.6096630859375,-0.1101630869835615,0.06460837351083755,0.012267360898852348
1759157636012721200,0.61972119140625,-0.11034370424747467,0.06428513290584087,0.01316343295574188
1759157636022779000,0.62977880859375,-0.07317805350210983,0.0913543416172266,-0.07262275314033032
1759157636032838100,0.639838134765625,-0.004830493462947197,-0.01210427929162979,-0.000036240357160568236
1759157636042896100,0.649896240234375,0.1144119765996933,-0.06156359898746013,-0.04041968867182731
1759157636052954000,0.6599541015625,0.15047347006201744,-0.056065586093068116,-0.10681465333849191
1759157636063012000,0.67001220703125,0.18585750265419482,0.028384382963180542,-0.12068798812925814
1759157636073071000,0.680071044921875,0.20530220783650874,0.08133797451555728,-0.19673077884614468
1759157636083129000,0.690129150390625,0.19931611916422842,0.09960136095881461,-0.22590251279473303
1759157636093187000,0.70018701171875,0.14984803164005278,0.10590426049530506,-0.24931407578140496
1759157636103245000,0.7102451171875,0.08831482779085635,0.10924304952919482,-0.24160189396888015
1759157636113304000,0.720303955078125,0.052259184114006346,0.10208908612132071,-0.20604075124412774
1759157636123362000,0.730362060546875,0.018437573966383933,0.07997837660014628,-0.19835545743852853
1759157636133420000,0.740419921875,-0.010077746466663666,0.06036825172305107,-0.19473317528814077
1759157636143479000,0.75047900390625,-0.009618892216682433,0.059876084291934965,-0.19336480954438448
1759157636153537000,0.760537109375,0.019979542711377144,0.06511398494541645,-0.12553309007287025
1759157636163595000,0.770594970703125,0.01827858172910055,0.08001110982596873,-0.08052110517472029
1759157636173653200,0.7806533203125,0.018982926039595623,0.07977554750442505,-0.0798603031784296
1759157636183712000,0.7907119140625,0.022393615832494104,0.10214227761328219,-0.07189326982200145
1759157636193770200,0.800770263671875,0.04344283588528633,0.09639350482821464,-0.07100625785440207
1759157636203828200,0.810828125,0.05383680412769317,0.09655775547921656,-0.08713263226896524
1759157636213886000,0.820885986328125,0.052312955561280246,0.07344283735156058,-0.10230594374239445
1759157636223945200,0.8309453125,0.05497428372502327,0.033281507354974746,-0.1373319566771388
1759157636234003000,0.8410029296875,0.06765782877590973,-0.004317863199114799,-0.10754209083020687
1759157636244061000,0.85106103515625,0.10635960304737091,-0.005659340935945511,-0.06235270353853702
1759157636254119200,0.861119140625,0.1241670624166727,-0.020062544819712636,0.00704056616127491
1759157636264178000,0.871177978515625,0.09841828865408897,-0.028240006056427954,0.03394201709032058
1759157636274236000,0.88123583984375,0.09736790281832218,-0.03078384532034397,0.07490092720538377
1759157636284294100,0.891294189453125,0.10319850866794586,-0.03804711432158947,0.106680213303864
1759157636294353000,0.901352783203125,0.08214110759198665,-0.0030406828701496124,0.1393038412719965
1759157636304411100,0.9114111328125,0.05396773703098297,0.024614801296591757,0.14567834473997354
1759157636314469000,0.92146923828125,0.010308628046512603,0.034792496439814566,0.11355097585618495
1759157636324527000,0.931527099609375,0.010743512332439422,0.035901918986439706,0.08160247067064047
1759157636334586000,0.941586181640625,0.0069195701301097865,0.02538227853775024,0.007688216415047645
1759157636344644000,0.95164404296875,0.017619243320822715,-0.002093172886967659,-0.05273205775618553
1759157636354702000,0.9617021484375,0.024943302598595618,0.02802548652291298,-0.1095209896877408
1759157636364760000,0.971760009765625,0.03685761684265453,0.0699701928049326,-0.118448392508924
1759157636374819000,0.981819091796875,0.028802316114306448,0.13753332446813582,-0.13969780902564524
1759157636384877000,0.991876953125,0.026169042717979752,0.15768763922452925,-0.1469189924508333
1759157636394935000,1.00193505859375,-0.011190676144626922,0.15887889483571052,-0.18463176025152206
1759157636404993000,1.011992919921875,-0.041651856248709374,0.16002514226138592,-0.21264029563963413
1759157636415052300,1.02205224609375,-0.050700839622947386,0.12371347343027592,-0.23107962317168712
1759157636425110000,1.032110107421875,-0.03389174820780754,0.10521627823114395,-0.24626988577991724
1759157636435168000,1.04216796875,0.005777412074373569,0.09429740933179855,-0.2537181559592485
1759157636445226200,1.052226318359375,0.018062310913205145,0.08156418448686599,-0.23201485819518564
1759157636455285000,1.062284912109375,0.012068043501046486,0.10162614478468894,-0.22139175737202166
1759157636465343000,1.072343017578125,0.0519517256000312,0.09943944839537143,-0.2259583346351981
1759157636475401200,1.082401123046875,0.05258184019711334,0.09797112940847873,-0.2219666346505284
1759157636485459200,1.092459228515625,0.04460719892296474,0.06952186451554299,-0.14338906475901603
1759157636495518000,1.10251806640625,0.017525135296583175,0.03302256415784359,-0.10969283912330866
1759157636505576200,1.112576171875,-0.003465630283951759,0.023855507361888885,-0.04534107072204351
1759157636515634200,1.12263427734375,-0.043693011254072184,0.025181787529587746,-0.01830781010687351
1759157636525693200,1.132693115234375,-0.045543607556819916,0.04217793051600456,-0.011174012704193591
1759157636535751200,1.142751220703125,-0.017000823728111573,0.04529752384126186,-0.006835691238939762
1759157636545809200,1.15280908203125,-0.005016955945757217,0.03140460756719112,-0.023720775066316126
1759157636555867100,1.1628671875,-0.003297874784900341,0.02970364886820316,-0.019144260931015015
1759157636565926100,1.172926025390625,-0.0006505751465098001,-0.0065986676126718515,-0.008947276565432549
1759157636575984000,1.182984130859375,0.08466916476488114,0.01415302851498127,0.07913812638372182
1759157636586042000,1.1930419921875,0.09656652330756187,0.013956629160046577,0.096325700289011
1759157636596100000,1.20310009765625,0.10582301195263862,0.002463759765028953,0.06860767228007317
1759157636606158800,1.213158935546875,0.07597031456914265,-0.0017149872243404387,0.05853548333793878
1759157636616217000,1.223217041015625,0.03666355557527858,0.005207505515217781,0.0356143342167139
1759157636626275000,1.233275146484375,-0.013340543088316916,-0.00795768100619316,-0.015096154583990573
1759157636636333000,1.2433330078125,-0.08119418213069439,-0.025523732835054398,-0.07841098115295171
1759157636646392000,1.25339208984375,-0.10506664062738418,-0.009942717343568802,-0.12337532751709222
1759157636656450000,1.263449951171875,-0.12944061890542508,0.04784077858328819,-0.14560148011147975
1759157636666508000,1.273508056640625,-0.10011690926551818,0.10998831493854522,-0.14708967284262178
1759157636676566000,1.28356591796875,-0.08565759128034114,0.14999766924381255,-0.13962415926754473
1759157636686625000,1.293625,-0.0625479384162696,0.1621732602059841,-0.1336515145987272
1759157636696683300,1.303683349609375,-0.0651607421300141,0.14930734889209268,-0.1227548575311899
1759157636706741000,1.313740966796875,-0.05591652844462078,0.14376900398731232,-0.12500585132837294
1759157636716799000,1.323799072265625,-0.05443418549895286,0.12287234643101691,-0.13657616987377405
1759157636726858200,1.333858154296875,-0.07488777546286582,0.10429214912354945,-0.1821948884934187
1759157636736916000,1.343916015625,-0.06363747808549088,0.1262181497275829,-0.17456775461584328
1759157636746974000,1.353973876953125,0.013962474378943442,0.12645195848345755,-0.20420944416373968
1759157636757032200,1.3640322265625,0.04760813430461567,0.1035538979768753,-0.2009516114115715
1759157636767091000,1.374091064453125,0.05545885237157344,0.11625263603031634,-0.21995178769677876
1759157636777149000,1.38414892578125,0.047096682217717165,0.1093488479912281,-0.24734072988182304
1759157636787207200,1.394207275390625,0.06408932263937313,0.14442425302565096,-0.26482816351652144
1759157636797265200,1.40426513671875,0.038024902489781374,0.12904022141098975,-0.2701686477616429
1759157636807324200,1.41432421875,0.036216396329668346,0.12849486248791217,-0.26874796730875966
1759157636817382100,1.424382080078125,0.006959322185185738,0.0965127472937107,-0.23911212297976014
1759157636827440000,1.434440185546875,-0.040217444097995755,0.07009761857688426,-0.2169917688474059
1759157636837498000,1.444498046875,-0.07439093185663223,0.06418108800947665,-0.20290362226217984
1759157636847557000,1.45455712890625,-0.06795534585118293,0.025596213549375534,-0.19509148720651864
1759157636857615000,1.464614990234375,-0.06463936230414546,-0.004264087185263633,-0.2051703981503844
1759157636867673000,1.474673095703125,-0.05461246467530727,-0.01816810937523842,-0.2038593155518174
1759157636877731000,1.48473095703125,-0.0073930374273331835,-0.016709142738580703,-0.18479601090252398
1759157636887789000,1.4947890625,0.0663350420398172,-0.018254034093022346,-0.13019319083839653
1759157636897848000,1.50484814453125,0.09800912333130836,-0.03189619047641754,-0.1015630164206028
1759157636907906000,1.514906005859375,0.13028700660169124,-0.036166707402467725,-0.04150163868963718
1759157636917964000,1.524964111328125,0.13167524608969688,-0.0618266338378191,0.011486731915175914
1759157636928022300,1.535022216796875,0.10118014544970355,-0.1098585510790348,0.06229483587145805
1759157636938081000,1.5450810546875,0.09535129316574893,-0.11606792711317539,0.07810410716086626
1759157636948139300,1.55513916015625,0.03980945695214905,-0.11498305448591709,0.14023498464226722
1759157636958197000,1.565197021484375,-0.03513910878724418,-0.0998807624220848,0.1176139875113964
1759157636968255000,1.5752548828125,0.07001053394847549,-0.05196867216825485,0.2808674441695213
1759157636978314200,1.585314208984375,0.029990073727304115,-0.018524083206057546,0.3328174116373062
1759157636988372000,1.5953720703125,-0.014918761323625221,0.021651275315880774,0.33016543582379815
1759157636998430000,1.605429931640625,-0.024081726466352118,0.08717968628108501,0.35318916853666305
1759157637008488200,1.61548828125,0.06089197420305572,0.0987736779630184,0.42444297141134735
1759157637018547000,1.625546875,0.07793664163947105,0.08439443947672844,0.4622577382817864
1759157637028605000,1.63560498046875,0.050681545834010466,0.03582826922833919,0.36284576241523026
1759157637038663200,1.6456630859375,0.01622222687131725,0.006544891598820686,0.2962880084022879
1759157637048721200,1.65572119140625,0.11683421704424544,-0.04598725967109203,0.3942378027617931
1759157637058780200,1.6657802734375,-0.05341010314822197,-0.019910569128394125,0.2979939355373382
1759157637068838100,1.675838134765625,-0.15183308624373748,-0.019180501288175583,0.2960053920686245
1759157637078896000,1.685896240234375,-0.21499708789885044,0.04128127393722534,0.3231125947028398
1759157637088953900,1.695953857421875,-0.24392507621943949,0.05546820472180843,0.17962036183029412
1759157637099013000,1.70601318359375,-0.23544485091017558,0.11929916411936282,0.050399815416336056
1759157637109071000,1.716071044921875,-0.05068213948905468,0.08521452368795872,0.04927782564908266
1759157637119129000,1.726129150390625,0.0012122983992099762,0.100708445417881,0.0015206336960196494
1759157637129187000,1.73618701171875,0.12783963171588256,0.07391103938519954,0.15017068772315978
1759157637139245000,1.7462451171875,0.09758185609625653,0.06323007089495658,0.1332052321359515
1759157637149304000,1.756303955078125,0.08377311097430065,0.04231646220386028,0.23481588709056375
1759157637159362000,1.766362060546875,0.09437047456800937,0.01105856963098049,0.2962932690992951
1759157637169420000,1.776419921875,0.2854214359457604,0.06876490866839885,0.4457341812431812
1759157637179478300,1.786478271484375,0.36834231400489803,-0.022499416577816008,0.4522244200453162
1759157637189537000,1.796537109375,0.19934655083511024,-0.22994798879325387,0.3086260964497924
1759157637199595000,1.806594970703125,0.20077621831204742,-0.12486673511862754,0.40353199306875465
1759157637209653200,1.8166533203125,0.21555355273783205,-0.13136544948816298,0.5028852244853973
1759157637219711000,1.8267109375,0.2051420488387346,-0.13498656259477138,0.5107295082449913
1759157637229770200,1.836770263671875,0.3540489637037739,0.031414544439315795,0.8381438917949795
1759157637239828200,1.846828125,0.23108024422619491,0.10195406156480312,0.9275003375932573
1759157637249886000,1.856885986328125,0.16795706777181477,0.1153834519803524,0.930209012030065
1759157637259944000,1.86694384765625,0.02885782742751762,0.0460801986515522,0.8026327256917953
1759157637270002200,1.877002197265625,0.0068967737764120095,-0.06540624589025974,0.6055719842389226
1759157637280061000,1.88706103515625,0.3710159171283245,-0.1611632063806057,0.44697541347593067
1759157637290119200,1.897119140625,0.3640419499298557,-0.15515724396407604,0.43219870010465383
1759157637300177200,1.90717724609375,0.36540103638861327,-0.22894319566488264,0.2431973464667797
1759157637310235100,1.917235107421875,0.19797288786172865,-0.09885375746190547,0.20994944912046193
1759157637320294100,1.927294189453125,0.18507950401902198,-0.08892448412179946,0.18482962091118096
1759157637330352000,1.93735205078125,-0.1693839222371578,0.025306875213980673,-0.05545096132606268
1759157637340410000,1.94741015625,-0.3337520256062969,0.21151450648009776,-0.13603753295242785
1759157637350468000,1.957468017578125,-0.0350567003339529,0.2681155146241188,-0.25426906784027814
1759157637360527000,1.967527099609375,0.07724749033153057,0.23163024279177188,-0.5343146742329001
1759157637370585000,1.977585205078125,0.10482519655432551,0.3654962769240141,-0.7092129759773612
1759157637380643000,1.98764306640625,0.036986755081079896,0.2814087114393711,-0.7333885090738534
1759157637390701000,1.997701171875,0.06349895096421242,0.26013679082989694,-0.7730377978950739
1759157637400759000,2.007759033203125,0.18375731550455093,0.16263678606450557,-0.7283788642182946
1759157637410818000,2.017818115234375,0.15897417190372942,0.26724457700848575,-0.6043187693074346
1759157637420876000,2.0278759765625,0.13075637767910955,0.372576006051898,-0.48073038356155157
1759157637430934300,2.037934326171875,0.04974219175782054,0.49413726988434786,-0.478111140973866
1759157637440992000,2.047991943359375,0.13652034803330898,0.5099918416202068,-0.3118675625890493
1759157637451051000,2.058051025390625,0.25488018547594543,0.47286301118731494,-0.19804770666360855
1759157637461109200,2.068109130859375,0.12584759938213974,0.39450668283104895,-0.1598576767399907
1759157637471167000,2.0781669921875,0.08873681606259197,0.3072363956570625,0.09754179808050394
1759157637481225000,2.088224853515625,-0.3446031264990568,0.09710311440229415,-0.16804127545654773
1759157637491283200,2.098283203125,-0.10738485444188117,0.0770195267945528,-0.17759850061386823
1759157637501342000,2.108342041015625,-0.205055539599061,0.06191665020883083,-0.5922346560209989
1759157637511400000,2.11839990234375,-0.2086539294172078,0.15275076734423637,-0.8205114967316388
1759157637521458200,2.128458251953125,0.09734159933328627,0.23528759625554083,-0.4352174634039402
1759157637531516200,2.13851611328125,-0.1470154385626316,0.1052490114569664,-0.13450579334050417
1759157637541575200,2.1485751953125,-0.2147025253990665,0.19451777897179126,-0.040676001520454884
1759157637551633200,2.158633056640625,-0.34703597966916855,0.12592822687029837,-0.013246142803132533
1759157637561691100,2.168691162109375,-0.20606972161028533,0.27466566691994665,-0.10311287621110678
1759157637571748900,2.178748779296875,-0.03531272092163563,0.29889117663800713,-0.045457682839035986
1759157637581807000,2.18880712890625,0.04983984344601631,0.2598211490094662,-0.2804457116261124
1759157637591866000,2.1988662109375,0.1413642809331417,0.14091303003430367,-0.06838029326498508
1759157637601924000,2.208924072265625,-0.030312720677256582,0.17588672825992108,0.06943009457886219
1759157637611982000,2.218982177734375,-0.2823305389920249,0.20884733309745787,0.3478670967310667
1759157637622040000,2.2290400390625,-0.4468629295447841,0.39657998197376726,0.3685971655488014
1759157637632098000,2.23909814453125,-0.5437836731174961,0.36523090398609637,0.37008594280183316
1759157637642157000,2.249156982421875,-0.6172492702901363,0.3843938696175813,0.38784780946373937
1759157637652215000,2.259215087890625,-0.380046707258746,0.44808162115216255,0.10669804122149944
1759157637662273300,2.269273193359375,-0.19513390157613902,0.25380349615514275,-0.20898644930720328
1759157637672331000,2.2793310546875,-0.16784498569946735,0.19236440033018587,-0.5232973133951425
1759157637682390000,2.28939013671875,0.17483572136964648,0.12298223654627799,-0.5672516059339047
1759157637692448300,2.2994482421875,0.3273053702175617,-0.05348492195010185,-0.33377661205828185
1759157637702506200,2.30950634765625,0.31489947763085363,-0.10928455058336257,-0.2535872230559587
1759157637712564200,2.319564208984375,0.24340550932474433,-0.2749333779454231,-0.06778875711262226
1759157637722622200,2.329622314453125,0.18001341626849024,-0.34545652845799923,0.1448193898230791
1759157637732681200,2.33968115234375,0.3575157264988869,-0.28950317056775093,0.23754443527162072
1759157637742739200,2.3497392578125,0.43450368911139664,-0.11275544156432152,0.30862405062317844
1759157637752797200,2.359797119140625,0.6410743094485253,0.13201777591705322,0.27069267163574695
1759157637762855200,2.369855224609375,0.5568990656804294,0.34327626180946824,0.23597265591025351
1759157637772913200,2.3799130859375,0.22282843911163508,0.5990957739621401,0.15737433549165725
1759157637782972400,2.389972412109375,-0.24440204608142374,0.7992617879539727,0.18080606448352335
1759157637793030100,2.400030029296875,-0.5991759265262633,1.0043564905196427,0.20341829378604886
1759157637803088100,2.410088134765625,-0.5521521634142845,1.0791834757059813,0.3695125268280506
1759157637813146400,2.420146484375,-0.3678472239643335,1.0715589721769094,0.43149756609797474
1759157637823205000,2.430205078125,-0.24449849219322203,1.0693594163060187,0.37112989889681336
1759157637833263000,2.44026318359375,-0.013088029631972312,0.9687503396093845,0.20729367391467093
1759157637843321300,2.4503212890625,0.12230820974223315,0.6858084272533654,-0.11404489685297012
1759157637853379300,2.46037939453125,0.02440554246008396,0.4651332937180996,-0.2160778688728809
1759157637863437000,2.47043701171875,-0.2177876684654504,0.1865986764103174,-0.11720131505727767
1759157637873496300,2.480496337890625,-0.39601131524033845,-0.07315992875695228,-0.4040864120811224
1759157637883554300,2.49055419921875,-0.32204058155715465,-0.11662906812727451,-0.26453473352789875
1759157637893612000,2.500612060546875,-0.24261457814276216,0.008653846576809883,-0.0662660775899887
1759157637903670300,2.510670166015625,-0.07782799363322555,-0.006602759265899658,0.2720627909451723
1759157637913728300,2.520728271484375,-0.1975228790719062,-0.16939035197794436,0.46303778274357316
1759157637923787300,2.530787353515625,-0.3598339403133839,-0.4600964685946703,0.5240028313159942
1759157637933845200,2.54084521484375,-0.4073128998469561,-0.4966776020169258,0.6610223610430955
1759157637943903200,2.5509033203125,-0.31685053863339124,-0.4790303016453981,0.4781424128949642
1759157637953961200,2.560961181640625,-0.1406505797058344,-0.34611586914956566,0.13717384350597858
1759157637964019200,2.571019287109375,-0.013335355456545949,-0.29085166256725786,-0.08884615818858146
1759157637974078200,2.581078125,0.013789602030068635,-0.22566870403885841,-0.2948626517742872
1759157637984136400,2.591136474609375,0.0973708254277706,-0.2549392221868038,-0.21759879482984543
1759157637994194200,2.601194091796875,0.1094704285442829,-0.16264672293663024,-0.10880348906815052
1759157638004252200,2.611252197265625,0.19495324777960776,0.09281213921010494,0.0819295106679201
1759157638014310400,2.621310302734375,0.15911431102678178,0.3708107499450445,0.2856593546211719
1759157638024369200,2.631369140625,0.1607271530508995,0.45622751820683477,0.4603197559565305
1759157638034427100,2.64142724609375,-0.05951543428599834,0.3984966292500496,0.4808084172338247
1759157638044485400,2.6514853515625,-0.07781696078255772,0.16082126107513903,0.3738327281147241
1759157638054543400,2.66154345703125,-0.0934532135926187,0.0871451994895935,0.42444530949890613
1759157638064601000,2.67160107421875,-0.030395722785592078,-0.4316629857927561,-0.025266543203592298
1759157638074660400,2.681660400390625,0.009709639240056276,-0.6809200706899166,-0.19626082324683666
1759157638084718300,2.69171826171875,-0.1520306363761425,-0.6011544600576162,-0.21620178751349448
1759157638094776000,2.701776123046875,-0.19219203943796453,-0.6776999395996331,-0.17127894220352172
1759157638104834300,2.711834228515625,-0.12401172572448849,-0.6432634169906377,-0.31067163080275056
1759157638114892300,2.721892333984375,0.06407967346161604,-0.5016629892140627,-0.33572365447282787
1759157638124951300,2.731951416015625,0.1888555154263973,-0.10336743549406528,-0.21072540192902087
1759157638135009300,2.74200927734375,0.44745106816366315,-0.10162497574090958,-0.1408534088015556
1759157638145067300,2.7520673828125,0.4590918215967715,-0.13299217390716075,-0.0002484218031167984
1759157638155125200,2.762125244140625,0.367149743219465,-0.47765287581235166,0.16327449944615363
1759157638165183200,2.772183349609375,0.5927057806640863,-0.631009792356193,-0.1936620389252901
1759157638175242200,2.7822421875,0.6159662447422742,-0.8685995280742644,-0.6566489682644605
1759157638185300200,2.79230029296875,0.7318968092113732,-1.1190104591816663,-0.4204156155914068
1759157638195358200,2.802358154296875,0.47514556916654105,-1.0559805870339274,-0.3814244984179735
1759157638205416200,2.812416259765625,0.5074021173879504,-0.5509413993850351,-0.2742085708022117
1759157638215474200,2.82247412109375,0.5366656212732196,0.10158376694768667,-0.24352584776878355
1759157638225533200,2.832533203125,0.3089908381089568,0.6762552937492727,-0.35983693598806854
1759157638235591200,2.842591064453125,0.030076866094768045,1.2121116444662212,-0.3056459115952253
1759157638245649400,2.8526494140625,0.11252367863506078,1.3767521715685724,-0.3874187703967094
1759157638255707100,2.86270703125,0.10246318013072013,1.1772846612349153,-0.6852116304039955
1759157638265765000,2.87276513671875,0.16786445758491753,1.0303864193111658,-0.6709037035882472
1759157638275823400,2.8828232421875,0.3500026474550366,0.6943681658059359,-0.9379425288915634
1759157638285882000,2.892882080078125,0.30758681652992964,0.6567977290853858,-1.2644821754336357
1759157638295940000,2.902940185546875,0.13931640849262475,0.6921738706320524,-1.4386334582030773
1759157638305998300,2.912998291015625,0.17608429665863512,0.6152578042119741,-1.5371183823525905
1759157638316056300,2.923056396484375,0.06784194860458373,0.5358408608868718,-1.4070008870989084
1759157638326114300,2.9331142578125,-0.2060714386433363,0.45982320461124176,-1.2175772163957357
1759157638336173300,2.94317333984375,-0.511513352099061,0.45583910341113804,-1.0265689068496227
1759157638346231300,2.953231201171875,-0.5936044830694794,0.5169073200970887,-0.8110860812604427
1759157638356289000,2.9632890625,-0.6352408540546893,0.49226709209829567,-0.5795026002198458
1759157638366347300,2.97334716796875,-0.6097182902634144,0.5121566184386611,-0.510614357432723
1759157638376405200,2.9834052734375,-0.5427157150924206,0.5377542932927608,-0.35790684470832346
1759157638386464300,2.99346435546875,-0.44337826576679945,0.5212006333768368,-0.1639683269292116
1759157638396522200,3.003522216796875,-0.23408961864262817,0.5699938903793692,-0.1350561206996441
1759157638406580200,3.013580322265625,-0.06928893254250287,0.6184545544266701,-0.11811375372707843
1759157638416638200,3.02363818359375,0.03773760998100042,0.6330246393099427,-0.12759294521212577
1759157638426696200,3.0336962890625,0.18430618155896664,0.6165186179280281,-0.10274024350643157
1759157638436755200,3.043755126953125,0.3549219836786389,0.5450371437773108,-0.14465981534719466
1759157638446813400,3.0538134765625,0.32486703715473414,0.4552446446493268,-0.1695452502787113
1759157638456871200,3.06387109375,0.2462967737868428,0.28638445402532814,-0.22007658312022685
1759157638466929200,3.07392919921875,0.20501403854489325,0.17712533014416693,-0.18879472514986992
1759157638476987400,3.0839873046875,0.20963819121420382,0.11000848094373941,-0.09034078066051006
1759157638487045400,3.09404541015625,0.18474691106379032,0.10582008934319019,-0.09959843834936619
1759157638497104100,3.104104248046875,0.07687748797535895,0.09631634793877601,0.018175708159804342
1759157638507162400,3.114162353515625,0.08342764027118682,0.1202548574090004,0.20241700778901575
1759157638517220400,3.124220458984375,0.1443921043217182,0.15306670142561196,0.286503988751769
1759157638527278000,3.134278076171875,0.2387666705429554,0.11907324640899895,0.39108196907937526
1759157638537336300,3.14433642578125,0.3225824333488941,0.11886398757249116,0.43279520469307897
1759157638547394300,3.154394287109375,0.3222217833429575,0.15302227776199578,0.3605734335690737
1759157638557453000,3.164453125,0.28178163640499115,0.37366321676671505,0.22821429686844347
1759157638567511300,3.17451123046875,0.2793801282212138,0.2253027933359146,0.24898878934979438
1759157638577569300,3.1845693359375,0.1825698592856526,0.1591352076843381,0.13400690390765665
1759157638587627300,3.194627197265625,0.18357932858914136,0.23517419900894163,-0.06805997526943683
1759157638597685200,3.204685302734375,0.27700901517570015,0.2903191631257534,-0.05270107809603214
1759157638607744300,3.214744140625,0.4051140015631914,0.32482144444733857,-0.011143909826874732
1759157638617802200,3.22480224609375,0.5517126760184764,0.3339768108054995,0.05854512794911861
1759157638627860200,3.234860107421875,0.5401894114851952,0.34083471387624736,0.040078327888250345
1759157638637918200,3.244918212890625,0.36213352249264713,0.4320478934571147,0.021499299624562263
1759157638647976200,3.25497607421875,0.2243380399569869,0.28580051665753126,0.09124854315519332
1759157638658034400,3.265034423828125,0.02943096940666437,0.11830869177728891,0.031688100683689116
1759157638668093200,3.27509326171875,-0.10082973370999097,0.11608809311836957,0.18379998560249805
1759157638678151200,3.285151123046875,-0.03339958077669143,0.11547113026380539,0.07389934894740581
1759157638688209400,3.29520947265625,-0.039165596957504746,0.1620113476425409,0.016826631638407707
1759157638698267400,3.305267333984375,-0.06465893465429544,0.18966186337321997,-0.0748801766782999
1759157638708325600,3.31532568359375,-0.06221183376312255,0.14409195233136415,-0.19205285016298293
1759157638718383600,3.325383544921875,-0.036820787397027016,0.13447218333184718,-0.1762596532255411
1759157638728442600,3.335442626953125,-0.3001020137324929,0.15758154850155115,-0.1428770235836506
1759157638738500600,3.34550048828125,-0.52195934278965,0.04792904138863086,-0.19842647684812545
1759157638748558600,3.35555859375,-0.6875912190169096,0.040352468654513356,-0.09177811998724937
1759157638758616600,3.365616455078125,-0.7385539290130138,0.12550152589082716,0.05473579879403114
1759157638768674600,3.375674560546875,-0.6721124948561191,0.14880524458885191,0.07482756970822811
1759157638778733600,3.385733642578125,-0.47571664705276484,0.13755641308277844,-0.0004892448216676712
1759157638788791600,3.39579150390625,-0.25078093346357344,0.1721253298997879,-0.05875789391696453
1759157638798849500,3.405849609375,-0.08355652734786272,0.1928983610764146,-0.21914310166239737
1759157638808907500,3.415907470703125,0.0633165801346302,0.14596476046591997,-0.31558278371989723
1759157638818965800,3.4259658203125,0.15236790550649165,0.10114099161624908,-0.3847404910981655
1759157638829023500,3.4360234375,0.21146073046624658,0.08657909003943204,-0.4250467825233936
1759157638839082500,3.44608251953125,0.26024025120437144,0.050042088019847865,-0.3621235856205225
1759157638849140700,3.456140625,0.21642712070196865,0.034303251618146895,-0.28331074566841125
1759157638859198500,3.466198486328125,0.2063841578543186,0.026601883460581302,-0.2844114003866911
1759157638869256400,3.47625634765625,0.1412953073501587,-0.017751637528836725,-0.34980127966403957
1759157638879314700,3.486314697265625,0.03607786007523536,-0.017296002715826035,-0.3431114266365766
1759157638889372700,3.49637255859375,-0.02709551219642162,0.11358312456011771,-0.20817805553376673
1759157638899431400,3.506431396484375,0.011780454164743423,0.3439394018933177,0.0017395371437072752
1759157638909489700,3.51648974609375,0.052315293648838995,0.5314888031572104,0.1982236477524042
1759157638919547600,3.526547607421875,0.07319207746088505,0.6497223838716745,0.32393910865485664
1759157638929605400,3.53660546875,0.09531389289796352,0.7151151857584714,0.3900847747355699
1759157638939663600,3.54666357421875,0.07113631397485733,0.7229980479627848,0.44757484067380426
1759157638949721600,3.5567216796875,0.03830751882344484,0.6003811375975608,0.37535365407168864
1759157638959780600,3.566780517578125,0.014665069690346717,0.33291298096627,0.13711363775134086
1759157638969838600,3.576838623046875,-0.002144610813260078,0.24699293935745953,0.0455921228736639
1759157638979896600,3.586896484375,-0.085223291516304,0.19699469047933815,-0.0014677344650030136
1759157638989954600,3.59695458984375,-0.14276479538083076,0.1937187375485897,-0.04492342983186245
1759157639000012500,3.607012451171875,-0.19651099861562252,0.20467501584887504,-0.09751344876885414
1759157639010070500,3.617070556640625,-0.1822106705844402,0.18065701140165327,-0.12249240720272063
1759157639020128500,3.62712841796875,-0.11304741024821996,0.12736731976270674,-0.04100654864907265
1759157639030187500,3.6371875,-0.027549101182818413,0.08473053956329822,0.06975391970574855
1759157639040245500,3.64724560546875,0.07059709253162146,0.08327449553608894,0.12221300573945044
1759157639050303500,3.657303466796875,0.3142211399778724,0.002912380315363407,0.15148644649684428
1759157639060361700,3.66736181640625,0.30629706898033615,0.0398997564509511,0.01717325311899185
1759157639070419500,3.67741943359375,0.3034983781725168,0.03431552657783031,0.01833060646057129
1759157639080477400,3.6874775390625,0.3516612283170223,0.30016338853091,-0.1393207924067974
1759157639090536700,3.69753662109375,0.2085369519740343,0.3909022285982966,-0.17342589110434053
1759157639100594400,3.707594482421875,0.024885434931516646,0.2333531210616231,-0.16135668312609194
1759157639110652700,3.717652587890625,0.07547229735255241,-0.04233633594810962,-0.1251215866625309
1759157639120710700,3.727710693359375,0.08012859872579574,-0.1705462440147996,0.04836567924022674
1759157639130768600,3.7377685546875,-0.026210546055436133,-0.08698562501370906,0.16115093142092227
1759157639140826400,3.747826416015625,-0.07363777540177106,0.03679185356348753,0.15195231044292448
1759157639150885600,3.7578857421875,-0.05321078118383884,0.15728402685970067,0.07535363940894603
1759157639160943600,3.767943603515625,-0.04951835640668869,0.18016279814392328,0.044476855108141894
1759157639171001600,3.778001708984375,-0.00933978301435709,0.21937574137449264,0.0010457096606492995
1759157639181059600,3.7880595703125,0.0276847102612257,0.27988340156823394,-0.051606268596649164
1759157639191117600,3.79811767578125,0.055766310885548585,0.30892420261353254,-0.07345803492069244
1759157639201175800,3.80817578125,0.07316285136640072,0.2955217002049088,-0.10890402683317661
1759157639211233500,3.818233642578125,-0.027276713982224463,0.3653749886319041,-0.2224146706789732
1759157639221292500,3.82829248046875,-0.026879239097237585,0.36112639127671714,-0.22036358336806297
1759157639231350800,3.838350830078125,-0.1680348457157612,-0.003750584705173969,0.06697802525162697
1759157639241408500,3.848408447265625,-0.17034370718002317,-0.009145721746981143,0.06824936036169528
1759157639251466500,3.858466552734375,-0.2718319047987461,0.03912643399089574,-0.22556641270816324
1759157639261524700,3.868524658203125,-0.16172259382903575,0.22461685689836738,-0.2925438534379005
1759157639271582700,3.878582763671875,-0.003678396251797676,0.31095278583168984,-0.27002456311583517
1759157639281641500,3.888641357421875,0.08815291522741317,0.24759850403517483,-0.18294658364355562
1759157639291699700,3.89869970703125,0.007758943563699722,0.20835516566634177,-0.14622107331454753
1759157639301757700,3.9087578125,-0.0682528674930334,0.20824176841974257,-0.13170564122796058
1759157639311815400,3.9188154296875,-0.165569624646008,0.19323767603337763,-0.07834931409358978
1759157639321873700,3.928873779296875,-0.17605477830320596,0.22380144886225461,-0.08494330553114414
1759157639331931600,3.938931640625,-0.13019465214312076,0.1882917440637946,-0.08806640598773956
1759157639341989600,3.94898974609375,-0.06468260779082775,0.16244915453791617,-0.08406710721850395
1759157639352048600,3.959048583984375,0.018067571610212326,0.17150573669672012,-0.069189856082201
1759157639362106600,3.969106689453125,0.09444617015272379,0.21285919908732173,-0.03873801919519901
1759157639372164600,3.97916455078125,0.11979629998654126,0.2186471348389983,-0.038331776481866836
1759157639382222600,3.98922265625,0.13380758194327352,0.18050766605883836,0.0011035773277282715
1759157639392280600,3.999280517578125,0.10505144305825233,0.1678501367986202,0.04927110364735126
1759157639402338600,4.009338623046875,0.09656710782945155,0.1845470045775175,0.1068044242054224
1759157639412396500,4.019396484375,0.11523147628903388,0.15654752927869559,0.1647264518201351
1759157639422455600,4.02945556640625,0.0591296498388052,0.1687114298030734,0.17998598027229307
1759157639432513500,4.039513427734375,0.037416415202617646,0.18799451468288897,0.15082009154260156
1759157639442571500,4.049571533203125,0.07246785483956336,0.23058716347962616,0.11049158828556536
1759157639452629500,4.05962939453125,0.06885346373468637,0.23728812242299316,0.03132043641507625
1759157639462687500,4.0696875,0.11444324852079152,0.25612697066664697,0.007201309680938721
1759157639472745700,4.079745849609375,0.1288014442190528,0.2451847208917141,-0.036873978888988496
1759157639482803500,4.089803466796875,0.09956804321110248,0.26404987262040375,-0.03199497467577457
1759157639492862500,4.099862548828125,0.06091682551652193,0.25207038875222204,-0.028528759869933126
1759157639502920700,4.109920654296875,0.02892828058153391,0.22973113117218016,0.00680091218650341
1759157639512978400,4.119978515625,-0.005891688387095928,0.2456114218711853,0.002302431723475456
1759157639523036400,4.130036376953125,-0.0022109540477395057,0.2526902742162347,0.04695815052986145
1759157639533094700,4.1400947265625,0.011817279043793677,0.24337650242596864,0.055468789243698115
1759157639543152600,4.150152587890625,0.02693827580809593,0.17450930242687462,0.025330840611457822
1759157639553210600,4.160210693359375,0.0430889078810811,0.1416463127449155,0.014569208100438116
1759157639563268600,4.1702685546875,0.02743453489243984,0.1141480649664998,0.041076106753945345
1759157639573327600,4.18032763671875,0.007420797650516032,0.13852028967887162,0.04013093485832214
1759157639583385300,4.19038525390625,0.021407237426936624,0.1745192392989993,0.0558311928153038
1759157639593443600,4.200443603515625,0.026711481314897537,0.18547230272889137,0.024727029499411583
1759157639603501600,4.21050146484375,0.036327450922131535,0.19077450079023836,-0.016886837393045424
1759157639613559600,4.2205595703125,0.03663783204555511,0.16401567320227622,-0.014222586619853973
1759157639623617500,4.230617431640625,0.039919922456145285,0.16291823335438965,-0.012171499308943748
1759157639633675500,4.240675537109375,-0.02073649855852127,0.17128040350824594,-0.01781681171953678
1759157639643734800,4.25073486328125,-0.02433189270198345,0.22823037122040984,-0.0697650256216526
1759157639653792500,4.26079248046875,-0.0019400281518697738,0.18082827631533144,-0.09736322664320468
1759157639663850500,4.2708505859375,0.04171615822315216,0.17287848635464906,-0.06827157219350338
1759157639673908500,4.280908447265625,0.04238105187267065,0.10968494807779788,-0.03510638469457626
1759157639683966700,4.290966796875,0.02600537887215614,0.14024755186289548,0.015970891591906546
1759157639694024200,4.301024169921875,0.059573886474967,0.26802520599216223,0.021713819158077238
1759157639704082000,4.31108203125,0.08200549851357937,0.5225090856269001,-0.004952069449424743
1759157639714141200,4.32114111328125,0.11671031666994094,0.4109928304687142,0.03511690608859062
1759157639724199200,4.33119921875,0.07939093210101127,-0.046989130190014834,0.11671207023561
1759157639734257000,4.3412568359375,0.21951485758423803,-0.3263236657038331,0.14031974031627178
1759157639744315100,4.351315185546875,-0.11731354326009749,-0.08635317232906818,-0.021718495333194733
1759157639754373000,4.361373046875,-0.1395955176949501,0.24947277347445487,-0.08131342459619045
1759157639764431000,4.37143115234375,-0.09051496818363666,0.3806865395322442,-0.0012315876215696334
1759157639774489000,4.381489013671875,-0.09512100067436695,0.3360676456049084,-0.010382277804613113
1759157639784547000,4.391547119140625,-0.06459376046359538,0.23196809644401073,-0.059168812805414195
1759157639794606000,4.401606201171875,-0.006633738926053047,0.15590689328759907,-0.06027355917692184
1759157639804664000,4.4116640625,0.046749476215243335,0.10177432108372449,-0.021929507735371587
1759157639814722000,4.42172216796875,0.045153146934509274,0.1274944532737136,-0.07312778005301952
1759157639824780000,4.431780029296875,0.0639835196107626,0.2510758247569203,-0.10515081177949905
1759157639834838300,4.44183837890625,0.06041968964934349,0.15818711317926645,-0.21014614073634147
1759157639844896000,4.45189599609375,-0.1459165374100208,0.1153118480488658,-0.25950258457958697
1759157639854954000,4.4619541015625,-0.1566793389648199,0.13562164562791584,-0.07278700379133224
1759157639865012200,4.47201220703125,-0.034517186629772184,0.17083645913302897,0.11635258927345275
1759157639875071000,4.482071044921875,0.017040566650032996,0.2638321382164955,0.1368506029009819
1759157639885129000,4.49212890625,0.036998482051491734,0.3281301306039095,0.2032739168792963
1759157639895187200,4.502187255859375,-0.053362172353267665,0.30286680227071044,0.08261924649775028
1759157639905245200,4.5122451171875,-0.09405658631324768,0.33885230788737536,-0.11638882963061332
1759157639915303000,4.522302978515625,0.05966740997731685,0.3998275855928659,-0.35153263350129127
1759157639925361200,4.532361083984375,0.2863905915051699,0.411006274472177,-0.4732213231056928
1759157639935419100,4.542419189453125,0.29685294880867,0.2376326980769634,-0.36170214533805845
1759157639945477000,4.55247705078125,-0.059439446440339085,0.30674452048689127,-0.21582886254787445
1759157639955535000,4.56253515625,-0.12373159360885619,0.35406565911024807,-0.12188275087177752
1759157639965594000,4.572593994140625,-0.13881868810355663,0.30088819567412134,-0.128353408190608
1759157639975652000,4.582652099609375,0.009480652789771556,0.2631105459436774,0.04996960730552673
1759157639985710000,4.5927099609375,-0.008655307881534098,0.14384528409391642,0.20592823078036307
1759157639995768000,4.60276806640625,-0.17428455376029015,0.02339607315659523,0.23004560394883156
1759157640005826000,4.612825927734375,-0.18274726167917252,0.03815495861023664,0.2190460710287094
1759157640015884300,4.62288427734375,-0.06641980684697628,0.0702984018459916,0.15017945555150508
1759157640025942000,4.63294189453125,-0.08147475263774394,0.08236030330061912,0.13730010023415087
1759157640036000000,4.643,0.033167817847430704,0.05612842219620943,0.004586743268370628
1759157640046059000,4.65305908203125,0.16037556313425302,0.12428162870705127,-0.0027244565278291702
1759157640056117000,4.663116943359375,0.279650177334249,0.06521510723233223,0.02737491365969181
1759157640066175000,4.673175048828125,0.19850217243283985,0.05580430480837822,0.1974661073833704
1759157640076233200,4.683233154296875,0.10325929894447326,0.2128048385515809,0.28738427871763705
1759157640086291200,4.693291259765625,0.2783984237074852,0.19879910955280064,0.23332068009674548
1759157640096349000,4.703348876953125,0.05719020620882511,0.24600392832010984,0.12315467050373553
1759157640106407200,4.7134072265625,0.14887071104049682,0.2751858914017677,0.1057370872348547
1759157640116465200,4.723465087890625,0.07509703429937362,0.28615006074756383,-0.04547755658328533
1759157640126523100,4.733523193359375,0.10859539927542208,0.35613398981690403,-0.1499479848831892
1759157640136582100,4.74358203125,0.09010638738274573,0.30440730971097946,-0.0555132129073143
1759157640146640100,4.75364013671875,0.08626490952372551,0.2720277196317911,0.04616203171610832
1759157640156698000,4.763697998046875,0.06614829642921685,0.12309417248815298,0.14073591990172862
1759157640166756000,4.773756103515625,-0.128401923507452,0.11673925050348043,0.3325292423456907
1759157640176814000,4.78381396484375,0.03634586336165666,0.006418634870648384,0.5150374345719814
1759157640186872000,4.7938720703125,0.13363807059526442,-0.06863982098400592,0.605364186707139
1759157640196930000,4.803929931640625,0.373344360075891,0.7454656080976129,-0.044862639555335045
1759157640206988000,4.813988037109375,0.04321224199980497,0.4703481057569384,-0.5208236167579889
1759157640217046000,4.8240458984375,-0.46813715170919895,-0.3988271763786673,-0.6681096889555453
1759157640227104300,4.834104248046875,-0.14953735825568437,-0.7417679226234555,-0.6963456033587455
1759157640237163000,4.8441630859375,0.5581321876719594,-0.4634919562518596,-0.41295419366955755
1759157640247221000,4.854220947265625,0.5281722259551287,0.11749357600212096,-0.02123451120853424
1759157640257279200,4.864279296875,0.18891338309347627,0.3389966847941279,0.18288053267002105
1759157640267337000,4.8743369140625,0.18327917659878729,0.3565305879190564,0.12794658095538616
1759157640277395000,4.88439501953125,-0.3437739821985364,0.3010428017139435,0.17051614113748073
1759157640287453200,4.894453125,-0.4070671814575791,0.20761983712911605,0.13140227436721325
1759157640297511200,4.90451123046875,-0.24621143359094858,0.4556336439669132,0.02599368843436241
1759157640307569200,4.914569091796875,0.006297346578538417,0.6094058633133769,0.10943360366523265
1759157640317627100,4.924627197265625,0.29530776519328356,0.5311234769761563,0.19274550860226153
1759157640327685000,4.93468505859375,0.3693015144258737,0.3276929082304239,0.2377601238489151
1759157640337744000,4.944743896484375,0.24375351904481649,0.14900661237984894,0.24282149889171123
1759157640347802000,4.954802001953125,0.0783069362565875,0.13535393460243939,0.24783026696443555
1759157640357860000,4.964860107421875,-0.03168926972746849,0.2807029012575745,0.12088321844041347
1759157640367918000,4.97491796875,0.10352934805750846,0.005498012894392014,0.057146367067098615
1759157640377976000,4.98497607421875,0.02566431034952402,-0.021551322072744367,-0.21022855832278728
1759157640388034000,4.995033935546875,0.11652385418713092,0.06927139688581228,-0.5605804576069117
1759157640398092000,5.005092041015625,0.11585457662343979,0.07614303622096777,-0.564662173962593
1759157640408150300,5.015150390625,0.20545681387633083,-0.11816373034864663,-0.5132195714950561
1759157640418208000,5.0252080078125,0.19356997672766446,0.03683540044426918,-0.4778431376874447
1759157640428266000,5.035265869140625,0.25468320159912106,0.09791852243840694,-0.24340426721572875
1759157640438325200,5.0453251953125,-0.032443595226109026,0.18496259964108466,0.04379004188776016
1759157640448383000,5.055383056640625,0.06792115132063627,0.39360301198959347,-0.04648585684299469
1759157640458441000,5.06544091796875,0.0466769955009222,0.11929448794424533,0.010847557228803635
1759157640468499200,5.075499267578125,-0.012692308312654494,0.156731361413002,-0.1578682564884424
1759157640478557200,5.08555712890625,0.062434536603093144,0.20055881270170212,-0.09390168801248074
1759157640488615000,5.095614990234375,0.14817629903554916,0.09139204327911138,0.07228548400998115
1759157640498673000,5.1056728515625,-0.04722089311927557,0.2201592929676175,0.07363923670649528
1759157640508731100,5.115731201171875,-0.01775017622411251,0.1957607647702098,0.10355155988931655
1759157640518789000,5.1257890625,-0.14214227956831454,0.27584640113711356,0.040540684702992436
1759157640528847000,5.13584716796875,-0.07378244456946849,0.36218145328760143,-0.019769114831089972
1759157640538905000,5.145905029296875,0.07866086426079273,0.16335720929354428,-0.023552725023031233
1759157640548964000,5.155964111328125,0.14580343242436647,-0.09833908593803643,-0.19311843356788158
1759157640559022000,5.16602197265625,0.1337175655722618,-0.22302286570519209,-0.3365653659939766
1759157640569080000,5.176080078125,-0.0657347471922636,0.01628098045438528,-0.40068507920503615
1759157640579138000,5.186137939453125,-0.45144642141014335,0.4716419449597597,-0.24407120669186114
1759157640589196000,5.196196044921875,-0.08396715397536754,0.11669307327419519,-0.2128109760314226
1759157640599254000,5.20625390625,-0.24533348171263933,0.5282084663122892,0.7462474061250686
1759157640609312000,5.21631201171875,-0.5146940279617905,0.4852627662941813,0.5835989296227693
1759157640619370000,5.226369873046875,0.10321399849802255,0.07372749951183795,-0.1495686301767826
1759157640629428200,5.23642822265625,0.38653263521194453,-0.1799739975735545,-0.43254444480240345
1759157640639486000,5.24648583984375,0.3126856009736657,-0.14412556234002113,-0.508950808134675
1759157640649544000,5.2565439453125,0.1419677997842431,0.05492781423479318,-0.2507785953760147
1759157640659603200,5.266603271484375,-0.026736908017098902,0.21408523375093935,0.17487667443454263
1759157640669661000,5.276660888671875,-0.10958733292222023,0.2654021640121937,0.2269014607042074
1759157640679719000,5.286718994140625,-0.011126081909239291,0.27654168992489575,0.0480669885545969
1759157640689777400,5.29677734375,-0.02879822446107864,0.3146384886071086,-0.04941606507599353
1759157640699835600,5.306835693359375,0.0005468202278017997,0.33002573509216304,-0.06412555842995643
1759157640709893400,5.316893310546875,0.12566256167143583,0.31967706729620693,0.030693244427442548
1759157640719951400,5.326951416015625,0.12149492059797048,0.3105111795440316,0.03382978888750076
1759157640730009600,5.337009521484375,-0.0813657393053174,0.24039281044006347,0.1688397323578596
1759157640740067600,5.347067626953125,-0.05932195754051208,0.012516659484803676,0.09455576800704002
1759157640750125300,5.357125244140625,0.23043255743980406,-0.2950225185111165,0.06509761833250523
1759157640760183300,5.367183349609375,0.2143184579849243,-0.35532881091386076,-0.040168344259262086
