time,seconds_elapsed,z,y,x
1759348218279750100,0.017750244140625,8.342745322418212,-4.648043247985839,-2.722955475616455
1759348218292323000,0.030322998046875,8.275558038330077,-4.6450504959106445,-2.7335797454833983
1759348218302381000,0.040381103515625,8.192209893035889,-4.6076410949707025,-2.7455507537841797
1759348218312438000,0.05043798828125,8.157793244171142,-4.537909971618652,-2.740313437652588
1759348218322496300,0.060496337890625,8.129062824249267,-4.492420140075684,-2.7000609222412106
1759348218332554000,0.070553955078125,8.119037104797362,-4.444536106872558,-2.644395733642578
1759348218342612000,0.080612060546875,8.112752325439452,-4.433762199401855,-2.654720728302002
1759348218352670000,0.090669921875,8.13923818130493,-4.459649504852295,-2.683900061035156
1759348218362728200,0.100728271484375,8.198045759582518,-4.4774563796997064,-2.715473595428467
1759348218372786000,0.110785888671875,8.22857183074951,-4.509927739715576,-2.7627590782165528
1759348218382844000,0.120843994140625,8.264933768463134,-4.563198726654052,-2.787299645233154
1759348218392902100,0.130902099609375,8.263437392425537,-4.565892203521728,-2.764854004669189
1759348218402960100,0.140960205078125,8.248772907257079,-4.593275885009765,-2.7549779228210447
1759348218413018000,0.15101806640625,8.199093222808838,-4.569184230804443,-2.754678647613525
1759348218423076000,0.161076171875,8.173205917358398,-4.520851284790039,-2.7371710479736326
1759348218433134000,0.171134033203125,8.164377298736571,-4.505588249206543,-2.708739903259277
1759348218443192000,0.181192138671875,8.163629110717773,-4.496310717773437,-2.712630480957031
1759348218453250000,0.19125,8.199392498016357,-4.495263254547119,-2.731933731842041
1759348218463308000,0.20130810546875,8.238597550201415,-4.5230958488464355,-2.7142764945983884
1759348218473366000,0.211365966796875,8.270171084594725,-4.497956731414795,-2.723554026031494
1759348218483424300,0.22142431640625,8.259995727539062,-4.4668321098327635,-2.7213094619750975
1759348218493482200,0.231482177734375,8.224980528259277,-4.451569074249267,-2.7238533012390134
1759348218503540000,0.2415400390625,8.21660082244873,-4.4650364585876465,-2.7033529495239255
1759348218513598000,0.251597900390625,8.188020040130615,-4.46249261932373,-2.68120658416748
1759348218523656200,0.26165625,8.17141026611328,-4.505588249206543,-2.665494635772705
1759348218533714200,0.271714111328125,8.181585623168944,-4.530128816223145,-2.6695348510742187
1759348218543772000,0.28177197265625,8.212111694335936,-4.532074105072021,-2.6656442733764645
1759348218553830100,0.291830078125,8.212111694335936,-4.530128816223145,-2.6556185539245605
1759348218563888000,0.30188818359375,8.222137413787841,-4.5213001976013185,-2.6753707176208494
1759348218573946000,0.311946044921875,8.219743212127685,-4.523694399261474,-2.6683377502441403
1759348218584004000,0.322004150390625,8.214206620788573,-4.538957434844971,-2.6556185539245605
1759348218594062000,0.33206201171875,8.21061531829834,-4.550329892730713,-2.626439221191406
1759348218604120000,0.3421201171875,8.211064231109619,-4.546140039825439,-2.597110250854492
1759348218614178300,0.35217822265625,8.203133438110351,-4.547486778259277,-2.6253917579650876
1759348218624236000,0.362236083984375,8.225130165863037,-4.554819020843506,-2.642300807189941
1759348218634294000,0.3722939453125,8.22348415222168,-4.552275181579589,-2.636165665435791
1759348218644352000,0.38235205078125,8.225130165863037,-4.5413516365051265,-2.6497826873779293
1759348218654410200,0.39241015625,8.213458432769775,-4.509329189300537,-2.637362766265869
1759348218664468000,0.402468017578125,8.2230352394104,-4.497657456207275,-2.6536732650756836
1759348218674526000,0.41252587890625,8.2360537109375,-4.467430660247802,-2.653373989868164
1759348218684584200,0.422584228515625,8.259247539520263,-4.458003491210937,-2.6345196517944336
1759348218694642200,0.43264208984375,8.258200076293944,-4.462043706512451,-2.6312276245117188
1759348218704700400,0.442700439453125,8.243086678314208,-4.458751679229736,-2.6128221992492673
1759348218714758400,0.45275830078125,8.221838138580322,-4.459350229644775,-2.5909751091003415
1759348218724816600,0.462816650390625,8.19789612197876,-4.442740455627441,-2.605190681457519
1759348218734874400,0.472874267578125,8.17784468307495,-4.4306198097229,-2.6159645889282226
1759348218744932400,0.482932373046875,8.201038511657714,-4.445433932495117,-2.6240450195312497
1759348218754990300,0.492990234375,8.213907345581054,-4.478354205322265,-2.6523265266418456
1759348218765048600,0.503048583984375,8.264784130859374,-4.483142608642578,-2.7180174346923827
1759348218775106300,0.513106201171875,8.323442071533202,-4.505588249206543,-2.75797067489624
1759348218785164300,0.523164306640625,8.348132276153564,-4.506037162017822,-2.820519193267822
1759348218795222500,0.533222412109375,8.376862696075438,-4.473266526794434,-2.817376803588867
1759348218805280500,0.543280517578125,8.35740980758667,-4.496609992980956,-2.8112416618347167
1759348218815338500,0.55333837890625,8.30518628387451,-4.552574456787109,-2.7220576499938964
1759348218825396500,0.563396484375,8.226925817108153,-4.58429762878418,-2.662950796508789
1759348218835454500,0.573454345703125,8.10856247253418,-4.569184230804443,-2.687192088317871
1759348218845512400,0.583512451171875,8.019677735900878,-4.497058905792236,-2.679859845733642
1759348218855570400,0.5935703125,8.014590057373047,-4.43032053451538,-2.7060464263916013
1759348218865628400,0.60362841796875,8.026261790466307,-4.358644122314453,-2.799569928741455
1759348218875686400,0.613686279296875,8.08252552947998,-4.37315896987915,-2.8145336891174315
1759348218885744400,0.623744384765625,8.205378002166748,-4.408922357177734,-2.6774656440734863
1759348218895802600,0.633802734375,8.29246708755493,-4.432415460968017,-2.8152818771362305
1759348218905860400,0.6438603515625,8.257451888275146,-4.451569074249267,-3.0077158355712887
1759348218915918300,0.65391845703125,8.121431306457518,-4.52608860092163,-3.2499791160583493
1759348218925976600,0.6639765625,8.053944747161864,-4.545092576599121,-3.203741096496582
1759348218936034600,0.67403466796875,8.048258518218994,-4.532074105072021,-3.0939070953369137
1759348218946092300,0.68409228515625,8.090456322479248,-4.422389741516113,-3.0588918960571285
1759348218956150500,0.694150634765625,8.143278396606444,-4.308665162658691,-2.987215483856201
1759348218966209500,0.70420947265625,8.14612151107788,-4.273949238586425,-2.948459344482422
1759348218976267300,0.714267333984375,8.08925922164917,-4.293551764678955,-2.9022213249206543
1759348218986325500,0.724325439453125,8.022371212768554,-4.340687609863281,-2.9071593658447266
1759348218996383500,0.734383544921875,7.987655288696288,-4.380042299652099,-2.9536966606140136
1759348219006441500,0.74444140625,8.01758280944824,-4.423586842346191,-2.9650691184997555
1759348219016499500,0.75449951171875,8.062174815368651,-4.474613265228271,-2.9480104316711424
1759348219026557400,0.764557373046875,8.135497241210937,-4.509329189300537,-2.9191303741455075
1759348219036615400,0.774615478515625,8.219892849731444,-4.544045113372802,-2.8344354904174804
1759348219046673700,0.784673583984375,8.22961929397583,-4.616320075988769,-2.7494413314819335
1759348219056731400,0.7947314453125,8.216002272033691,-4.668244324493408,-2.6976667205810547
1759348219066789400,0.804789306640625,8.168866426849364,-4.669591062927246,-2.775328636932373
1759348219076847600,0.81484765625,8.111405587005615,-4.611531672668456,-2.8495488883972167
1759348219086905600,0.824905517578125,8.129811012268066,-4.4954128921508785,-2.8721441665649414
1759348219096963300,0.83496337890625,8.134749053192138,-4.42463430557251,-2.868253588867187
1759348219107021300,0.845021240234375,8.211213868713378,-4.358494484710693,-2.8229133949279785
1759348219117079600,0.85507958984375,8.260594277954102,-4.280533293151855,-2.9129952323913573
1759348219127137500,0.865137451171875,8.28019680404663,-4.285471334075927,-2.951452096557617
1759348219137195300,0.8751953125,8.250418920898436,-4.089745348358154,-3.0419828468322754
1759348219147253500,0.88525341796875,8.24802471923828,-4.0435073287963865,-2.9123966819763183
1759348219157312500,0.8953125,8.181735260772705,-4.1277532997131345,-2.799569928741455
1759348219167370500,0.90537060546875,8.073098360443115,-4.2037692024230955,-2.8145336891174315
1759348219177428500,0.915428466796875,8.001870861053467,-4.1301475013732905,-2.9920038871765136
1759348219187486500,0.925486572265625,8.00576143875122,-4.09872360458374,-2.9240684150695797
1759348219197544400,0.93554443359375,8.090157047271727,-4.065653694152831,-2.8989292976379395
1759348219207602400,0.9456025390625,8.11424870147705,-4.05398196105957,-2.981978167724609
1759348219217660400,0.955660400390625,8.17859287109375,-4.135983367919922,-3.0916625312805173
1759348219227718400,0.965718505859375,8.29336491317749,-4.238485126495361,-3.199251968383789
1759348219237776600,0.975776611328125,8.374169219207763,-4.285920246887207,-3.2763153343200684
1759348219247834400,0.98583447265625,8.42729056854248,-4.422689016723632,-3.2577602714538574
1759348219257892400,0.995892333984375,8.378807984924316,-4.5407530860900875,-3.266738527679443
1759348219267950600,1.00595068359375,8.269123621368408,-4.53267265548706,-3.319111688995361
1759348219278008600,1.016008544921875,8.116193990325927,-4.557213222503662,-3.314921836090088
1759348219288066300,1.02606640625,8.055590760803222,-4.546888227844238,-3.2640450508117675
1759348219298125600,1.03612548828125,8.139387818908691,-4.575469010162354,-3.1926679138183593
1759348219308183600,1.04618359375,8.285883032989501,-4.4756607284545895,-3.1794998046874996
1759348219318241300,1.0562412109375,8.364891687774657,-4.2980408927917475,-3.0755016700744626
1759348219328299500,1.066299560546875,8.292018174743651,-4.34143579788208,-2.989011135101318
1759348219338357500,1.076357421875,8.097489289855957,-4.324377111053466,-3.021033582305908
1759348219348415500,1.08641552734375,7.943661833190918,-4.351461517333984,-2.900276036071777
1759348219358473500,1.096473388671875,7.927949884796142,-4.379144474029541,-2.826953610229492
1759348219368531500,1.106531494140625,8.021323749542235,-4.483890796661377,-2.7410616256713864
1759348219378589400,1.11658935546875,8.10751500930786,-4.594173710632324,-2.774580448913574
1759348219388647700,1.126647705078125,8.053046921539305,-4.712088142395019,-2.8280010734558103
1759348219398705400,1.136705322265625,8.143876947021484,-4.815338088989257,-2.8425159210205075
1759348219408764400,1.146764404296875,8.195352282714843,-4.873098204040527,-2.8553847549438474
1759348219418822400,1.156822509765625,8.155399042510986,-4.9640778671264645,-3.034650604248047
1759348219428880400,1.16688037109375,8.059481338500976,-4.923825351715087,-3.072209642791748
1759348219438938400,1.1769384765625,7.912237936401366,-4.963628954315185,-2.993051350402832
1759348219448996600,1.18699658203125,7.904007868194579,-4.9669209815979,-3.0910639808654783
1759348219459054600,1.1970546875,7.936179953002929,-4.939088387298583,-3.0337527786254883
1759348219469112300,1.2071123046875,7.9210665550231925,-5.0394952194213865,-2.918980736541748
1759348219479170600,1.217170654296875,7.866149554443359,-5.007622409820557,-3.095702746582031
1759348219489228500,1.227228515625,7.812280017089844,-5.071368029022216,-3.2800562744140622
1759348219499286500,1.23728662109375,7.858218761444092,-5.059397020721435,-3.4032080223083496
1759348219509345500,1.247345458984375,7.779509381866455,-5.0005894424438475,-3.507355794525146
1759348219519403500,1.257403564453125,7.653065606689452,-5.0775031707763665,-3.4639608894348144
1759348219529461500,1.26746142578125,7.65486125793457,-5.008370597839355,-3.51768078918457
1759348219539519500,1.27751953125,7.604134110260009,-5.077353533172607,-3.408594976043701
1759348219549577500,1.287577392578125,7.570914562225341,-5.0945618576049805,-3.284844677734375
1759348219559635500,1.297635498046875,7.549965297698974,-5.042637609100342,-3.2511762168884277
1759348219569693400,1.307693359375,7.549815660095215,-4.966172793579101,-3.1350574363708494
1759348219579751400,1.31775146484375,7.6090721511840815,-4.791695347595215,-3.1856349464416502
1759348219589809400,1.327809326171875,7.698555438232422,-4.75009609375,-3.2529718681335447
1759348219599868400,1.337868408203125,7.812429654693603,-4.709394665527343,-3.2517747673034667
1759348219609926400,1.347926513671875,7.8800658515930175,-4.64774397277832,-3.418919970703125
1759348219619984400,1.357984375,7.925854958343505,-4.750694644165039,-3.4946365982055663
1759348219630042600,1.368042724609375,7.965209648132324,-4.920084411621094,-3.518279339599609
1759348219640100400,1.378100341796875,7.892934685516357,-5.103091201019287,-3.5715503265380857
1759348219650158300,1.388158447265625,7.717858689117431,-5.2353708427429195,-3.5543420021057126
1759348219660216300,1.39821630859375,7.556100439453124,-5.15187305984497,-3.4919431213378904
1759348219670274600,1.408274658203125,7.564330507659911,-5.065981075286865,-3.282001563262939
1759348219680333300,1.418333251953125,7.75691410369873,-5.01809704208374,-3.202543995666504
1759348219690391600,1.4283916015625,7.922114018249511,-5.122693727111816,-3.2294787643432614
1759348219700449000,1.438448974609375,7.892186497497558,-5.272032055664062,-3.4280478645324703
1759348219710507000,1.448507080078125,7.706785506439209,-5.365705195617675,-3.555539102935791
1759348219720564700,1.458564697265625,7.631218516540527,-5.3095910942077635,-3.4754829849243163
1759348219730623000,1.468623046875,7.513902635192871,-5.219509256744384,-3.461566687774658
1759348219740681000,1.478680908203125,7.411101601409912,-5.144540817260742,-3.5009213775634764
1759348219750739000,1.488739013671875,7.337030987548828,-5.242403810119629,-3.4612674125671385
1759348219760798000,1.4987978515625,7.321917589569091,-5.251980616760253,-3.4606688621520996
1759348219770856000,1.50885595703125,7.429806301879882,-5.393687427520752,-3.506009056091308
1759348219780914000,1.518913818359375,7.549815660095215,-5.569511611938476,-3.65190571975708
1759348219790972000,1.528971923828125,7.6737155960083,-5.557690241241454,-3.7202901046752928
1759348219801030000,1.53902978515625,7.642441336822509,-5.540631554412841,-3.6837785293579097
1759348219811088000,1.549087890625,7.24590168685913,-5.476885935211182,-3.3500866729736325
1759348219821146000,1.55914599609375,6.842628344726562,-5.636100345611572,-3.4304420661926267
1759348219831204900,1.569204833984375,6.6777277053833,-5.736956090545654,-3.6085108146667477
1759348219841263000,1.57926318359375,6.8116533607482905,-5.803844099426269,-3.518877890014648
1759348219851321000,1.589321044921875,7.107337265777588,-5.871629933929443,-3.5443162826538086
1759348219861378800,1.59937890625,7.013215213012695,-5.954678804016113,-3.430292428588867
1759348219871436800,1.609436767578125,6.900089184570312,-5.9956795074462885,-3.426401850891113
1759348219881495000,1.6194951171875,6.955754373168945,-6.025307752990722,-3.6357448585510252
1759348219891553000,1.629552978515625,7.154473110961914,-6.228066706085205,-3.7548563911437984
1759348219901612000,1.639612060546875,6.909217078399657,-6.2386909759521485,-3.810671217346191
1759348219911670000,1.649669921875,6.938845323944092,-6.2110080192565915,-3.947888899993896
1759348219921728000,1.65972802734375,7.152976734924316,-6.213551858520508,-4.055029424285888
1759348219931786000,1.669785888671875,6.99750326461792,-6.198887373352051,-4.089745348358154
1759348219941844000,1.679843994140625,6.79908380203247,-5.998821897125244,-4.077923977661133
1759348219951902000,1.68990185546875,6.803872205352783,-5.799055696105957,-4.125059822845459
1759348219961961000,1.6999609375,6.90787033996582,-5.730372035980224,-4.185064501953125
1759348219972019000,1.71001904296875,7.0376061424255365,-5.930437512207031,-4.10515802154541
1759348219982077000,1.720076904296875,7.0549641044616695,-6.196493171691894,-3.9386113685607906
1759348219992135200,1.73013525390625,6.960243501281738,-6.366032576751708,-3.759644794464111
1759348220002193000,1.74019287109375,6.6522893127441405,-6.4831988204956055,-3.6180876213073727
1759348220012251000,1.7502509765625,6.874501154327392,-6.614730274200439,-3.5691561248779293
1759348220022310100,1.76031005859375,7.344812142944336,-6.846219647216796,-3.5681086616516113
1759348220032367900,1.770367919921875,7.2827125373840325,-6.9916673980712885,-3.367145359802246
1759348220042425900,1.78042578125,7.159860064697265,-7.095515895080566,-3.1153052726745605
1759348220052484000,1.790484130859375,6.87584789276123,-7.165546293640136,-2.824559408569336
1759348220062542000,1.8005419921875,6.800131265258789,-7.1689879585266105,-2.606537419891357
1759348220072599800,1.810599853515625,6.90772070236206,-7.170035421752929,-2.4684219116210935
1759348220082659000,1.8206591796875,6.647500909423828,-7.240963645935058,-2.4875755249023435
1759348220092717000,1.830717041015625,6.292859788513184,-7.404517546844482,-2.439541854095459
1759348220102774800,1.84077490234375,6.2684688591003415,-7.652915969085693,-2.5555109970092773
1759348220112833000,1.8508330078125,6.654234601593017,-7.762450695037841,-2.8458079483032224
1759348220122891000,1.86089111328125,6.827066033935546,-7.751527149963379,-3.0912136184692383
1759348220132949000,1.870948974609375,6.692242552947998,-7.696011598968505,-3.227084562683105
1759348220143008000,1.881008056640625,6.469731436157226,-7.661744587707519,-3.0597897216796874
1759348220153066000,1.89106591796875,6.2958525405883785,-7.583334483337402,-2.914940521240234
1759348220163124000,1.9011240234375,6.184073250579834,-7.460033097839355,-2.8960861831665037
1759348220173182000,1.911181884765625,6.1453171112060545,-7.3012676002502435,-2.9200281997680664
1759348220183240000,1.921239990234375,6.274005450439453,-7.194127075958251,-2.83458512802124
1759348220193299000,1.931298828125,6.262782630157471,-7.147290505981445,-2.684797886657715
1759348220203357000,1.94135693359375,6.21834026184082,-7.185897007751464,-2.4748563285827636
1759348220213415000,1.951414794921875,5.97547843093872,-7.280467973327636,-2.217479650115967
1759348220223473000,1.961472900390625,5.906046582794189,-7.425915724182128,-2.035819599151611
1759348220233531000,1.97153076171875,5.903802018737792,-7.640196772766113,-1.9565116691589355
1759348220243588900,1.9815888671875,5.841103862762451,-7.873032884216308,-1.8936638755798338
1759348220253648100,1.991648193359375,5.800252796936035,-8.046911779785155,-1.8433856407165525
1759348220263705900,2.001705810546875,5.689670607757568,-8.14597187347412,-1.835454847717285
1759348220273763800,2.011763916015625,5.653009394836426,-8.156296868133545,-1.78757081451416
1759348220283822000,2.021822021484375,5.689670607757568,-8.160486721038819,-1.6512509574890135
1759348220293880000,2.031880126953125,5.627571002197265,-8.129511737060547,-1.4514847564697264
1759348220303938800,2.041938720703125,5.587318486785889,-8.176797219848632,-1.2102689392089843
1759348220313997000,2.0519970703125,5.61829347076416,-8.265083406066895,-0.9347861106872558
1759348220324055000,2.062054931640625,5.572803639221191,-8.30623374710083,-0.7775169891357422
1759348220334112800,2.07211279296875,5.5349453254699705,-8.249670732879638,-0.6868366012573242
1759348220344171000,2.0821708984375,5.444713850402832,-8.168417514038085,-0.7429507026672363
1759348220354230000,2.09222998046875,5.294776971435547,-8.026411428070068,-0.7691372833251953
1759348220364287700,2.102287841796875,5.244199461364746,-7.953089002227783,-0.847248112487793
1759348220374346000,2.112345947265625,5.278316835021973,-7.851634706878662,-0.7849988693237304
1759348220384404000,2.122404052734375,5.270984592437744,-7.7787611938476555,-0.6768108818054199
1759348220394462000,2.1324619140625,5.2067900604248045,-7.76978293762207,-0.5780500633239746
1759348220404521000,2.14252099609375,5.1982607170104975,-7.799710458374023,-0.4870704002380371
1759348220414579000,2.152578857421875,5.15202269744873,-7.7985133575439445,-0.34491467666625975
1759348220424637000,2.162636962890625,5.117755686187744,-7.895029611968994,-0.2088940948486328
1759348220434695000,2.17269482421875,4.987271695709228,-7.959224143981933,-0.184503165435791
1759348220444754000,2.18275390625,4.772841009521484,-7.850287968444824,-0.05491700057983398
1759348220454812200,2.192812255859375,4.514416867828369,-7.852233257293701,0.02558803024291992
1759348220464870000,2.202869873046875,4.403535403442382,-7.926303871154785,0.19422960968017577
1759348220474927900,2.212927978515625,4.434211112213134,-8.169165702056885,0.21517887420654297
1759348220484985900,2.22298583984375,4.489577025604248,-8.275857313537598,0.14933832855224607
1759348220495044900,2.233044921875,4.630685285949707,-8.368183715057372,0.26216508178710934
1759348220505102800,2.243102783203125,4.845115972137451,-8.428487669372558,0.4294599227905273
1759348220515161000,2.2531611328125,4.757129061126709,-8.287529046630858,0.5366004470825195
1759348220525219000,2.263218994140625,4.531625192260742,-8.079083864593505,0.7139210075378417
1759348220535276800,2.27327685546875,4.077774340057373,-7.850587243652344,0.831835439300537
1759348220545336000,2.283336181640625,3.6545991966247557,-7.697807250213622,0.8080430603027343
1759348220555394000,2.29339404296875,3.6846763549804686,-7.905055331420898,0.8144774772644042
1759348220565451800,2.30345166015625,3.8194998359680175,-8.059182063293457,0.8848071510314941
1759348220575510000,2.313510009765625,4.155585894012451,-8.340800033569336,1.0404302589416503
1759348220585569000,2.323569091796875,4.3807904876708985,-8.47233148727417,1.1189900009155274
1759348220595626800,2.333626708984375,4.369118754577636,-8.500762631988525,1.0410288093566893
1759348220605685000,2.34368505859375,4.029291756439209,-8.386888415527343,0.8346785537719726
1759348220615743000,2.353742919921875,3.6988919273376464,-8.149263900756836,0.7282862174987793
1759348220625801000,2.363801025390625,3.4070986000061034,-7.939920893096923,0.7502829452514648
1759348220635860000,2.37385986328125,3.22394217300415,-8.004115425109863,0.8512883277893066
1759348220645918000,2.38391796875,3.2990602500915527,-8.419808688354491,1.0717045181274414
1759348220655976000,2.393975830078125,3.503315579223633,-8.764124814605712,1.3308768478393553
1759348220666034000,2.404033935546875,3.6124013923645015,-8.879345769500732,1.3953706550598144
1759348220676093000,2.414093017578125,3.6598365127563475,-8.89341170425415,1.3691840744018553
1759348220686151000,2.42415087890625,3.5289036094665525,-8.832209924316405,1.3271359077453613
1759348220696209000,2.434208984375,3.2516251296997067,-8.72147809753418,1.2797007873535156
1759348220706267400,2.444267333984375,3.0473698005676266,-8.692747677612305,1.2880804931640624
1759348220716326100,2.454326171875,2.972999911499023,-8.71384657974243,1.3874398620605468
1759348220726384400,2.46438427734375,2.9788357780456542,-8.801983128356934,1.4884452445983887
1759348220736442400,2.4744423828125,3.106476654052734,-8.992920710754394,1.5505448501586914
1759348220746500400,2.484500244140625,3.2154128295898436,-9.235183991241454,1.5394716674804687
1759348220756559400,2.494559326171875,3.357568553161621,-9.331101695251464,1.4841057540893554
1759348220766617300,2.504617431640625,3.290979819488525,-9.211391612243652,1.3820529083251953
1759348220776675300,2.51467529296875,3.0838813758850097,-8.985139555358886,1.2645873893737791
1759348220786733300,2.5247333984375,2.8194717300415038,-8.739284972381592,1.1985972061157226
1759348220796792300,2.534792236328125,2.6325743629455567,-8.59997236328125,1.2547113075256346
1759348220806850600,2.5448505859375,2.6259903083801266,-8.659378491973877,1.4718354705810546
1759348220816908300,2.554908203125,2.6891373771667477,-8.93800371017456,1.7660229995727539
1759348220826966300,2.56496630859375,2.652476164245605,-9.061754008483886,1.9901801300048827
1759348220837025300,2.575025390625,2.6728268783569336,-9.044246408843994,2.0931308013916015
1759348220847083300,2.585083251953125,2.686743175506592,-8.89371097946167,2.111386589050293
1759348220857141200,2.595141357421875,2.542342887878418,-8.60595786743164,2.0834043571472165
1759348220867199500,2.605199462890625,2.3211785095214843,-8.345289161682128,2.075623201751709
1759348220877258200,2.61525830078125,2.0163667106628416,-8.177246132659912,2.1306898399353025
1759348220887316200,2.625316162109375,2.032527571868896,-8.515876029968261,2.37489840927124
1759348220897374500,2.63537451171875,2.418891864776611,-9.254487242126464,2.677166368865967
1759348220907432200,2.64543212890625,2.436249826812744,-9.619902270507811,2.811540937042236
1759348220917491500,2.655491455078125,2.270301724243164,-9.60149684524536,2.7501895195007324
1759348220927549400,2.665549560546875,2.1048025344848633,-9.40472339630127,2.5764602615356442
1759348220937607200,2.675607177734375,1.959354783630371,-9.37853681564331,2.5143606559753415
1759348220947665200,2.6856650390625,1.9864391899108886,-9.706991355895996,2.588281632232666
1759348220957724400,2.695724365234375,2.0031986015319823,-9.950900650024414,2.657863117980957
1759348220967782100,2.7057822265625,1.98554136428833,-10.020781410980224,2.7974750022888184
1759348220977840400,2.71584033203125,2.1465514259338376,-10.115651651763915,3.037044805908203
1759348220987898400,2.7258984375,2.27913034286499,-10.001627797698974,3.10273571395874
1759348220997957000,2.73595703125,2.286612223052978,-9.599701194000243,3.0980969482421874
1759348221008015400,2.746015380859375,2.2610241928100585,-9.140313750457763,3.0330045906066894
1759348221018073300,2.7560732421875,2.15777424621582,-8.831611373901367,2.9795839660644527
1759348221028131300,2.76613134765625,1.9665373886108397,-8.684517609405518,2.957886513519287
1759348221038190300,2.7761904296875,1.7085621597290037,-8.719981721496582,2.9441198539733886
1759348221048248300,2.786248291015625,1.4342764320373533,-8.806472256469727,2.906860090637207
1759348221058306300,2.796306396484375,1.2548609451293944,-9.10993731689453,2.8206688308715817
1759348221068364300,2.8063642578125,1.2732663703918456,-9.512163195800781,2.6795605705261227
1759348221078423300,2.81642333984375,1.3202525779724121,-9.457994383239745,2.371157469177246
1759348221088481500,2.8264814453125,1.373224289703369,-9.119214848327637,2.0397101768493653
1759348221098539300,2.836539306640625,1.359158354949951,-8.967781593322753,1.7425298957824706
1759348221108598300,2.846598388671875,1.2684779670715332,-9.01536635131836,1.5254057327270507
1759348221118656500,2.856656494140625,1.158045415496826,-9.287856427764892,1.415272456359863
1759348221128714200,2.86671435546875,1.0821791503906248,-9.539397239685059,1.3154641746520996
1759348221138772200,2.876772216796875,1.0250175857543944,-9.747094233703613,1.2551602203369139
1759348221148831500,2.88683154296875,1.1094131942749024,-9.929652110290526,1.2732663703918456
1759348221158889200,2.89688916015625,1.4164695571899413,-10.005817650604248,1.3434464065551757
1759348221168947200,2.906947265625,1.6753426116943357,-9.822511585998535,1.4547767837524412
1759348221179005400,2.91700537109375,1.732055263519287,-9.64025298461914,1.355417414855957
1759348221189064200,2.927064208984375,1.741033519744873,-9.426121573638916,1.4288894783020019
1759348221199122400,2.937122314453125,1.7510592391967772,-9.364919793701171,1.594837580871582
1759348221209180400,2.947180419921875,1.831713907623291,-9.48133784942627,1.8918682243347167
1759348221219239200,2.9572392578125,2.00439570236206,-9.727042794799804,2.274192301940918
1759348221229297400,2.96729736328125,2.3062147491455076,-9.986364762115478,2.8208184684753417
1759348221239355400,2.97735546875,2.7124808433532714,-9.995941568756104,3.343652256011963
1759348221249413400,2.987413330078125,3.0125042388916015,-9.779565593719482,3.6821325157165523
1759348221259472400,2.997472412109375,3.1398458396911617,-9.458293658447266,3.7858313751220702
1759348221269530400,3.0075302734375,3.132064684295654,-9.23712928009033,3.748870886993408
1759348221279588000,3.017588134765625,2.9267618919372556,-9.185354669189453,3.7108629356384277
1759348221289647400,3.0276474609375,2.638110954284668,-9.21917276763916,3.6221278366088865
1759348221299705300,3.037705322265625,2.3418284988403317,-9.368062183380127,3.4433109001159665
1759348221309763300,3.047763427734375,2.0777181282043458,-9.568426934814452,3.187580235290527
1759348221319821300,3.0578212890625,1.9021932189941406,-9.72360112991333,2.9741970123291015
1759348221329880300,3.06788037109375,1.8516157089233398,-9.841216286468505,2.8781296707153317
1759348221339938300,3.077938232421875,1.7286135986328124,-9.799317757415771,2.7555764732360837
1759348221349996300,3.087996337890625,1.552041226196289,-9.578303016662597,2.6042928558349607
1759348221360055300,3.09805517578125,1.4061445625305176,-9.421333170318603,2.395548398590088
1759348221370113300,3.10811328125,1.1749544647216796,-9.390657461547852,2.159869172668457
1759348221380171300,3.118171142578125,1.1360486877441405,-9.450063590240479,1.9565116691589355
1759348221390230500,3.12823046875,1.1517606361389159,-9.572916062927245,1.8347066596984862
1759348221400288300,3.138288330078125,1.1848305465698241,-9.706392805480956,1.7465701110839842
1759348221410346200,3.14834619140625,1.3207014907836914,-9.7806130569458,1.7253215713500976
1759348221420404500,3.158404541015625,1.3941735542297362,-9.759514154815673,1.7181389663696287
1759348221430463200,3.168463134765625,1.4291887535095213,-9.69846201248169,1.7055694076538086
1759348221440521200,3.178521240234375,1.4244003501892089,-9.642048635864258,1.6971897018432616
1759348221450579500,3.188579345703125,1.509843421936035,-9.484031326293945,1.7462708358764647
1759348221460638200,3.19863818359375,1.7000328163146972,-9.249100288391112,1.853411360168457
1759348221470696200,3.2086962890625,1.7212813560485838,-9.106944564819335,2.044199304962158
1759348221480754400,3.21875439453125,1.8417396270751951,-9.06549494857788,2.2891560623168945
1759348221490812400,3.2288125,1.861042877960205,-9.05891089401245,2.5201965225219727
1759348221500871400,3.238871337890625,1.776048719024658,-9.021800768280029,2.714575769805908
1759348221510929400,3.248929443359375,1.7805378471374511,-8.981099340057373,2.742857276916504
1759348221520987400,3.2589873046875,1.8320131828308104,-8.952518557739257,2.718466347503662
1759348221531046400,3.26904638671875,1.9144635025024412,-8.954912759399413,2.5903765586853025
1759348221541104400,3.2791044921875,2.037914525604248,-8.936208058929443,2.409315058135986
1759348221551162400,3.289162353515625,2.1302409271240235,-8.994566724395751,2.1896470558166503
1759348221561221400,3.299221435546875,2.267608247375488,-9.113977532196044,2.0400094520568848
1759348221571279400,3.309279296875,2.4254759193420408,-9.223512258148192,2.035370686340332
1759348221581337000,3.319337158203125,2.429815409851074,-9.28291838684082,2.0479402450561524
1759348221591396400,3.329396240234375,2.5403975990295407,-9.281272373199462,2.1013608695983885
1759348221601454300,3.339454345703125,2.6816554969787596,-9.245060073089599,2.171391268157959
1759348221611512300,3.34951220703125,2.841618095397949,-9.181763366699219,2.1918916198730467
1759348221621570300,3.3595703125,3.0246248847961423,-9.124452164459228,2.1288941886901855
1759348221631629300,3.36962939453125,3.214515003967285,-9.096320294952392,2.161814461517334
1759348221641687300,3.379687255859375,3.366995722198486,-9.054421765899658,2.0994155807495116
1759348221651745300,3.389745361328125,3.4721909576416015,-9.065046035766601,2.1239561477661133
1759348221661804500,3.399804443359375,3.3966239677429195,-8.996811288452149,2.10031340637207
1759348221671862300,3.4098623046875,3.186233496856689,-8.908076189422607,2.040458364868164
1759348221681920300,3.419920166015625,2.9631238296508786,-8.898349745178223,2.0400094520568848
1759348221691979500,3.4299794921875,2.8076503593444824,-8.886229099273681,2.111835501861572
1759348221702037800,3.440037841796875,2.785952906799316,-9.001300416564941,2.3042694602966307
1759348221712095700,3.450095703125,2.8520927276611325,-9.094375006103515,2.4467244590759276
1759348221722153700,3.46015380859375,2.912546319580078,-9.165303230285645,2.5585037490844726
1759348221732212700,3.470212646484375,2.9351415977478026,-9.182511554718017,2.582445765686035
1759348221742270700,3.480270751953125,2.9224224014282223,-9.074622842407226,2.665344998168945
1759348221752328700,3.49032861328125,2.8953379951477047,-8.977508037567139,2.7193641731262206
1759348221762387700,3.5003876953125,2.7964275390625,-8.933514582061767,2.775927187347412
1759348221772445700,3.51044580078125,2.754828285217285,-8.932467118835449,2.8342858528137205
1759348221782503700,3.520503662109375,2.8133365882873536,-8.939948999023438,3.0241759719848633
1759348221792562700,3.530562744140625,2.945765867614746,-9.013720337677002,3.178601979064941
1759348221802620700,3.54062060546875,2.9870658462524413,-8.916156620025633,3.1988030555725095
1759348221812678700,3.5506787109375,2.908655741882324,-8.734197293853759,3.1759085021972653
1759348221822737700,3.560737548828125,2.900425673675537,-8.65683465270996,3.0769980461120605
1759348221832795600,3.570795654296875,2.8568811309814452,-8.65713392791748,2.8974329216003416
1759348221842854000,3.58085400390625,2.7608137893676754,-8.688557824707031,2.774430811309814
1759348221852912600,3.59091259765625,2.6656442733764645,-8.732551280212402,2.7391163368225095
1759348221862970600,3.600970703125,2.5718214958190915,-8.800337114715576,2.7371710479736326
1759348221873028900,3.61102880859375,2.577806999969482,-8.846126221466063,2.729838805389404
1759348221883087600,3.621087646484375,2.657863117980957,-8.879645044708251,2.71337866897583
1759348221893145900,3.631145751953125,2.8335376647949215,-8.811709572601318,2.7525837211608883
1759348221903203800,3.641203857421875,2.870198877716064,-8.769362130737305,2.8679543136596677
1759348221913262600,3.6512626953125,2.8055554328918455,-8.800486752319335,2.993051350402832
1759348221923320800,3.66132080078125,2.8163293403625485,-8.814552687072753,3.006369097137451
1759348221933378800,3.67137890625,2.8685528640747067,-8.812308123016356,2.8993782104492185
1759348221943437600,3.6814375,2.9146412460327147,-8.789413569641113,2.7061960639953613
1759348221953495800,3.691495849609375,2.973897737121582,-8.787169005584717,2.52184253616333
1759348221963553800,3.7015537109375,3.0641292121887207,-8.833407025146483,2.4193407775878906
1759348221973611500,3.711611572265625,3.154510324859619,-8.900743946838379,2.4172458511352537
1759348221983670800,3.7216708984375,3.2035914588928223,-8.97002615737915,2.401683540344238
1759348221993728500,3.731728515625,3.2405519470214843,-9.050980101013183,2.415150924682617
1759348222003786800,3.741786865234375,3.2510265792846678,-9.14914236907959,2.446425183868408
1759348222013845800,3.751845703125,3.2653917892456055,-9.167248519134521,2.4239795433044433
1759348222023903500,3.761903564453125,3.249081290435791,-9.123404701232909,2.3841759407043455
1759348222033961700,3.771961669921875,3.1950621154785153,-9.057863430786131,2.338536471557617
1759348222044020700,3.782020751953125,3.212569715118408,-8.986635931396483,2.411409984588623
1759348222054078500,3.792078369140625,3.171120098876953,-8.898349745178223,2.5197476097106932
1759348222064136700,3.80213671875,3.005920184326172,-8.85525411529541,2.5535657081604004
1759348222074195700,3.81219580078125,2.8202199180603027,-8.90657981338501,2.6623522460937497
1759348222084253700,3.822253662109375,2.671031227111816,-8.989479045867919,2.7263971405029297
1759348222094311700,3.832311767578125,2.5917232971191404,-9.060107994842529,2.7685949447631835
1759348222104370700,3.84237060546875,2.625242120361328,-9.09661957015991,2.8534394660949705
1759348222114428700,3.8524287109375,2.727893516540527,-9.122057962799072,2.8859108261108397
1759348222124486700,3.862486572265625,2.8151322395324705,-9.007884471130371,2.9140426956176757
1759348222134546000,3.8725458984375,2.8752865562438963,-8.83580122680664,2.8986300224304196
1759348222144603600,3.882603759765625,2.951901009368896,-8.770409593963622,2.907309003448486
1759348222154661600,3.89266162109375,3.074454206848144,-8.841936368560791,2.8302456375122067
1759348222164721000,3.902720947265625,3.156006700897217,-8.953266745758055,2.766200743103027
1759348222174778600,3.912778564453125,3.2685341789245603,-9.050531188201903,2.8100445610046383
1759348222184836600,3.922836669921875,3.2894834434509277,-9.077465956878662,2.7596166885375975
1759348222194896000,3.932895751953125,3.2363620941162106,-9.023746057128905,2.643797183227539
1759348222204953600,3.94295361328125,3.1510686599731446,-8.964040653228759,2.5948656867980957
1759348222215011600,3.953011474609375,3.011456775665283,-8.91870045928955,2.485330960845947
1759348222225070600,3.963070556640625,2.901622774505615,-8.896105181121825,2.4172458511352537
1759348222235128600,3.973128662109375,2.7768250129699705,-8.877550118255614,2.433257074737549
1759348222245186800,3.983186767578125,2.668188112640381,-8.883385984802246,2.4842834976196286
1759348222255245600,3.99324560546875,2.629731248474121,-8.91211640472412,2.562843239593506
1759348222265303600,4.003303466796875,2.653822902679443,-8.966883767700194,2.670432676696777
1759348222275361800,4.01336181640625,2.6966192573547363,-9.004442806243896,2.7247511268615723
1759348222285420500,4.023420654296875,2.7314848190307615,-8.972569996643067,2.6511294258117672
1759348222295478500,4.033478515625,2.7274446037292477,-8.90613090057373,2.567781280517578
1759348222305536800,4.043536865234375,2.6982652709960937,-8.841337818145751,2.511367903900146
1759348222315595500,4.053595458984375,2.638709504699707,-8.86153889465332,2.4904186393737793
1759348222325653800,4.06365380859375,2.5591022994995116,-8.942193563079833,2.495655955505371
1759348222335711700,4.073711669921875,2.5007436340332028,-9.031527212524413,2.53471137008667
1759348222345770500,4.0837705078125,2.517353408050537,-9.135674984741211,2.5752631607055663
1759348222355828700,4.093828857421875,2.6089316215515135,-9.234735078430175,2.657713480377197
1759348222365886700,4.10388671875,2.7834090675354,-9.284414762878418,2.7448025657653807
1759348222375945700,4.11394580078125,3.197905229949951,-9.281721286010741,2.832041288757324
1759348222386003700,4.124003662109375,3.275866421508789,-9.185803582000732,2.8675054008483887
1759348222396061700,4.134061767578125,3.0665234138488766,-8.927678715515135,2.8598738830566406
1759348222406120700,4.14412060546875,2.881272060394287,-8.748263228607177,2.858227869415283
1759348222416178700,4.1541787109375,2.754828285217285,-8.741080623626708,2.887407202148437
1759348222426236700,4.164236572265625,2.740163800048828,-8.851662812805175,2.937386161804199
1759348222436295700,4.174295654296875,3.017891192626953,-8.90702872619629,2.8836662620544433
1759348222446353700,4.184353759765625,3.2525229553222657,-8.98977832107544,2.773233710479736
1759348222456411600,4.19441162109375,3.326743206787109,-9.089436965179443,2.6828525978088376
1759348222466470700,4.204470703125,3.3131261848449705,-9.095721744537354,2.588880182647705
