time,seconds_elapsed,z,y,x
1759336331421631700,0.0806318359375,-0.4813222885131836,-0.09027099609375,-0.35849952697753906
1759336331431631600,0.090631591796875,0.15586471557617188,0.11017727851867676,0.145757794380188
1759336331461631700,0.1206318359375,0.1840505599975586,-0.27538323402404785,0.6319501399993896
1759336331471631600,0.130631591796875,0.36203479766845703,-0.08839130401611328,0.5290130376815796
1759336331481631700,0.1406318359375,0.2892265319824219,0.10239171981811523,0.35990846157073975
1759336331491631600,0.150631591796875,0.23422718048095703,0.12649178504943848,0.275105357170105
1759336331501631700,0.1606318359375,0.2057666778564453,0.1282510757446289,0.21509766578674316
1759336331511632400,0.17063232421875,-0.021039962768554688,0.11343884468078613,0.03822064399719238
1759336331521632500,0.180632568359375,-0.2423686981201172,0.1290445327758789,-0.13831102848052979
1759336331531632400,0.19063232421875,-0.37044525146484375,0.2849571704864502,-0.25306975841522217
1759336331541632500,0.200632568359375,-0.543187141418457,0.3498709201812744,-0.3243753910064697
1759336331551632400,0.21063232421875,-0.5843725204467773,0.29929423332214355,-0.3304980993270874
1759336331561632500,0.220632568359375,-0.5406360626220703,0.25356388092041016,-0.21991419792175293
1759336331571632400,0.23063232421875,-0.3860797882080078,0.3098924160003662,-0.10543453693389893
1759336331581632500,0.240632568359375,-0.3408327102661133,0.2784237861633301,-0.10640490055084229
1759336331591632400,0.25063232421875,-0.303924560546875,0.21293163299560547,-0.02418684959411621
1759336331601632500,0.260632568359375,-0.23665332794189453,0.10967516899108887,0.14376866817474365
1759336331611631600,0.270631591796875,-0.27123069763183594,0.06434416770935059,0.1324518918991089
1759336331621631500,0.280631591796875,-0.2857694625854492,0.07351851463317871,0.07402539253234863
1759336331631631600,0.290631591796875,-0.22991180419921875,0.12637591361999512,0.06578052043914795
1759336331641631500,0.300631591796875,-0.21599769592285156,0.10164713859558105,-0.09603285789489746
1759336331651631600,0.310631591796875,0.0778207778930664,0.1861715316772461,-0.1274867057800293
1759336331661631500,0.320631591796875,0.00849151611328125,0.2019500732421875,-0.08277606964111328
1759336331671631600,0.330631591796875,-0.09158515930175781,0.31015896797180176,-0.24657070636749268
1759336331681631500,0.340631591796875,0.1314096450805664,0.5672600269317627,-0.16195237636566162
1759336331691631600,0.350631591796875,0.06470775604248047,0.08619451522827148,0.3373185396194458
1759336331701631500,0.360631591796875,-0.09729862213134766,0.23982477188110352,0.7185367345809937
1759336331711632400,0.37063232421875,-0.2194538116455078,0.4708404541015625,0.762595534324646
1759336331721632800,0.3806328125,-0.5938844680786133,0.17908024787902832,0.5621061325073242
1759336331731632600,0.390632568359375,-0.9203052520751953,-0.21101927757263184,0.45810627937316895
1759336331741632800,0.4006328125,-0.9967164993286133,-0.7121071815490723,0.3013436794281006
1759336331751632600,0.410632568359375,-0.13857364654541016,-0.22627496719360352,0.034307003021240234
1759336331761632800,0.4206328125,0.3479461669921875,0.6162831783294678,-0.32541847229003906
1759336331771632600,0.430632568359375,0.19249725341796875,0.45470643043518066,-0.6321923732757568
1759336331781632800,0.4406328125,0.18112850189208984,0.10642838478088379,-0.7242687940597534
1759336331791632600,0.450632568359375,0.15091800689697266,0.048952341079711914,-0.6712324619293213
1759336331801632800,0.4606328125,-0.10167407989501953,-0.0368804931640625,-0.42750775814056396
1759336331811631900,0.4706318359375,-0.06292724609375,-0.2788395881652832,-0.14268875122070312
1759336331821632000,0.480632080078125,-0.06790542602539062,-0.3706808090209961,0.19803929328918457
1759336331831632000,0.4906318359375,-0.14234447479248047,-0.21102166175842285,0.5606496334075928
1759336331841632000,0.500632080078125,-0.1349353790283203,-0.19046711921691895,0.6809582710266113
1759336331851631900,0.5106318359375,-0.1378307342529297,-0.13339018821716309,0.7343555688858032
1759336331861632000,0.520632080078125,-0.26104164123535156,-0.04286694526672363,0.6960153579711914
1759336331871632000,0.5306318359375,-0.5455436706542969,0.0746924877166748,0.5245270729064941
1759336331881632000,0.540632080078125,-0.9862203598022461,-0.03316164016723633,0.1595449447631836
1759336331891631900,0.5506318359375,-0.6515121459960938,-0.32540273666381836,0.042604923248291016
1759336331901632000,0.560632080078125,-0.5288047790527344,-0.5373961925506592,0.07129549980163574
1759336331911632600,0.570632568359375,-0.46236419677734375,-0.7951140403747559,0.12366104125976562
1759336331921632800,0.5806328125,-0.3224315643310547,-0.9225634336471558,0.28540825843811035
1759336331931632600,0.590632568359375,-0.47064971923828125,-1.0686700344085693,0.3904304504394531
1759336331941632800,0.6006328125,-0.1396503448486328,-1.1009358167648315,0.5339221954345703
1759336331951633000,0.6106328125,-0.29876232147216797,-1.0085396766662598,0.5731759071350098
1759336331961632800,0.6206328125,-0.6439189910888672,-0.9901928901672363,0.5117745399475098
1759336331971633000,0.6306328125,-0.9986896514892578,-1.0751885175704956,0.3583073616027832
1759336331981632800,0.6406328125,-1.3412461280822754,-1.2093589305877686,0.20676136016845703
1759336331991633000,0.6506328125,-1.5446233749389648,-1.4530103206634521,0.13999223709106445
1759336332001632800,0.6606328125,-1.485903263092041,-1.8123677968978882,0.2852966785430908
1759336332011631900,0.6706318359375,-1.4564728736877441,-2.027608871459961,0.5314714908599854
1759336332021632000,0.680632080078125,-1.3010058403015137,-1.8731377124786377,0.9087011814117432
1759336332031632000,0.6906318359375,-1.0214223861694336,-2.0186827182769775,0.8734245300292969
1759336332041632000,0.700632080078125,-0.8310890197753906,-2.0077733993530273,0.8699216842651367
1759336332051631900,0.7106318359375,-0.5740480422973633,-1.938496708869934,0.909282922744751
1759336332061632000,0.720632080078125,0.14028358459472656,-2.5424511432647705,0.6681602001190186
1759336332071632000,0.7306318359375,0.029639244079589844,-2.3352503776550293,0.621929407119751
1759336332081632000,0.740632080078125,0.07553482055664062,-2.3498470783233643,0.4972572326660156
1759336332091631900,0.7506318359375,-0.8560857772827148,-3.048906087875366,-0.22214961051940918
1759336332101632000,0.760632080078125,-0.6836738586425781,-2.928034782409668,-0.447953462600708
1759336332111632600,0.770632568359375,-0.6357564926147461,-2.965056896209717,-0.4014618396759033
1759336332121632800,0.7806328125,-0.811011791229248,-3.181309700012207,-0.1992640495300293
1759336332131632600,0.790632568359375,-1.097151279449463,-3.378288984298706,0.12047433853149414
1759336332141632800,0.8006328125,-1.1511707305908203,-3.662501811981201,0.25449085235595703
1759336332151632600,0.810632568359375,-1.096186637878418,-4.061476707458496,0.11269283294677734
1759336332161632800,0.8206328125,-0.9642529487609863,-4.172353744506836,-0.5600113868713379
1759336332171631900,0.8306318359375,-0.7268342971801758,-3.8775525093078613,-1.115004539489746
1759336332181632000,0.840632080078125,-0.5428690910339355,-3.7388525009155273,-1.403273582458496
1759336332191632000,0.8506318359375,-1.2836337089538574,-4.434718132019043,-0.10369205474853516
1759336332201632000,0.860632080078125,-1.0170502662658691,-4.322958946228027,0.42159461975097656
1759336332211631000,0.870631103515625,-0.7937211990356445,-3.867673873901367,0.3400840759277344
1759336332221631000,0.880630859375,-0.4234442710876465,-3.5254344940185547,0.08765029907226562
1759336332231631000,0.890631103515625,-0.16552495956420898,-3.6847567558288574,-0.16808462142944336
1759336332241631000,0.900630859375,0.4139566421508789,-3.265610694885254,-0.5428218841552734
1759336332251631000,0.910631103515625,1.0376853942871094,-2.755094289779663,-0.770754337310791
1759336332261631000,0.920630859375,0.6880970001220703,-2.483856201171875,0.3575587272644043
1759336332271631000,0.930631103515625,0.046587467193603516,-2.351889133453369,1.5565176010131836
1759336332281631000,0.940630859375,-0.1558089256286621,-2.048963785171509,2.348965644836426
1759336332291631000,0.950631103515625,-0.25179243087768555,-1.8517884016036987,2.9704198837280273
1759336332301631000,0.960630859375,0.4059901237487793,-1.441585659980774,3.301311492919922
1759336332311632000,0.9706318359375,1.2298460006713867,-0.991808295249939,3.326540946960449
1759336332321632000,0.980632080078125,1.997568130493164,-0.394761323928833,3.1704025268554688
1759336332331631900,0.9906318359375,2.14239501953125,-0.12367773056030273,3.161129951477051
1759336332341632000,1.000632080078125,2.7458834648132324,0.3592061996459961,3.364039421081543
1759336332351631600,1.010631591796875,2.0949087142944336,0.8559497594833374,4.575387001037598
1759336332361631500,1.020631591796875,2.289304256439209,1.765152931213379,5.587725639343262
1759336332371630600,1.030630615234375,1.3058137893676758,2.509387731552124,5.9539690017700195
1759336332381630700,1.040630615234375,-0.28038549423217773,1.6164792776107788,5.971322059631348
1759336332391630600,1.050630615234375,-1.0616743564605713,1.164463758468628,5.7805328369140625
1759336332401630700,1.060630615234375,-1.4407706260681152,1.4405686855316162,5.300739288330078
1759336332411629800,1.0706298828125,-1.529844880104065,2.2612862586975098,4.857900619506836
1759336332421629700,1.080629638671875,-1.3049962520599365,3.3355872631073,4.52176570892334
1759336332431629800,1.0906298828125,-1.2141773700714111,3.4399306774139404,4.036627769470215
1759336332441629700,1.100629638671875,-0.9962489604949951,3.2092294692993164,3.748171806335449
1759336332451629800,1.1106298828125,-0.6116609573364258,3.0470848083496094,3.2366724014282227
1759336332461629700,1.120629638671875,0.10182595252990723,3.0846118927001953,2.810762405395508
1759336332471630600,1.130630615234375,0.9133725166320801,3.4765357971191406,2.4837217330932617
1759336332481630700,1.140630615234375,1.011876106262207,3.553645133972168,2.9868078231811523
1759336332491630600,1.150630615234375,0.2893693447113037,3.2338099479675293,4.651919364929199
1759336332501630500,1.16063037109375,-0.6144018173217773,2.7295398712158203,5.791080474853516
1759336332511631400,1.17063134765625,-1.4218672513961792,2.2686593532562256,6.107267379760742
1759336332521631500,1.180631591796875,-1.6978974342346191,3.5294947624206543,5.601992607116699
1759336332531631400,1.19063134765625,-2.01316499710083,4.859866619110107,4.181718826293945
1759336332541631500,1.200631591796875,-2.8972008228302,4.382674217224121,2.6830368041992188
1759336332551631400,1.21063134765625,-3.457463026046753,3.741605281829834,1.2031745910644531
1759336332561631500,1.220631591796875,-3.570293426513672,3.726094961166382,-0.2516136169433594
1759336332571631400,1.23063134765625,-3.5913350582122803,3.6170551776885986,-0.30296897888183594
1759336332581631500,1.240631591796875,-2.5225539207458496,3.5364224910736084,-2.453784942626953
1759336332601631500,1.260631591796875,-0.46761465072631836,2.5613837242126465,-3.421642780303955
1759336332611597300,1.270597412109375,0.18423843383789062,2.497610569000244,-3.5575523376464844
1759336332621564000,1.28056396484375,-0.05843973159790039,1.2752869129180908,-3.870222568511963
1759336332631530500,1.290530517578125,-0.6093189716339111,-0.38266777992248535,-3.731192111968994
1759336332641497300,1.300497314453125,-1.575146198272705,-1.959991216659546,-3.79617977142334
1759336332651464400,1.31046435546875,-3.0101072788238525,-3.391023635864258,-3.727886199951172
1759336332661431000,1.32043115234375,-3.0297868251800537,-2.436272144317627,-3.3401832580566406
1759336332671398400,1.3303984375,-2.765547752380371,-1.4581761360168457,-2.5587940216064453
1759336332681365200,1.340365234375,-3.097567558288574,-0.8501286506652832,-1.8100872039794922
1759336332691331800,1.350331787109375,-3.1081109046936035,-0.7931699752807617,-1.2609272003173828
1759336332701298400,1.36029833984375,-3.1549763679504395,-0.7640104293823242,-1.2362289428710938
1759336332711266000,1.37026611328125,-1.2355353832244873,-1.3586430549621582,-2.4381027221679688
1759336332721232600,1.380232666015625,0.1320350170135498,-0.9503445625305176,-2.0341968536376953
1759336332731199200,1.39019921875,0.3258652687072754,0.6799969673156738,-3.269120693206787
1759336332741166000,1.400166015625,-0.1363992691040039,-0.14502763748168945,-2.7126431465148926
1759336332751132700,1.410132568359375,0.6151371002197266,-0.25390100479125977,-1.5611777305603027
1759336332761099300,1.420099365234375,1.2008676528930664,-0.16505098342895508,-0.38483524322509766
1759336332771066000,1.430066162109375,0.9477694034576416,-0.29406166076660156,1.553426742553711
1759336332781032700,1.44003271484375,0.26575982570648193,-0.8292961120605469,3.8860645294189453
1759336332790999300,1.449999267578125,-0.2550380229949951,-0.6700224876403809,4.978339195251465
1759336332800966000,1.4599658203125,-0.4611663818359375,-0.36705446243286133,5.129386901855469
1759336332810931700,1.469931640625,-0.46025514602661133,-0.4707221984863281,4.970855712890625
1759336332820898300,1.479898193359375,-0.41253745555877686,-0.810889720916748,4.083569526672363
1759336332830865000,1.489864990234375,-0.47383952140808105,-0.8173489570617676,4.093105316162109
1759336332840831700,1.499831787109375,-0.46018826961517334,-0.8447990417480469,0.709228515625
1759336332850798300,1.50979833984375,-0.48662078380584717,-1.1097803115844727,-0.41222667694091797
1759336332860765000,1.519764892578125,-0.5777891874313354,-0.9496679306030273,-0.47306203842163086
1759336332870731800,1.529731689453125,-0.43615543842315674,-0.8579277992248535,0.01562976837158203
1759336332880698400,1.539698486328125,0.1699681282043457,-0.646087646484375,0.40505123138427734
1759336332890665000,1.5496650390625,0.7087924480438232,-0.3637518882751465,0.9182033538818359
1759336332900632000,1.559632080078125,1.1750743389129639,-0.5561890602111816,1.7109565734863281
1759336332910921200,1.569921142578125,1.2233996391296387,-0.9297757148742676,2.4559383392333984
1759336332920921300,1.57992138671875,0.8017759323120117,-1.043454647064209,3.004397392272949
1759336332930921200,1.589921142578125,0.41078877449035645,-0.6136646270751953,2.7827253341674805
1759336332940921300,1.59992138671875,-0.2362358570098877,0.014051437377929688,2.2179365158081055
1759336332950921200,1.609921142578125,-1.3975894451141357,0.16719722747802734,1.3939266204833984
1759336332960921300,1.61992138671875,-2.0177419185638428,0.10753631591796875,0.5048398971557617
1759336332970921200,1.629921142578125,-2.107974052429199,0.4033939838409424,-0.1104726791381836
1759336332980921300,1.63992138671875,-1.585710048675537,0.40546345710754395,-0.2747793197631836
1759336332990921200,1.649921142578125,-1.1894490718841553,0.07476282119750977,-0.19129085540771484
1759336333000921300,1.65992138671875,-0.8365011215209961,-0.18562698364257812,-0.21117687225341797
1759336333010920400,1.66992041015625,-0.6188938617706299,-0.15286779403686523,-0.22349929809570312
1759336333020920300,1.67992041015625,-0.25353288650512695,-0.03946399688720703,-0.25394344329833984
1759336333030920400,1.68992041015625,-0.020839929580688477,-0.05616927146911621,-0.15910625457763672
1759336333040920300,1.69992041015625,0.20463347434997559,-0.1525557041168213,-0.042405128479003906
1759336333050920400,1.70992041015625,0.13488411903381348,-0.1699209213256836,-0.018097877502441406
1759336333060920300,1.71992041015625,0.9111270904541016,0.14719772338867188,-0.027353286743164062
1759336333070920400,1.72992041015625,0.6934363842010498,0.24242138862609863,0.030757904052734375
1759336333080920300,1.73992041015625,0.14779233932495117,0.04952692985534668,0.12769699096679688
1759336333090920400,1.74992041015625,-0.3368504047393799,-0.3223247528076172,0.19519710540771484
1759336333100920600,1.759920654296875,-0.3848230838775635,-0.3702585697174072,0.1973562240600586
1759336333110921500,1.76992138671875,-0.3956112861633301,-0.7264516353607178,-0.6083621978759766
1759336333120921300,1.77992138671875,-0.2518730163574219,-0.7595975399017334,-1.1188626289367676
1759336333130921500,1.78992138671875,-0.28884363174438477,-0.7982585430145264,-1.11677885055542
1759336333140921300,1.79992138671875,0.5297555923461914,-0.9334986209869385,-1.3331074714660645
1759336333150921500,1.80992138671875,0.7092065811157227,-1.0447742938995361,-1.5093770027160645
1759336333160921300,1.81992138671875,1.1811823844909668,-0.7018136978149414,-1.3572006225585938
1759336333170921500,1.82992138671875,1.1217780113220215,-0.5789618492126465,-0.7332892417907715
1759336333190921500,1.84992138671875,0.10992097854614258,-0.9329192638397217,0.37630271911621094
1759336333200921000,1.859921142578125,-0.06663990020751953,-0.7336018085479736,0.5135107040405273
1759336333210920200,1.869920166015625,-0.23794889450073242,-0.6739647388458252,0.25951051712036133
1759336333220920300,1.87992041015625,-0.27124977111816406,-0.5742785930633545,-0.2549018859863281
1759336333230920200,1.889920166015625,0.021339893341064453,-0.26433396339416504,-1.0387258529663086
1759336333240920300,1.89992041015625,0.677863597869873,-0.05714893341064453,-1.4278850555419922
1759336333250920200,1.909920166015625,0.6011314392089844,-0.08369946479797363,-1.3898444175720215
1759336333260920300,1.91992041015625,1.6155328750610352,0.23339390754699707,-1.3030357360839844
1759336333270920200,1.929920166015625,1.8022756576538086,0.16055727005004883,-1.0342884063720703
1759336333280920300,1.93992041015625,1.6692790985107422,0.20006728172302246,-0.8748660087585449
1759336333290920200,1.949920166015625,1.4977197647094727,0.19152188301086426,-0.8848519325256348
1759336333300920300,1.95992041015625,1.274582862854004,0.16749334335327148,-0.8532500267028809
1759336333310921000,1.9699208984375,1.1263256072998047,0.01104283332824707,-0.7149639129638672
1759336333320921000,1.979921142578125,1.043837070465088,0.07619690895080566,-0.4694485664367676
1759336333330921000,1.9899208984375,0.4239468574523926,0.05333113670349121,-0.27397918701171875
1759336333340921000,1.999921142578125,-0.009608268737792969,0.07669878005981445,-0.21696758270263672
1759336333350921000,2.0099208984375,-0.41839027404785156,0.15276575088500977,-0.26017332077026367
1759336333360921000,2.019921142578125,-0.7249789237976074,0.23956847190856934,-0.40601253509521484
1759336333370921000,2.0299208984375,-0.9062151908874512,0.361858606338501,-0.5831913948059082
1759336333380921000,2.039921142578125,-0.7415943145751953,0.4503304958343506,-0.5597472190856934
1759336333390921000,2.0499208984375,-0.7531208992004395,0.5079174041748047,-0.3521709442138672
1759336333400921000,2.059921142578125,-1.078099250793457,0.44828343391418457,-0.14147043228149414
1759336333410920200,2.069920166015625,-1.202765941619873,0.4540672302246094,-0.16971492767333984
1759336333420920300,2.07992041015625,-1.023317813873291,0.4373636245727539,-0.32536792755126953
1759336333430920200,2.089920166015625,-0.4272923469543457,0.6560816764831543,-0.6063799858093262
1759336333440920300,2.09992041015625,0.8697881698608398,0.7651575803756714,-0.8921141624450684
1759336333450920200,2.109920166015625,2.1370296478271484,1.6690475940704346,-0.9542660713195801
1759336333460920300,2.11992041015625,2.8296923637390137,1.249611735343933,-1.10746431350708
1759336333470920200,2.129920166015625,3.1924352645874023,0.8292450904846191,-0.9405307769775391
1759336333480920300,2.13992041015625,3.267714500427246,0.6561825275421143,-0.47815847396850586
1759336333490920200,2.149920166015625,2.9194650650024414,0.41160011291503906,-0.12524652481079102
1759336333500920300,2.15992041015625,2.376516342163086,0.03283882141113281,-0.10635089874267578
1759336333510921000,2.1699208984375,1.4116148948669434,-0.40289950370788574,-0.15795326232910156
1759336333520921000,2.179921142578125,-0.04496335983276367,-0.7468647956848145,-0.48119592666625977
1759336333530921000,2.1899208984375,-0.9919989109039307,-0.9386987686157227,-0.4865379333496094
1759336333540921000,2.199921142578125,-1.2223670482635498,-1.2534401416778564,-0.18566036224365234
1759336333550921000,2.2099208984375,-1.0602772235870361,-1.2606489658355713,-0.2717781066894531
1759336333560921000,2.219921142578125,-1.1965765953063965,-1.7864296436309814,-0.6630282402038574
1759336333570921000,2.2299208984375,-1.717489242553711,-1.5303316116333008,0.5032949447631836
1759336333580921000,2.239921142578125,-2.242687463760376,-0.5415863990783691,1.3059024810791016
1759336333590921000,2.2499208984375,-2.7007856369018555,0.2337181568145752,1.216782569885254
1759336333600921000,2.259921142578125,-3.24802827835083,0.6460604667663574,0.6354169845581055
1759336333610920200,2.269920166015625,-3.0088887214660645,0.6876094341278076,0.561859130859375
1759336333620920300,2.27992041015625,-4.160037517547607,-0.5395205020904541,-0.3166494369506836
1759336333630920200,2.289920166015625,-3.8881683349609375,-1.2885291576385498,-0.3073616027832031
1759336333640920300,2.29992041015625,-2.8264036178588867,-0.7057271003723145,-0.015371322631835938
1759336333650920200,2.309920166015625,-1.9063042402267456,0.572629451751709,0.48002147674560547
1759336333660920300,2.31992041015625,-0.7874050140380859,1.5323331356048584,0.8910112380981445
1759336333670920200,2.329920166015625,0.06149005889892578,1.5776197910308838,0.9071264266967773
1759336333680920300,2.33992041015625,0.706322193145752,0.5160150527954102,1.0297117233276367
1759336333690920200,2.349920166015625,1.4712398052215576,-0.312178373336792,1.123382568359375
1759336333700920300,2.35992041015625,1.8726673126220703,0.031870365142822266,1.0389938354492188
1759336333710921000,2.3699208984375,1.6397662162780762,0.698594331741333,0.08221626281738281
1759336333720921000,2.379921142578125,0.7459936141967773,1.255223035812378,-1.3362302780151367
1759336333730921000,2.3899208984375,-0.13801908493041992,1.6108062267303467,-1.8852152824401855
1759336333740921000,2.399921142578125,-0.030951976776123047,1.6616625785827637,-1.89308500289917
1759336333750921000,2.4099208984375,-0.6603286266326904,1.0139567852020264,-1.1836624145507812
1759336333760921000,2.419921142578125,-0.29047417640686035,0.27407121658325195,0.0016345977783203125
1759336333770921000,2.4299208984375,0.2360227108001709,-0.3147001266479492,1.4717092514038086
1759336333780921000,2.439921142578125,0.3692582845687866,-0.17077922821044922,1.5091876983642578
1759336333790921000,2.4499208984375,-1.0461100339889526,0.27701759338378906,1.3888158798217773
1759336333800921000,2.459921142578125,-0.9274100065231323,0.4095187187194824,1.4322566986083984
1759336333810920200,2.469920166015625,-2.194550037384033,1.8937723636627197,-0.36334705352783203
1759336333820920300,2.47992041015625,2.8530783653259277,-0.885777473449707,-0.6391544342041016
1759336333830920200,2.489920166015625,-0.894504964351654,2.261129379272461,-2.040182590484619
1759336333840920300,2.49992041015625,-1.49445641040802,1.4989776611328125,-1.5305581092834473
1759336333850920200,2.509920166015625,0.5523667335510254,-1.6856021881103516,-0.27004051208496094
1759336333860920300,2.51992041015625,1.169887900352478,-0.6824321746826172,0.06778430938720703
1759336333870920200,2.529920166015625,-1.6189298629760742,1.1617660522460938,0.32410383224487305
1759336333880920300,2.53992041015625,-2.766554355621338,0.5615334510803223,0.5617647171020508
1759336333890920200,2.549920166015625,0.708832859992981,-2.275635242462158,1.0985722541809082
1759336333900920300,2.55992041015625,1.3181138038635254,-3.493692398071289,0.4656195640563965
1759336333910921200,2.569921142578125,-1.5537983179092407,-0.0970621109008789,-0.07022571563720703
1759336333920921000,2.579921142578125,-1.0231173038482666,0.6546988487243652,-0.7339301109313965
1759336333930921200,2.589921142578125,-0.11706626415252686,0.47806406021118164,-0.6441230773925781
1759336333940921000,2.599921142578125,1.007070541381836,0.12890958786010742,-0.5148353576660156
1759336333950921200,2.609921142578125,3.020596504211426,-0.11043310165405273,-1.1593737602233887
1759336333960921000,2.619921142578125,0.4701526165008545,0.05139017105102539,-1.7183051109313965
1759336333970921200,2.629921142578125,-2.282290458679199,0.2960987091064453,-2.249690532684326
1759336333980921000,2.639921142578125,-2.3464431762695312,1.282425880432129,-1.640183925628662
1759336333990921200,2.649921142578125,-0.8755202293395996,2.4496312141418457,-1.0804595947265625
1759336334000921000,2.659921142578125,-0.38078272342681885,3.2164158821105957,-0.5290813446044922
1759336334010920200,2.669920166015625,0.10287010669708252,3.598576545715332,0.08872032165527344
1759336334020920300,2.67992041015625,-0.19720077514648438,3.211764335632324,0.07268428802490234
1759336334030920200,2.689920166015625,-0.7489485144615173,2.794839859008789,-0.2558140754699707
1759336334040920300,2.69992041015625,-0.7930740118026733,2.3458218574523926,-0.8243541717529297
1759336334050920200,2.709920166015625,-0.1307142972946167,1.7524447441101074,-1.3096017837524414
1759336334060920300,2.71992041015625,0.2166004180908203,1.3428850173950195,-1.701375961303711
1759336334070920200,2.729920166015625,-1.1738853454589844,1.637037754058838,-1.1658594608306885
1759336334080920300,2.73992041015625,-3.2195043563842773,1.877382755279541,-1.4615309238433838
1759336334090920200,2.749920166015625,1.9173839092254639,0.978266716003418,-2.401869297027588
1759336334100920300,2.75992041015625,3.026609420776367,0.13287639617919922,-2.6871304512023926
1759336334110921000,2.7699208984375,0.016361355781555176,0.5093889236450195,-2.1390583515167236
1759336334120921000,2.779921142578125,-3.5888545513153076,0.41175365447998047,-2.6761832237243652
1759336334130921000,2.7899208984375,-3.2199883460998535,-3.1165504455566406,-5.834953308105469
1759336334140921000,2.799921142578125,-0.510628342628479,-4.956714630126953,-5.4771623611450195
1759336334150921000,2.8099208984375,0.8190608024597168,-1.9560279846191406,-2.014526844024658
1759336334160921000,2.819921142578125,0.5308716297149658,0.6846485137939453,-0.574111819267273
1759336334170921000,2.8299208984375,0.001497030258178711,2.2718310356140137,0.15534770488739014
1759336334180921000,2.839921142578125,-0.1136176586151123,2.183475971221924,0.32746243476867676
1759336334190921000,2.8499208984375,-1.3203110694885254,2.5012764930725098,0.297088623046875
1759336334200921000,2.859921142578125,-0.8697908520698547,3.435149669647217,0.192815899848938
1759336334210920200,2.869920166015625,0.29474055767059326,2.8816957473754883,-0.21269011497497559
1759336334220920300,2.87992041015625,1.6043972969055176,1.8165650367736816,-0.6521893739700317
1759336334230920200,2.889920166015625,1.1301321983337402,1.2916460037231445,-1.3197482824325562
1759336334240920300,2.89992041015625,0.019667387008666992,1.8452863693237305,-1.2559220790863037
1759336334250920200,2.909920166015625,0.3609972596168518,2.680818557739258,-1.1813912391662598
1759336334260920300,2.91992041015625,0.5493009090423584,2.9548087120056152,-1.300157070159912
1759336334270920200,2.929920166015625,0.09554249048233032,3.5251107215881348,-1.3271329402923584
1759336334280920300,2.93992041015625,0.08980423212051392,3.5365424156188965,-1.2510921955108643
1759336334290920200,2.949920166015625,-1.4351234436035156,1.0186595916748047,-0.20106589794158936
1759336334300920300,2.95992041015625,0.20251286029815674,-4.4939165115356445,0.11153614521026611
1759336334310921200,2.969921142578125,1.1760962009429932,-12.427727699279785,0.4855738878250122
1759336334320921000,2.979921142578125,2.6875340938568115,-18.2850341796875,-0.3058934807777405
1759336334330921200,2.989921142578125,4.339966773986816,-17.83780288696289,-2.507958173751831
1759336334340921000,2.999921142578125,4.310783386230469,-17.831811904907227,-2.021136999130249
1759336334350921200,3.009921142578125,-0.4811018705368042,-7.98944091796875,-2.8202342987060547
1759336334360921000,3.019921142578125,-1.8456881046295166,-0.7592496871948242,-1.5425865650177002
1759336334370921200,3.029921142578125,-1.7543437480926514,-0.7493696212768555,-1.5681687593460083
1759336334380921000,3.039921142578125,-2.2404584884643555,2.05496883392334,-0.9429730176925659
1759336334390921200,3.049921142578125,-2.3645312786102295,1.3816375732421875,-0.9183090925216675
1759336334400921000,3.059921142578125,-1.8276281356811523,0.6290817260742188,-0.8534293174743652
1759336334410920200,3.069920166015625,-1.20817232131958,0.5248641967773438,-0.7086273431777954
1759336334420920300,3.07992041015625,-1.107818603515625,0.4470033645629883,-0.4025833308696747
1759336334430920200,3.089920166015625,-1.1450082063674927,0.23001956939697266,-0.10055384039878845
1759336334440920300,3.09992041015625,-1.2526357173919678,-0.07534027099609375,0.05935820937156677
1759336334450920200,3.109920166015625,-1.1504144668579102,-0.21787261962890625,0.04669496417045593
1759336334460920300,3.11992041015625,-1.1187340021133423,-0.21512126922607422,0.055680662393569946
1759336334470920200,3.129920166015625,-0.8930623531341553,-0.24787330627441406,-0.1496172845363617
1759336334480920300,3.13992041015625,-0.19895434379577637,-0.18029308319091797,-0.29858434200286865
1759336334490920200,3.149920166015625,0.2179155945777893,-0.33628368377685547,-0.5146157145500183
1759336334500920300,3.15992041015625,0.2328355312347412,-0.3347454071044922,-0.5187443494796753
1759336334510921000,3.1699208984375,0.13549745082855225,-0.24443340301513672,-0.7119687795639038
1759336334520921000,3.179921142578125,-0.006264925003051758,-0.10887813568115234,-0.6989048719406128
1759336334530921000,3.1899208984375,-0.06849664449691772,-0.09828376770019531,-0.53409343957901
1759336334540921000,3.199921142578125,-0.19134557247161865,-0.06413555145263672,-0.383062481880188
1759336334550921000,3.2099208984375,-0.42170625925064087,-0.02782154083251953,-0.17640361189842224
1759336334560921000,3.219921142578125,-0.6021288633346558,0.058807373046875,-0.07897424697875977
1759336334570921000,3.2299208984375,-0.7084925770759583,0.01635265350341797,0.0826292335987091
1759336334580921000,3.239921142578125,-0.6976830363273621,0.01714324951171875,0.08415630459785461
1759336334590921000,3.2499208984375,-0.6990946531295776,-0.09901618957519531,0.3152412176132202
1759336334600921000,3.259921142578125,-0.5190408229827881,-0.09757232666015625,0.42223304510116577
1759336334610920200,3.269920166015625,-0.24137365818023682,-0.050606727600097656,0.5207882523536682
1759336334620920000,3.279920166015625,0.028455674648284912,0.02032184600830078,0.5989177823066711
1759336334630920200,3.289920166015625,0.18866145610809326,0.03613758087158203,0.5840744376182556
1759336334640920000,3.299920166015625,0.2655068039894104,-0.0007829666137695312,0.6178332567214966
1759336334650920200,3.309920166015625,0.3223176598548889,0.048374176025390625,0.5843147039413452
1759336334660920000,3.319920166015625,0.2751536965370178,0.01595306396484375,0.5685193538665771
1759336334670920200,3.329920166015625,0.23717093467712402,-0.08143138885498047,0.5661157369613647
1759336334680920000,3.339920166015625,0.2958323359489441,-0.023545265197753906,0.6157006621360779
1759336334690920200,3.349920166015625,0.2744523286819458,-0.011462211608886719,0.7816512584686279
1759336334700920000,3.359920166015625,-0.13837972283363342,-0.16480159759521484,0.9359882473945618
1759336334710921000,3.3699208984375,-0.6673871874809265,-0.270416259765625,1.106026291847229
1759336334720921000,3.379921142578125,-0.7554735541343689,-0.08868598937988281,1.351881980895996
1759336334730921000,3.3899208984375,-0.46759647130966187,-0.07731914520263672,1.6375538110733032
1759336334740921000,3.399921142578125,-0.48039573431015015,-0.07807159423828125,1.6368000507354736
1759336334750921000,3.4099208984375,0.5490654110908508,-0.14571666717529297,2.2444210052490234
1759336334760921000,3.419921142578125,0.1854863166809082,-0.1893768310546875,2.258960723876953
1759336334770921000,3.4299208984375,-0.5410077571868896,-0.15874958038330078,2.0057015419006348
1759336334780921000,3.439921142578125,-0.6921943426132202,-0.03702259063720703,1.698521614074707
1759336334790921000,3.4499208984375,-0.5015174746513367,-0.09001922607421875,1.390032410621643
1759336334800921000,3.459921142578125,-0.15533727407455444,-0.08774852752685547,1.0283606052398682
1759336334810920200,3.469920166015625,-0.05900686979293823,-0.032469749450683594,0.7799496650695801
1759336334820920300,3.47992041015625,-0.18064647912979126,-0.08731651306152344,0.6522916555404663
1759336334830920200,3.489920166015625,-0.2865864336490631,-0.0730581283569336,0.5941751003265381
1759336334840920300,3.49992041015625,-0.3472896218299866,-0.2435007095336914,0.5801384449005127
1759336334850920200,3.509920166015625,-0.6350041031837463,-0.2823677062988281,0.5430389642715454
1759336334860920300,3.51992041015625,-0.9226695895195007,-0.38347530364990234,0.6177677512168884
1759336334870920200,3.529920166015625,-0.9921622276306152,-0.3552560806274414,0.7746948003768921
1759336334880920300,3.53992041015625,-1.0511218309402466,-0.32236289978027344,0.840457022190094
1759336334890920200,3.549920166015625,-1.1368811130523682,-0.3541078567504883,0.8642870783805847
1759336334900920300,3.55992041015625,-1.1254332065582275,-0.3809061050415039,0.8653528094291687
1759336334910921000,3.5699208984375,-0.9247089624404907,-0.2805652618408203,0.8921043276786804
1759336334920921000,3.579921142578125,-0.6616420149803162,-0.1131448745727539,0.8443453907966614
1759336334930921000,3.5899208984375,-0.6938596367835999,-0.15886688232421875,0.7165409922599792
1759336334940921000,3.599921142578125,-0.6221411228179932,-0.22148704528808594,0.6452427506446838
1759336334950921000,3.6099208984375,-0.3266892433166504,-0.11184406280517578,0.48171430826187134
1759336334960921000,3.619921142578125,-0.11575579643249512,0.10808753967285156,0.4174414277076721
1759336334970921000,3.6299208984375,-0.06113922595977783,0.2609729766845703,0.22855126857757568
1759336334980921000,3.639921142578125,-0.05235910415649414,0.260528564453125,0.1892070770263672
1759336334990921000,3.6499208984375,-0.03973287343978882,0.3294239044189453,0.09422582387924194
1759336335000921000,3.659921142578125,0.06575286388397217,0.5369710922241211,-0.07078677415847778
1759336335010920200,3.669920166015625,-0.3500917851924896,0.4569559097290039,-0.16377821564674377
1759336335020920300,3.67992041015625,-0.6198053956031799,0.4462471008300781,-0.1156768798828125
1759336335030920200,3.689920166015625,-0.7855857014656067,0.29903507232666016,0.083783358335495
1759336335040920300,3.69992041015625,-0.8521265387535095,0.11137771606445312,0.3612228333950043
1759336335050920200,3.709920166015625,-0.6981284618377686,0.1443042755126953,0.546882152557373
1759336335060920300,3.71992041015625,-0.7767267227172852,0.3353996276855469,0.5908290147781372
1759336335070920200,3.729920166015625,-0.9022445678710938,0.5886974334716797,0.6395843029022217
1759336335080920000,3.739920166015625,-0.8462450504302979,0.6817054748535156,0.6734154224395752
1759336335090920200,3.749920166015625,-1.0111416578292847,0.6624336242675781,0.6506412029266357
1759336335100920000,3.759920166015625,-1.186916708946228,0.5045003890991211,0.6625768542289734
1759336335110921000,3.7699208984375,-1.1833622455596924,0.35382747650146484,0.6548606157302856
1759336335120921000,3.779921142578125,-1.0726672410964966,0.18873310089111328,0.5899046659469604
1759336335130921000,3.7899208984375,-0.9697533845901489,-0.048264503479003906,0.5416656136512756
1759336335140921000,3.799921142578125,-0.9221978783607483,-0.33081722259521484,0.553568959236145
1759336335150921000,3.8099208984375,-0.9144319295883179,-0.5989933013916016,0.6153976917266846
1759336335160921000,3.819921142578125,-0.9337135553359985,-0.9413366317749023,0.7600109577178955
1759336335170921000,3.8299208984375,-0.9833645224571228,-1.2478294372558594,0.905870795249939
1759336335180921000,3.839921142578125,-1.0605617761611938,-1.5737123489379883,1.0306248664855957
1759336335190921000,3.8499208984375,-1.1480845212936401,-1.7633743286132812,1.1551235914230347
1759336335200921000,3.859921142578125,-1.2861539125442505,-2.0466175079345703,1.1180392503738403
1759336335210920200,3.869920166015625,-1.3127765655517578,-2.526524543762207,1.0890556573867798
1759336335220920300,3.87992041015625,-0.930643618106842,-3.4496355056762695,1.3894736766815186
1759336335230920200,3.889920166015625,-0.37511932849884033,-4.341649055480957,2.0598838329315186
1759336335240920300,3.89992041015625,-0.22207564115524292,-4.615711212158203,2.782956600189209
1759336335250920200,3.909920166015625,-0.862643301486969,-4.398683547973633,3.020829200744629
1759336335260920300,3.91992041015625,-1.535436749458313,-4.090418815612793,2.69321870803833
1759336335270920200,3.929920166015625,-1.5691964626312256,-4.274895668029785,2.1383681297302246
1759336335280920300,3.93992041015625,-1.4712586402893066,-4.63321590423584,1.794804334640503
1759336335290920200,3.949920166015625,-1.4282782077789307,-5.1178388595581055,1.3061977624893188
1759336335300920300,3.95992041015625,-1.1594641208648682,-5.498760223388672,0.7631317377090454
1759336335310921200,3.969921142578125,-0.6504489183425903,-5.613020896911621,0.39245736598968506
1759336335320921000,3.979921142578125,-0.6022802591323853,-5.608772277832031,0.405248761177063
1759336335330921200,3.989921142578125,-0.038632214069366455,-3.5052404403686523,-0.49564313888549805
1759336335340921000,3.999921142578125,-0.04281914234161377,-2.161604881286621,-0.9331960082054138
1759336335350921200,4.009921142578125,-0.24678045511245728,-1.3268375396728516,-1.2824466228485107
1759336335360921000,4.019921142578125,-0.6106126308441162,-1.2513160705566406,-1.5868115425109863
1759336335370921200,4.029921142578125,-0.8136602640151978,-1.3426666259765625,-1.6584690809249878
1759336335380921000,4.039921142578125,-0.7525134682655334,-2.083118438720703,-1.614151954650879
1759336335390921200,4.049921142578125,-0.7693319320678711,-2.1447153091430664,-1.4774523973464966
1759336335400921000,4.059921142578125,-0.7484685182571411,-1.997293472290039,-1.4413002729415894
1759336335410920200,4.069920166015625,-0.6715046167373657,-1.8235044479370117,-1.4180660247802734
1759336335420920300,4.07992041015625,0.17049157619476318,-1.5609006881713867,-1.3862624168395996
1759336335430920200,4.089920166015625,0.15488839149475098,-0.9284048080444336,-1.4883201122283936
1759336335440920300,4.09992041015625,0.8021113276481628,-0.22984886169433594,-1.6704177856445312
1759336335450920200,4.109920166015625,0.9892992377281189,-0.2535400390625,-1.747969150543213
1759336335460920300,4.11992041015625,1.795958161354065,-0.07525062561035156,-1.553006887435913
1759336335470920200,4.129920166015625,1.2374000549316406,0.2785530090332031,-1.2597088813781738
1759336335480920300,4.13992041015625,2.2196507453918457,0.34820079803466797,-0.5658212900161743
1759336335490920200,4.149920166015625,1.8435393571853638,-0.2406749725341797,0.3991645276546478
1759336335500920300,4.15992041015625,1.0359634160995483,-0.8497886657714844,0.8155964016914368
1759336335510921000,4.1699208984375,1.004332423210144,-0.6113300323486328,0.8217477798461914
1759336335520921000,4.179921142578125,1.2843880653381348,-0.3589057922363281,0.5570072531700134
1759336335530921000,4.1899208984375,1.2348827123641968,-0.5463933944702148,0.4901803731918335
1759336335540921000,4.199921142578125,0.9203964471817017,-0.7312526702880859,0.21180957555770874
1759336335550921000,4.2099208984375,0.9208419322967529,-0.24982070922851562,-0.5986803770065308
1759336335560921000,4.219921142578125,1.372787594795227,0.4875926971435547,-1.4811547994613647
1759336335570921000,4.2299208984375,1.8215069770812988,0.6499519348144531,-2.0163559913635254
1759336335590921000,4.2499208984375,2.224154472351074,0.7927942276000977,-2.1343791484832764
1759336335600921000,4.259921142578125,1.9425585269927979,0.7095260620117188,-2.1149559020996094
1759336335610920200,4.269920166015625,1.882633924484253,0.17780780792236328,-1.7000865936279297
1759336335620920000,4.279920166015625,1.2521111965179443,-0.05558300018310547,-1.4363895654678345
1759336335630920200,4.289920166015625,1.5654239654541016,-0.38797950744628906,-1.0151140689849854
1759336335640920000,4.299920166015625,1.4048349857330322,-0.5892677307128906,-0.9323920607566833
1759336335650920200,4.309920166015625,1.0500068664550781,-0.1961803436279297,-1.079761028289795
1759336335660920000,4.319920166015625,1.6986937522888184,0.7768721580505371,-1.525414228439331
1759336335670920200,4.329920166015625,1.3654470443725586,1.03049898147583,-1.4560720920562744
1759336335680920000,4.339920166015625,1.363541603088379,1.1152949333190918,-1.378882646560669
1759336335690920200,4.349920166015625,1.5022573471069336,1.0146970748901367,-1.4082090854644775
1759336335700920000,4.359920166015625,2.219175338745117,1.883821964263916,-1.666440486907959
1759336335710921000,4.3699208984375,1.9700615406036377,2.2951316833496094,-1.8913747072219849
1759336335720921000,4.379921142578125,1.846527099609375,2.5997314453125,-2.047114610671997
1759336335730921000,4.3899208984375,1.743011474609375,2.404564380645752,-2.0099406242370605
1759336335740920800,4.3999208984375,1.5496635437011719,2.2680912017822266,-2.2392590045928955
1759336335750921000,4.4099208984375,1.506289005279541,2.279599666595459,-2.54232120513916
1759336335760920800,4.4199208984375,1.6322259902954102,2.5814390182495117,-2.7225353717803955
1759336335770921000,4.4299208984375,1.7642693519592285,2.7802443504333496,-2.6279492378234863
1759336335780921000,4.439921142578125,2.029348850250244,2.9823551177978516,-2.491285562515259
1759336335790921000,4.4499208984375,2.165226936340332,3.130824565887451,-2.3588407039642334
1759336335800921000,4.459921142578125,2.353468418121338,3.1731109619140625,-2.1605443954467773
1759336335810920400,4.46992041015625,2.2699766159057617,3.137770175933838,-1.9051324129104614
1759336335820920300,4.47992041015625,1.8621001243591309,2.5963144302368164,-1.5255203247070312
1759336335830920400,4.48992041015625,1.6339454650878906,2.3856186866760254,-1.2777254581451416
1759336335840920300,4.49992041015625,0.8144664764404297,1.8702969551086426,-1.1442716121673584
1759336335850920400,4.50992041015625,0.04124164581298828,1.4361681938171387,-0.9918354749679565
1759336335860920300,4.51992041015625,0.02451944351196289,1.45208740234375,-0.8113706111907959
1759336335870920400,4.52992041015625,-0.07280349731445312,1.4663200378417969,-0.6984649896621704
1759336335880920300,4.53992041015625,0.06762409210205078,1.5748891830444336,-0.5522609949111938
1759336335890920400,4.54992041015625,0.2474064826965332,1.653921127319336,-0.22129523754119873
1759336335900920300,4.55992041015625,0.1876063346862793,1.4927983283996582,0.32817602157592773
1759336335910921200,4.569921142578125,-0.07384729385375977,1.3182077407836914,0.8978805541992188
1759336335920921300,4.57992138671875,-0.4477391242980957,1.1339917182922363,1.2832365036010742
1759336335930921200,4.589921142578125,-0.48086977005004883,1.238964557647705,1.0653564929962158
1759336335940921300,4.59992138671875,-0.35339927673339844,1.8015027046203613,0.11960506439208984
1759336335950921200,4.609921142578125,-0.13539791107177734,2.380906105041504,-1.1314061880111694
1759336335960921300,4.61992138671875,0.2964053153991699,2.563732624053955,-1.881703495979309
1759336335970921200,4.629921142578125,-1.3980345726013184,1.781320571899414,-1.8836321830749512
1759336335980921300,4.63992138671875,-4.816256999969482,-0.6422719955444336,-1.6604797840118408
1759336335990921200,4.649921142578125,-5.985330104827881,-4.7682366371154785,-1.9423843622207642
1759336336000921300,4.65992138671875,-1.129471778869629,-8.597875595092773,-0.9348044395446777
1759336336010920400,4.66992041015625,4.225894451141357,-10.914591789245605,0.15758466720581055
1759336336020920600,4.679920654296875,2.2583425045013428,-10.537837982177734,0.1777663230895996
1759336336030920400,4.68992041015625,-2.4335107803344727,-8.596588134765625,0.4128296375274658
1759336336040920600,4.699920654296875,-0.6198749542236328,-5.769252777099609,-0.1409595012664795
1759336336050920400,4.70992041015625,2.005606174468994,-2.4209470748901367,-1.1242073774337769
1759336336060920600,4.719920654296875,1.799379825592041,-0.2879066467285156,-1.3825591802597046
1759336336070920400,4.72992041015625,1.0380265712738037,1.2301888465881348,-1.0637308359146118
1759336336080920600,4.739920654296875,0.27089571952819824,1.763188362121582,-0.9097785949707031
1759336336090920400,4.74992041015625,0.03132224082946777,1.8375272750854492,-1.2765614986419678
1759336336100920600,4.759920654296875,1.3634188175201416,1.692042350769043,-1.9396964311599731
1759336336110921200,4.769921142578125,2.159841775894165,0.9658737182617188,-2.164335250854492
1759336336120921000,4.779921142578125,1.6882752180099487,-0.023344039916992188,-2.1854960918426514
1759336336130921200,4.789921142578125,0.7687597274780273,-1.280135154724121,-2.0721192359924316
1759336336140921000,4.799921142578125,0.4719231128692627,-2.353203773498535,-2.002406358718872
1759336336150921200,4.809921142578125,0.6292886734008789,-2.9889678955078125,-1.9468011856079102
1759336336160921000,4.819921142578125,0.6599211692810059,-3.3499937057495117,-1.8301430940628052
1759336336170921200,4.829921142578125,0.6503028869628906,-3.204559326171875,-1.4848626852035522
1759336336180921000,4.839921142578125,0.47557640075683594,-2.672527313232422,-1.172065019607544
1759336336190921200,4.849921142578125,0.2395007610321045,-1.5950956344604492,-0.9090574979782104
1759336336200921000,4.859921142578125,0.5718910694122314,-0.5730953216552734,-0.8819873332977295
1759336336210920200,4.869920166015625,0.9960281848907471,0.19239521026611328,-0.9375231862068176
1759336336220920300,4.87992041015625,1.5247185230255127,0.4668388366699219,-1.0214521884918213
1759336336230920200,4.889920166015625,1.5477643013000488,0.5525693893432617,-1.1369634866714478
1759336336240920300,4.89992041015625,1.5083034038543701,0.9968118667602539,-1.0183147192001343
1759336336250920200,4.909920166015625,1.2076597213745117,0.8296756744384766,-0.6624987125396729
1759336336260920300,4.91992041015625,1.3965203762054443,0.3597745895385742,-0.4910859167575836
1759336336270920400,4.92992041015625,1.5347095727920532,0.08148670196533203,-0.18356430530548096
1759336336290920400,4.94992041015625,1.606886386871338,0.5749082565307617,0.6929773688316345
1759336336310921200,4.969921142578125,1.5922183990478516,0.7141733169555664,2.0566067695617676
1759336336340921000,4.999921142578125,0.09832882881164551,1.3597955703735352,4.014736652374268
1759336336350921200,5.009921142578125,0.17997896671295166,1.558579444885254,3.5919253826141357
1759336336360921000,5.019921142578125,0.09765666723251343,1.6841402053833008,2.4050393104553223
1759336336370921200,5.029921142578125,0.2593693137168884,2.026595115661621,1.2446057796478271
1759336336380921000,5.039921142578125,0.22093874216079712,2.2436933517456055,0.26389557123184204
1759336336390921200,5.049921142578125,0.3429611921310425,2.285254955291748,-0.03881941735744476
1759336336400921000,5.059921142578125,0.6274585127830505,2.510343551635742,-0.07825052738189697
1759336336410920200,5.069920166015625,-0.08667111396789551,2.1434669494628906,-0.35541123151779175
1759336336420920300,5.07992041015625,-0.2736877501010895,1.8503575325012207,-0.3653962016105652
1759336336430920200,5.089920166015625,-0.5896207094192505,1.6594648361206055,-0.277015745639801
1759336336440920300,5.09992041015625,-0.802029550075531,1.3361425399780273,-0.18999531865119934
1759336336450920200,5.109920166015625,-0.7725006341934204,0.8492450714111328,-0.023742251098155975
1759336336460920300,5.11992041015625,-0.7253040075302124,0.4719867706298828,0.07044614106416702
1759336336470920200,5.129920166015625,-0.6735451817512512,0.41518306732177734,0.30731064081192017
1759336336480920300,5.13992041015625,-0.45936349034309387,0.6047544479370117,0.617932915687561
1759336336490920200,5.149920166015625,-0.3131108582019806,0.7630195617675781,0.8251051306724548
1759336336500920300,5.15992041015625,-0.292850136756897,0.7272243499755859,0.9209795594215393
1759336336510921000,5.1699208984375,-0.3327046036720276,0.7271518707275391,0.9272716641426086
1759336336520921000,5.179921142578125,-0.7543301582336426,0.085235595703125,0.9681260585784912
1759336336530921000,5.1899208984375,-1.0451655387878418,-0.2550973892211914,0.9821048974990845
1759336336540921000,5.199921142578125,-1.2819161415100098,-0.8037662506103516,1.109456181526184
1759336336550921000,5.2099208984375,-1.5768471956253052,-1.3811731338500977,1.321828842163086
1759336336560921000,5.219921142578125,-1.6368396282196045,-2.1668643951416016,1.5460820198059082
1759336336570921000,5.2299208984375,-1.5008231401443481,-2.7540884017944336,1.5977530479431152
1759336336590921000,5.2499208984375,-1.2674410343170166,-3.759542465209961,1.4436544179916382
1759336336600921000,5.259921142578125,-1.3931845426559448,-4.055562973022461,1.1554034948349
1759336336610920400,5.26992041015625,-1.3404226303100586,-4.301487922668457,0.8818902373313904
1759336336620920300,5.27992041015625,-1.4506394863128662,-4.621752738952637,0.6285783052444458
1759336336630920200,5.289920166015625,-1.3536065816879272,-5.126741409301758,0.7926539182662964
1759336336640920300,5.29992041015625,-1.1390490531921387,-5.765348434448242,1.1663663387298584
1759336336650920400,5.30992041015625,-0.973035454750061,-5.69461727142334,1.2426611185073853
1759336336660920300,5.31992041015625,-0.9415355920791626,-4.700672149658203,0.6914457082748413
1759336336670920200,5.329920166015625,-0.8301029205322266,-4.14162540435791,-0.07201093435287476
1759336336680920300,5.33992041015625,-0.8682149648666382,-3.464585304260254,-0.8682572841644287
1759336336690920400,5.34992041015625,-0.9869798421859741,-3.1214027404785156,-1.6111130714416504
1759336336700920300,5.35992041015625,-1.3788233995437622,-2.614628791809082,-2.2579846382141113
1759336336710921200,5.369921142578125,-2.066768169403076,-1.8482856750488281,-2.5839123725891113
1759336336720921000,5.379921142578125,-2.8972673416137695,-1.679366111755371,-2.651031970977783
1759336336730921200,5.389921142578125,-3.8060479164123535,-1.8424072265625,-2.337908983230591
1759336336740921000,5.399921142578125,-4.6233110427856445,-2.1271915435791016,-1.7645498514175415
1759336336750921200,5.409921142578125,-5.24962043762207,-2.6995840072631836,-1.0886244773864746
1759336336760921000,5.419921142578125,-4.885586738586426,-3.0843019485473633,-0.3921506106853485
1759336336770921200,5.429921142578125,-2.748596668243408,-2.7966184616088867,-0.04466637969017029
1759336336780921000,5.439921142578125,0.7237240076065063,-2.2128992080688477,-0.03965848684310913
1759336336790921200,5.449921142578125,3.637826442718506,-1.3564205169677734,0.15667614340782166
1759336336800921000,5.459921142578125,3.479797840118408,-0.8465032577514648,1.1242609024047852
1759336336810920400,5.46992041015625,2.2880666255950928,-0.1213693618774414,1.5692304372787476
1759336336820920300,5.47992041015625,2.444723606109619,-0.5524473190307617,1.1953507661819458
1759336336830920400,5.48992041015625,2.3183465003967285,-0.717045783996582,0.9705095887184143
1759336336840920300,5.49992041015625,2.0997159481048584,-0.5691633224487305,0.6415176391601562
1759336336850920400,5.50992041015625,2.152151346206665,-0.5861043930053711,0.2562517821788788
1759336336860920300,5.51992041015625,1.9364893436431885,-0.4387969970703125,0.1504012942314148
1759336336870920400,5.52992041015625,1.487803339958191,-0.12659072875976562,-0.2516626715660095
1759336336880920300,5.53992041015625,0.9351537227630615,0.43338966369628906,-0.7350977063179016
1759336336890920400,5.54992041015625,0.7651047706604004,0.987919807434082,-1.2477859258651733
1759336336900920300,5.55992041015625,0.6760201454162598,1.463188648223877,-2.2199904918670654
1759336336910921200,5.569921142578125,0.786562442779541,1.6866283416748047,-2.9231674671173096
1759336336920921000,5.579921142578125,1.5542724132537842,1.6154789924621582,-2.751469373703003
1759336336930921200,5.589921142578125,1.7003870010375977,1.4509506225585938,-1.9370841979980469
1759336336940921000,5.599921142578125,0.9360177516937256,1.1135191917419434,-1.529146432876587
1759336336950921200,5.609921142578125,1.029209852218628,0.7843074798583984,-1.1089041233062744
1759336336960921000,5.619921142578125,2.0226263999938965,0.48845672607421875,-0.4838823676109314
1759336336970921200,5.629921142578125,2.997870922088623,1.033738136291504,-0.7165855169296265
1759336336980921000,5.639921142578125,2.7826223373413086,1.0338921546936035,-0.5101112723350525
1759336336990921200,5.649921142578125,1.5846498012542725,1.0536818504333496,-0.5477131009101868
1759336337000921000,5.659921142578125,1.3312809467315674,1.2467994689941406,-0.5791682600975037
1759336337010920200,5.669920166015625,1.5105383396148682,2.0476837158203125,-0.634840726852417
1759336337020920300,5.67992041015625,1.296616554260254,2.7719335556030273,-0.8550277352333069
1759336337030920200,5.689920166015625,0.9754786491394043,3.2585325241088867,-1.317116618156433
1759336337040920300,5.69992041015625,1.0538206100463867,3.696399688720703,-2.1225266456604004
1759336337050920200,5.709920166015625,1.329545021057129,3.8175063133239746,-3.1511483192443848
1759336337060920300,5.71992041015625,1.5829153060913086,3.5631089210510254,-3.5424821376800537
1759336337070920200,5.729920166015625,1.7288126945495605,3.3955488204956055,-3.5339291095733643
1759336337080920300,5.73992041015625,1.792154312133789,3.311199188232422,-3.1660356521606445
1759336337090920200,5.749920166015625,1.8349590301513672,3.2208361625671387,-2.7081775665283203
1759336337100920300,5.75992041015625,1.708569049835205,2.913100242614746,-2.3661727905273438
1759336337110921000,5.7699208984375,1.5681376457214355,2.4669880867004395,-2.267735004425049
1759336337120921000,5.779921142578125,1.6238412857055664,2.419806957244873,-2.269803047180176
1759336337130921000,5.7899208984375,1.3601508140563965,1.6731281280517578,-2.3795273303985596
1759336337140921000,5.799921142578125,1.0245251655578613,1.1151032447814941,-1.9938971996307373
1759336337150921000,5.8099208984375,0.7553844451904297,0.6992630958557129,-1.4990344047546387
1759336337160921000,5.819921142578125,0.390078067779541,0.506131649017334,-0.9863935708999634
1759336337180921000,5.839921142578125,-0.3624725341796875,0.6600003242492676,-0.260852575302124
1759336337190921200,5.849921142578125,-0.5098419189453125,0.7426424026489258,0.001979231834411621
1759336337200921000,5.859921142578125,-0.5714740753173828,0.7878990173339844,-0.02893376350402832
1759336337210920200,5.869920166015625,-1.005629062652588,0.7223348617553711,0.8255078792572021
1759336337220920300,5.87992041015625,-1.4749021530151367,0.6370725631713867,1.5435453653335571
1759336337230920200,5.889920166015625,-1.802457332611084,0.835543155670166,2.3396894931793213
1759336337240920300,5.89992041015625,-2.760467529296875,1.17592191696167,2.361988067626953
1759336337250920200,5.909920166015625,-2.4007949829101562,0.759892463684082,0.033516764640808105
1759336337260920300,5.91992041015625,-1.5816922187805176,0.04057168960571289,-2.802412986755371
1759336337270920400,5.92992041015625,1.4590320587158203,-0.9543542861938477,-3.5039868354797363
1759336337280920300,5.93992041015625,2.3620519638061523,-2.4998254776000977,-1.0146242380142212
1759336337290920400,5.94992041015625,-3.274852752685547,-3.7957229614257812,2.4496445655822754
1759336337300920300,5.95992041015625,-3.4262537956237793,-3.6854658126831055,2.5011096000671387
1759336337310921200,5.969921142578125,1.6201953887939453,-3.002446174621582,-1.201965570449829
1759336337320921000,5.979921142578125,1.7729265689849854,-2.972548484802246,-2.3004820346832275
1759336337330921200,5.989921142578125,1.8415074348449707,-2.4553918838500977,-2.0267086029052734
1759336337340921000,5.999921142578125,2.281386137008667,-1.599656105041504,-1.2398896217346191
1759336337350921200,6.009921142578125,1.0450153350830078,-0.9793205261230469,-0.7793910503387451
1759336337360921000,6.019921142578125,0.1446065902709961,-0.8300752639770508,-0.7104113101959229
1759336337370921200,6.029921142578125,0.04428720474243164,-0.7700128555297852,-0.6539371013641357
1759336337380921000,6.039921142578125,2.0489046573638916,-1.4811744689941406,-1.2314720153808594
1759336337390921200,6.049921142578125,1.989997386932373,-2.171719551086426,-1.394986867904663
1759336337400921000,6.059921142578125,1.810093641281128,-2.5733776092529297,-1.339171051979065
1759336337410920400,6.06992041015625,1.6055717468261719,-2.724771499633789,-1.2578928470611572
1759336337420920300,6.07992041015625,1.7110984325408936,-2.604001998901367,-1.0608291625976562
1759336337430920400,6.08992041015625,1.3480250835418701,-2.3020172119140625,-0.8741240501403809
1759336337440920300,6.09992041015625,1.0976917743682861,-2.0007638931274414,-0.7007402181625366
1759336337450920400,6.10992041015625,1.2668051719665527,-1.6515779495239258,-0.6893379092216492
1759336337460920300,6.11992041015625,1.15818452835083,-1.2425613403320312,-0.565528154373169
1759336337470920200,6.129920166015625,0.9151661396026611,-0.806427001953125,-0.36230331659317017
1759336337480920000,6.139920166015625,0.9337444305419922,-0.517003059387207,-0.3689817786216736
1759336337490920200,6.149920166015625,0.875474214553833,-0.1052398681640625,-0.3887690305709839
1759336337500920000,6.159920166015625,0.722893476486206,0.4296140670776367,-0.26198577880859375
1759336337510921000,6.1699208984375,0.7461374998092651,0.8378973007202148,0.022417724132537842
1759336337520921000,6.179921142578125,0.5532528162002563,1.151698112487793,0.3030199408531189
1759336337530921000,6.1899208984375,0.6270500421524048,0.9107141494750977,0.4970678985118866
1759336337540921000,6.199921142578125,1.0408616065979004,0.4691038131713867,0.3203648030757904
1759336337550921000,6.2099208984375,1.050734281539917,0.22661495208740234,0.4030478894710541
1759336337560921000,6.219921142578125,0.6506506204605103,0.8200254440307617,0.7690777778625488
1759336337570921000,6.2299208984375,0.479317307472229,1.485555648803711,0.9188433885574341
1759336337580921000,6.239921142578125,0.050927042961120605,1.8069329261779785,1.1877262592315674
1759336337590921000,6.2499208984375,-0.28673839569091797,1.997624397277832,1.2926511764526367
1759336337600921000,6.259921142578125,0.2002946138381958,1.8819012641906738,1.488119125366211
1759336337610920200,6.269920166015625,0.7749685049057007,1.5687665939331055,1.7314409017562866
1759336337620920000,6.279920166015625,0.8795243501663208,1.4397859573364258,1.8378868103027344
1759336337630920200,6.289920166015625,0.8029606342315674,1.446354866027832,1.9102579355239868
1759336337640920000,6.299920166015625,0.3596060872077942,0.3490409851074219,1.4792934656143188
1759336337650920200,6.309920166015625,-0.2688918113708496,0.9972362518310547,1.1014324426651
1759336337660920000,6.319920166015625,-0.1488134264945984,1.4753780364990234,0.6060540676116943
1759336337670920200,6.329920166015625,-0.26362931728363037,1.337447166442871,0.46740782260894775
1759336337680920000,6.339920166015625,-0.314095139503479,1.3013429641723633,0.677904486656189
1759336337690920200,6.349920166015625,-0.47747665643692017,1.2713508605957031,0.8751827478408813
1759336337700920000,6.359920166015625,-0.19859832525253296,1.532832145690918,0.9453123211860657
1759336337710921000,6.3699208984375,0.32691723108291626,1.961604118347168,1.038122296333313
1759336337720921000,6.379921142578125,0.23780220746994019,2.148294448852539,1.1634690761566162
1759336337730921000,6.3899208984375,-0.25023090839385986,1.7525520324707031,1.2777560949325562
1759336337740921000,6.399921142578125,-0.9467155933380127,1.0686769485473633,1.3679695129394531
1759336337750921000,6.4099208984375,-0.8496049046516418,0.17076969146728516,1.4991962909698486
1759336337760921000,6.419921142578125,-0.3575643002986908,-0.54833984375,1.4174808263778687
1759336337770920700,6.429920654296875,0.07659224420785904,-0.6620292663574219,1.1886584758758545
1759336337780920600,6.439920654296875,0.16540157794952393,-0.3829841613769531,0.9075595140457153
1759336337790920700,6.449920654296875,-0.05408172309398651,-0.3816356658935547,0.5477196574211121
1759336337800920600,6.459920654296875,-0.35371875762939453,-0.6821584701538086,0.37857818603515625
1759336337810920000,6.469919921875,-0.3810030519962311,-0.683588981628418,0.39958837628364563
1759336337820919800,6.479919921875,-1.8020108938217163,-1.9683914184570312,0.3656003177165985
1759336337830920000,6.489919921875,-2.3892805576324463,-2.451536178588867,0.3341273069381714
1759336337840919800,6.499919921875,-2.75174617767334,-2.6527748107910156,0.25737258791923523
1759336337850920000,6.509919921875,-2.839434862136841,-2.588883399963379,0.037010908126831055
1759336337860919800,6.519919921875,-2.5783472061157227,-2.5515899658203125,-0.1443016529083252
1759336337870920000,6.529919921875,-1.9749083518981934,-2.751493453979492,-0.35291022062301636
1759336337880919800,6.539919921875,-1.5208505392074585,-3.332289695739746,-0.6296822428703308
1759336337890920000,6.549919921875,-1.2920681238174438,-3.99484920501709,-0.6219698786735535
1759336337900919800,6.559919921875,-0.7691776156425476,-4.827813148498535,-0.41420507431030273
1759336337910920700,6.569920654296875,0.07670623064041138,-6.027289390563965,-0.2373332977294922
1759336337920920600,6.579920654296875,0.6629811525344849,-6.668052673339844,-0.22228211164474487
1759336337930920700,6.589920654296875,0.7545797824859619,-6.5083208084106445,-0.5416566729545593
1759336337940920600,6.599920654296875,-0.017671853303909302,-5.383309364318848,-1.1500957012176514
1759336337950920700,6.609920654296875,-1.0080355405807495,-3.877255439758301,-1.8219764232635498
1759336337960920600,6.619920654296875,-1.8943986892700195,-2.3686161041259766,-2.4282970428466797
1759336337970920700,6.629920654296875,-2.518921136856079,-1.2697410583496094,-2.8646559715270996
1759336337980920600,6.639920654296875,-2.9523518085479736,-0.9782571792602539,-3.045502185821533
1759336337990920700,6.649920654296875,-3.683184862136841,-1.1851367950439453,-2.9201323986053467
1759336338000920600,6.659920654296875,-4.95138692855835,-1.9837141036987305,-2.2982215881347656
1759336338010920000,6.669919921875,-5.947353839874268,-3.1519813537597656,-1.553653597831726
1759336338020919800,6.679919921875,-5.248553276062012,-3.4814157485961914,-0.6360507011413574
1759336338030920000,6.689919921875,-3.47261381149292,-3.3014822006225586,-0.03318905830383301
1759336338040919800,6.699919921875,-0.09115612506866455,-3.170924186706543,0.4707520604133606
1759336338050920000,6.709919921875,2.9959096908569336,-2.451265335083008,1.4487005472183228
1759336338060919800,6.719919921875,4.208292007446289,-2.111604690551758,2.7792859077453613
1759336338070920200,6.729920166015625,3.125385284423828,-1.1842460632324219,3.8521382808685303
1759336338080920300,6.73992041015625,2.95365571975708,-0.5974035263061523,3.2985377311706543
1759336338090920200,6.749920166015625,2.10510516166687,-0.19318675994873047,2.4202346801757812
1759336338100920300,6.75992041015625,1.7546393871307373,-0.198272705078125,1.4392486810684204
1759336338110921000,6.7699208984375,1.6980657577514648,-0.09563350677490234,0.03668546676635742
1759336338120921000,6.779921142578125,1.5520868301391602,-0.0336761474609375,-1.2757844924926758
1759336338130921000,6.7899208984375,1.5915888547897339,0.6282949447631836,-2.349916934967041
1759336338140921000,6.799921142578125,1.2686476707458496,1.0732030868530273,-2.8691110610961914
1759336338150921000,6.8099208984375,0.8289179801940918,1.5560216903686523,-3.310222625732422
1759336338160921000,6.819921142578125,0.4225437641143799,1.8892817497253418,-3.6087372303009033
1759336338170921000,6.8299208984375,1.121065616607666,2.1849989891052246,-3.5062122344970703
1759336338180921000,6.839921142578125,1.7633287906646729,2.0846176147460938,-3.0936946868896484
1759336338190921000,6.8499208984375,1.773986577987671,1.7259302139282227,-2.3806941509246826
1759336338200921000,6.859921142578125,1.4008629322052002,0.8349676132202148,-1.205312728881836
1759336338210920200,6.869920166015625,2.1651437282562256,0.4924192428588867,-0.15746420621871948
1759336338220920300,6.87992041015625,2.7436883449554443,1.2032036781311035,-0.1939009428024292
1759336338230920200,6.889920166015625,3.0811233520507812,2.0162839889526367,-0.3851378262042999
1759336338240920300,6.89992041015625,1.8795619010925293,0.7227768898010254,0.22737723588943481
1759336338250920200,6.909920166015625,1.2013764381408691,1.8766560554504395,-0.020627915859222412
1759336338260920300,6.91992041015625,1.5323450565338135,2.73468017578125,-0.34982189536094666
1759336338270920200,6.929920166015625,1.5248141288757324,3.4678993225097656,-0.6930825114250183
1759336338280920300,6.93992041015625,1.348498821258545,3.6871514320373535,-1.2403265237808228
1759336338290920200,6.949920166015625,1.780226707458496,3.470947742462158,-1.7440884113311768
1759336338300920300,6.95992041015625,1.9818179607391357,3.151650905609131,-2.1681106090545654
1759336338310921200,6.969921142578125,1.9677743911743164,2.8139748573303223,-2.314484119415283
1759336338320921000,6.979921142578125,1.8668560981750488,2.9051380157470703,-2.4501399993896484
1759336338330921200,6.989921142578125,1.7451286315917969,3.0391197204589844,-2.563422203063965
1759336338340921000,6.999921142578125,1.9424567222595215,3.106879711151123,-2.4736390113830566
1759336338350921200,7.009921142578125,1.9921879768371582,3.027327060699463,-2.2935807704925537
1759336338360921000,7.019921142578125,2.038982391357422,2.964751720428467,-2.1678216457366943
1759336338370921200,7.029921142578125,2.009946346282959,2.9224443435668945,-2.1351158618927
1759336338380921000,7.039921142578125,2.2244043350219727,2.832397937774658,-2.0927481651306152
1759336338390921200,7.049921142578125,2.1504125595092773,2.664004325866699,-1.780202865600586
1759336338400921000,7.059921142578125,1.7271852493286133,2.5304622650146484,-1.2013646364212036
1759336338410920200,7.069920166015625,1.251579761505127,2.4086875915527344,-0.6409906148910522
1759336338420920300,7.07992041015625,0.7249479293823242,2.3840537071228027,-0.24448853731155396
1759336338430920200,7.089920166015625,0.15926027297973633,2.4674415588378906,-0.0816299319267273
1759336338440920300,7.09992041015625,-0.04954242706298828,2.320283889770508,0.18424856662750244
1759336338450920200,7.109920166015625,-0.282958984375,2.216423511505127,0.32009947299957275
1759336338460920300,7.11992041015625,-0.8484392166137695,2.1280407905578613,0.12797534465789795
1759336338470920200,7.129920166015625,-1.2623286247253418,2.299304962158203,-0.07830202579498291
1759336338480920300,7.13992041015625,-1.1276617050170898,2.723141670227051,-0.37243711948394775
1759336338490920200,7.149920166015625,-1.1138367652893066,3.0012831687927246,-0.2216724157333374
1759336338500920300,7.15992041015625,-2.750804901123047,2.2799124717712402,-0.4039214253425598
1759336338510921000,7.1699208984375,-2.186048984527588,-0.5656733512878418,-0.5482945442199707
1759336338520921000,7.179921142578125,-1.1087932586669922,-3.356137275695801,0.3287266492843628
1759336338530921000,7.1899208984375,0.011456012725830078,-6.387465476989746,1.86776602268219
1759336338540921000,7.199921142578125,-0.5367703437805176,-8.361377716064453,2.1304287910461426
1759336338550921000,7.2099208984375,-3.8836164474487305,-8.938979148864746,1.5190563201904297
1759336338560921000,7.219921142578125,-1.6529054641723633,-7.635052680969238,-0.39344000816345215
1759336338570921000,7.2299208984375,-0.1250615119934082,-4.489343643188477,-1.9290167093276978
1759336338580921000,7.239921142578125,-0.04156970977783203,-1.6255950927734375,-1.6858940124511719
1759336338590921000,7.2499208984375,0.8251795768737793,0.428619384765625,-0.9756487011909485
1759336338600921000,7.259921142578125,0.5332818031311035,1.5757369995117188,-0.40512615442276
1759336338610920200,7.269920166015625,0.39287614822387695,1.659163475036621,-0.3330429196357727
1759336338620920000,7.279920166015625,0.22692203521728516,1.1870503425598145,-0.7873317003250122
1759336338630920200,7.289920166015625,1.7754933834075928,0.33452796936035156,-1.3809103965759277
1759336338640920000,7.299920166015625,1.7622919082641602,-0.7434225082397461,-1.812687635421753
1759336338650920200,7.309920166015625,1.5805888175964355,-1.778407096862793,-1.9742052555084229
1759336338660920000,7.319920166015625,1.255159616470337,-2.73781681060791,-1.9841406345367432
1759336338670920200,7.329920166015625,1.2091221809387207,-3.118472099304199,-1.9183270931243896
1759336338680920000,7.339920166015625,1.0804781913757324,-3.310359001159668,-1.8364163637161255
1759336338690920200,7.349920166015625,0.7701530456542969,-3.257364273071289,-1.774644374847412
1759336338700920000,7.359920166015625,0.7532916069030762,-2.9200916290283203,-1.7284636497497559
1759336338710921000,7.3699208984375,0.9786837100982666,-2.008904457092285,-1.7690054178237915
1759336338720921000,7.379921142578125,0.868797779083252,-1.967538833618164,-1.69530189037323
1759336338730921000,7.3899208984375,1.0944513082504272,-0.24858379364013672,-1.3490097522735596
1759336338740921000,7.399921142578125,1.410560131072998,0.4833984375,-1.2269340753555298
1759336338750921000,7.4099208984375,1.285468339920044,0.5229320526123047,-1.1550507545471191
1759336338760921000,7.419921142578125,1.2142003774642944,0.9730758666992188,-0.6931272149085999
1759336338770921000,7.4299208984375,1.2663257122039795,0.35869503021240234,-0.39435046911239624
1759336338780921000,7.439921142578125,1.5180401802062988,-0.3271465301513672,-0.0039344169199466705
1759336338790921000,7.4499208984375,1.3558429479599,-0.8625888824462891,0.33880746364593506
1759336338800921000,7.459921142578125,1.1498386859893799,-1.346116065979004,0.7331535220146179
1759336338810920200,7.469920166015625,0.918394923210144,-1.4521493911743164,1.1724187135696411
1759336338820920300,7.47992041015625,0.25377321243286133,-1.2548198699951172,1.6083300113677979
1759336338830920200,7.489920166015625,-0.07787764072418213,-0.16013526916503906,2.082509756088257
1759336338840920300,7.49992041015625,0.6603192090988159,0.4983816146850586,2.1972858905792236
1759336338850920200,7.509920166015625,1.1903572082519531,0.7925539016723633,2.4094786643981934
1759336338860920300,7.51992041015625,0.9311498403549194,1.034123420715332,2.356006622314453
1759336338870920200,7.529920166015625,0.6288216710090637,1.2190780639648438,2.225977659225464
1759336338880920300,7.53992041015625,0.4289613366127014,1.4263839721679688,1.8582146167755127
1759336338890920200,7.549920166015625,0.24102109670639038,1.9102492332458496,1.1643152236938477
1759336338900920300,7.55992041015625,0.128650963306427,2.3166327476501465,0.7687548398971558
1759336338910921200,7.569921142578125,0.16992461681365967,1.663590431213379,0.5006293058395386
1759336338920921000,7.579921142578125,0.025083601474761963,1.5716056823730469,0.447981059551239
1759336338930921200,7.589921142578125,0.03116905689239502,1.722792625427246,0.4671655297279358
1759336338940921000,7.599921142578125,-0.0460018515586853,1.7250986099243164,0.49555504322052
1759336338950921200,7.609921142578125,-0.3665086627006531,1.840073585510254,0.5604913234710693
1759336338960921000,7.619921142578125,-0.4432809352874756,1.8429269790649414,0.5698617696762085
1759336338970921200,7.629921142578125,-0.43339142203330994,2.3702287673950195,1.0256093740463257
1759336338980921000,7.639921142578125,-0.4376140236854553,2.2703490257263184,0.9056462645530701
1759336338990921200,7.649921142578125,-0.3028560280799866,2.1414003372192383,0.8195476531982422
1759336339000921000,7.659921142578125,-0.19989421963691711,2.1653800010681152,0.6094563007354736
1759336339010920200,7.669920166015625,-0.15033668279647827,2.1529135704040527,0.40462619066238403
1759336339020920300,7.67992041015625,-0.12593524158000946,1.9982662200927734,0.2290140986442566
1759336339030920200,7.689920166015625,-0.23659400641918182,1.792356014251709,0.07211875915527344
1759336339040920300,7.69992041015625,-0.270552396774292,1.1045055389404297,0.11651450395584106
1759336339050920200,7.709920166015625,-0.6654080152511597,0.2819023132324219,0.3934101462364197
1759336339060920300,7.71992041015625,-1.075878620147705,-0.5151023864746094,0.7176274657249451
1759336339070920200,7.729920166015625,-0.9100462198257446,-1.317220687866211,0.9465354084968567
1759336339080920300,7.73992041015625,-0.2967115044593811,-1.8894577026367188,1.1793886423110962
1759336339090920200,7.749920166015625,-0.1854863464832306,-2.147573471069336,1.3178157806396484
1759336339100920000,7.759920166015625,-0.3944277763366699,-2.2810134887695312,1.4905210733413696
1759336339110921000,7.7699208984375,-0.7877525091171265,-2.580869674682617,2.0348119735717773
1759336339120921000,7.779921142578125,-1.4885691404342651,-2.7603750228881836,2.6107277870178223
1759336339130921000,7.7899208984375,-2.144216299057007,-3.0901689529418945,2.8089370727539062
1759336339140921000,7.799921142578125,-2.3538522720336914,-3.5985240936279297,2.6856603622436523
1759336339150921000,7.8099208984375,-2.1542770862579346,-4.313623428344727,2.4849610328674316
1759336339160921000,7.819921142578125,-1.7269868850708008,-5.232902526855469,2.118013858795166
1759336339170921000,7.8299208984375,-1.1697194576263428,-5.9410905838012695,1.4763160943984985
1759336339180921000,7.839921142578125,-0.7345832586288452,-5.9634809494018555,0.7332865595817566
1759336339190921000,7.8499208984375,-0.3517565131187439,-5.481875419616699,-0.06526660919189453
1759336339200921000,7.859921142578125,-0.3011234402656555,-4.642671585083008,-0.8345270156860352
1759336339210920200,7.869920166015625,-0.6632604598999023,-3.40667724609375,-1.4455170631408691
1759336339220920300,7.87992041015625,-1.191810965538025,-2.2296066284179688,-1.9447664022445679
1759336339230920200,7.889920166015625,-1.777309536933899,-1.1581792831420898,-2.3917038440704346
1759336339240920300,7.89992041015625,-2.145582914352417,-0.60748291015625,-2.7565224170684814
1759336339250920200,7.909920166015625,-2.4418368339538574,-0.6855907440185547,-3.0945000648498535
1759336339260920300,7.91992041015625,-3.0618672370910645,-1.4302797317504883,-3.5305984020233154
1759336339270920200,7.929920166015625,-3.924431562423706,-2.3970823287963867,-3.7343900203704834
1759336339280920300,7.93992041015625,-4.840416431427002,-3.3301448822021484,-3.805229902267456
1759336339290920200,7.949920166015625,-4.552548885345459,-3.6457910537719727,-3.512054204940796
1759336339300920300,7.95992041015625,-4.34550142288208,-3.6641902923583984,-3.5254712104797363
1759336339310921200,7.969921142578125,-0.9287981986999512,-2.551346778869629,-1.5914406776428223
1759336339320921000,7.979921142578125,0.6565630435943604,-2.2589616775512695,-0.5419197082519531
1759336339330921200,7.989921142578125,2.1605947017669678,-3.050105094909668,1.0404701232910156
1759336339340921000,7.999921142578125,2.69293212890625,-2.914717674255371,2.3529324531555176
1759336339350921200,8.009921142578126,2.7917909622192383,-1.892765998840332,1.9454447031021118
1759336339360921000,8.019921142578125,1.8616509437561035,-0.9449977874755859,0.44001686573028564
1759336339380921000,8.039921142578125,2.1843624114990234,-0.7913703918457031,-0.09164309501647949
1759336339390921200,8.049921142578125,2.102368116378784,-0.7482089996337891,-0.5773059129714966
1759336339400921000,8.059921142578125,1.4481185674667358,-0.671025276184082,-1.1573306322097778
1759336339410920200,8.069920166015624,0.6512064933776855,-0.6044797897338867,-1.5725231170654297
1759336339420920300,8.07992041015625,0.6319973468780518,-0.024911880493164062,-1.9283201694488525
1759336339430920200,8.089920166015625,0.08518123626708984,0.5587453842163086,-2.3343210220336914
1759336339440920300,8.09992041015625,0.3884003162384033,1.0386309623718262,-2.3693976402282715
1759336339450920200,8.109920166015625,1.257875919342041,1.0794968605041504,-2.400503635406494
1759336339460920300,8.11992041015625,2.235950469970703,1.760411262512207,-2.377627372741699
1759336339470920200,8.129920166015625,3.0205249786376953,2.0468006134033203,-2.22556734085083
1759336339480920300,8.13992041015625,4.251073360443115,2.0059008598327637,-1.7998836040496826
1759336339490920200,8.149920166015624,4.388291835784912,2.2069778442382812,-1.2865217924118042
1759336339500920300,8.15992041015625,3.9245104789733887,3.099396228790283,-1.2430368661880493
1759336339510921000,8.1699208984375,2.208064079284668,0.9718542098999023,0.385786771774292
1759336339520921000,8.179921142578126,-0.03279542922973633,-0.1494436264038086,1.1484929323196411
1759336339530921000,8.1899208984375,0.18166446685791016,0.6488585472106934,0.9573909044265747
1759336339540921000,8.199921142578125,1.467742919921875,2.512564182281494,0.3769134283065796
1759336339550921000,8.2099208984375,1.8898258209228516,3.779608726501465,-0.2563421130180359
1759336339560921000,8.219921142578125,1.8333768844604492,4.190042495727539,-0.8373764157295227
1759336339570921000,8.2299208984375,1.852308750152588,4.271727561950684,-1.025392770767212
1759336339580921000,8.239921142578124,2.219710350036621,4.058916091918945,-1.0800437927246094
1759336339590921000,8.2499208984375,2.4983363151550293,3.6703360080718994,-1.0633409023284912
1759336339600921000,8.259921142578126,2.3415298461914062,3.5635104179382324,-1.3016653060913086
1759336339610920200,8.269920166015625,2.0049290657043457,3.564232587814331,-1.5140814781188965
1759336339620920000,8.279920166015625,2.1540822982788086,3.7875313758850098,-1.735034704208374
1759336339630920200,8.289920166015625,2.949323892593384,4.262742042541504,-2.088082790374756
1759336339640920000,8.299920166015625,3.627034902572632,4.530320167541504,-2.201525926589966
1759336339650920200,8.309920166015624,3.6779592037200928,4.481983184814453,-2.1996371746063232
1759336339660920000,8.319920166015624,3.029978036880493,4.439058303833008,-1.6896703243255615
1759336339670920200,8.329920166015626,2.43558406829834,3.8264453411102295,-1.1626460552215576
1759336339680920000,8.339920166015625,1.8565597534179688,2.893357753753662,-0.7372956275939941
1759336339690920200,8.349920166015625,1.264552116394043,2.1193227767944336,-0.3061612844467163
1759336339700920000,8.359920166015625,0.7593989372253418,1.507307529449463,0.029874742031097412
1759336339710921000,8.3699208984375,0.18829679489135742,0.8515958786010742,0.4850926697254181
1759336339720921000,8.379921142578125,-0.7453451156616211,0.23265314102172852,0.9357219338417053
1759336339730921000,8.3899208984375,-2.311877727508545,-0.10120344161987305,1.0691241025924683
1759336339740921000,8.399921142578124,-4.88621187210083,-0.5249052047729492,1.1600627899169922
1759336339750921000,8.4099208984375,-6.790894508361816,-0.7334699630737305,1.1217442750930786
1759336339760921000,8.419921142578126,-4.306490421295166,-0.9487476348876953,0.1857350468635559
1759336339770921000,8.4299208984375,-4.3698410987854,-0.8883566856384277,0.08183729648590088
1759336339780921000,8.439921142578125,4.429717540740967,-1.1611742973327637,-4.07283353805542
1759336339790921000,8.4499208984375,2.0981831550598145,-3.8461389541625977,-3.131038188934326
1759336339800921000,8.459921142578125,-5.6221442222595215,-6.652116775512695,-0.3577500581741333
1759336339810920200,8.469920166015624,-5.421395301818848,-6.7718987464904785,0.12865808606147766
1759336339820920000,8.479920166015624,-5.547677516937256,-6.677071571350098,0.09529051184654236
1759336339830920200,8.489920166015626,1.4851765632629395,-3.355930805206299,-1.6193079948425293
1759336339840920000,8.499920166015626,-0.7274594306945801,-1.61700439453125,-0.86372971534729
1759336339850920200,8.509920166015625,0.6790132522583008,-0.3735074996948242,-0.5535743832588196
1759336339860920000,8.519920166015625,1.7861592769622803,0.6138815879821777,-0.6916282176971436
1759336339870920200,8.529920166015625,1.6817266941070557,0.678504467010498,-0.6454388499259949
1759336339880920000,8.539920166015625,0.7247929573059082,1.522946834564209,-1.3952523469924927
1759336339890920200,8.549920166015625,1.2842462062835693,1.1364006996154785,-1.5433036088943481
1759336339900920000,8.559920166015624,1.4878535270690918,0.22680950164794922,-1.5331547260284424
1759336339910921000,8.5699208984375,1.3511857986450195,0.2985725402832031,-1.4689112901687622
1759336339920921000,8.579921142578126,1.457552194595337,-2.1118316650390625,-1.169959545135498
1759336339930921000,8.5899208984375,1.1487104892730713,-3.010951042175293,-0.8713060617446899
1759336339940921000,8.599921142578125,1.2325310707092285,-3.5162668228149414,-0.5827859044075012
1759336339950921000,8.6099208984375,1.2213358879089355,-3.612492561340332,-0.18583881855010986
1759336339960921000,8.619921142578125,1.0848772525787354,-3.0765933990478516,0.19185352325439453
1759336339970921000,8.6299208984375,0.9205429553985596,-2.1476516723632812,0.5773054361343384
1759336339980921000,8.639921142578125,0.32410454750061035,-1.2646856307983398,0.6255500912666321
1759336339990921000,8.6499208984375,0.1694183349609375,-1.2063684463500977,0.6552014350891113
1759336340000921000,8.659921142578124,0.5640380382537842,-0.47584056854248047,0.46328622102737427
1759336340010920200,8.669920166015626,1.729417324066162,0.7586174011230469,0.6126747727394104
1759336340020920300,8.67992041015625,1.914343237876892,0.7385473251342773,0.7674657106399536
1759336340030920200,8.689920166015625,1.3536148071289062,0.6711435317993164,0.9007883071899414
1759336340090920200,8.749920166015626,0.8201689720153809,0.04436206817626953,2.941925048828125
1759336340100920000,8.759920166015625,0.7792763710021973,0.1205759048461914,2.7304418087005615
1759336340110921000,8.7699208984375,0.5814753770828247,0.17447757720947266,1.9970262050628662
1759336340120921000,8.779921142578125,0.7288303971290588,0.5376319885253906,1.4171844720840454
1759336340130921000,8.7899208984375,0.2294522523880005,1.4074716567993164,0.507683277130127
1759336340140921000,8.799921142578125,0.01643085479736328,1.9222779273986816,-0.5071660280227661
1759336340150921000,8.8099208984375,0.3309422731399536,1.9935016632080078,-1.1690008640289307
1759336340160921000,8.819921142578124,0.7062193751335144,1.594266414642334,-1.033384084701538
1759336340170921000,8.8299208984375,0.6129570603370667,1.599653720855713,-1.0011491775512695
1759336340180921000,8.839921142578126,0.27935469150543213,0.7877836227416992,0.3093135356903076
1759336340190921000,8.8499208984375,0.019462227821350098,0.7210350036621094,0.7834022045135498
1759336340200921000,8.859921142578125,-0.20488303899765015,0.7491817474365234,1.4496021270751953
1759336340210920200,8.869920166015625,-0.6723825335502625,0.883631706237793,1.8371176719665527
1759336340220920000,8.879920166015625,-0.7764425873756409,0.890899658203125,1.8369683027267456
1759336340230920200,8.889920166015624,-0.4468144178390503,1.0089893341064453,2.4845452308654785
1759336340240920000,8.899920166015624,-0.411771684885025,1.038731575012207,2.4268248081207275
1759336340250920200,8.909920166015626,-0.7672224640846252,0.9406652450561523,1.9337626695632935
1759336340260920000,8.919920166015626,-0.7991992235183716,0.8127059936523438,1.4507023096084595
1759336340270920200,8.929920166015625,-0.7471920251846313,0.5776948928833008,1.0669949054718018
1759336340280920000,8.939920166015625,-0.8330974578857422,0.5257282257080078,0.6500779390335083
1759336340290920200,8.949920166015625,-0.8717167973518372,0.5229883193969727,0.66827392578125
1759336340300920000,8.959920166015625,-1.0068296194076538,-0.07980728149414062,0.5782146453857422
1759336340310921000,8.9699208984375,-1.2537742853164673,-0.40596866607666016,0.695914626121521
1759336340320921000,8.979921142578124,-1.5175585746765137,-0.9702835083007812,0.7576409578323364
1759336340330921000,8.9899208984375,-1.7003519535064697,-1.6603050231933594,0.8831217288970947
1759336340340921000,8.999921142578126,-1.6874761581420898,-2.471116065979004,1.0091968774795532
1759336340350921000,9.0099208984375,-1.7401351928710938,-3.3555049896240234,1.0214064121246338
1759336340360921000,9.019921142578125,-1.9363293647766113,-3.6282577514648438,0.7637832164764404
1759336340370921000,9.0299208984375,-2.0180647373199463,-3.723966598510742,0.28157544136047363
1759336340380921000,9.039921142578125,-1.8786487579345703,-3.867755889892578,-0.11333560943603516
1759336340390921000,9.0499208984375,-1.6617121696472168,-4.225132942199707,-0.3543882369995117
1759336340400921000,9.059921142578125,-1.3687498569488525,-4.685510635375977,-0.6247022151947021
1759336340410920200,9.069920166015624,-1.0006126165390015,-5.139528274536133,-1.1226463317871094
1759336340420920000,9.079920166015626,-0.8341268301010132,-5.349069595336914,-1.5970802307128906
1759336340430920200,9.089920166015625,-0.6175315976142883,-5.179583549499512,-1.9408395290374756
1759336340440920000,9.099920166015625,-0.7753922939300537,-4.257722854614258,-2.234797477722168
1759336340450920200,9.109920166015625,-1.3579496145248413,-2.9263696670532227,-2.5356698036193848
1759336340460920000,9.119920166015625,-2.299328565597534,-1.6702098846435547,-2.6656699180603027
1759336340470920200,9.129920166015625,-3.0114188194274902,-0.9532556533813477,-2.6576104164123535
1759336340480920000,9.139920166015624,-3.5661838054656982,-0.6867771148681641,-2.629751682281494
1759336340490920200,9.149920166015624,-3.4056687355041504,-0.7000722885131836,-2.6148483753204346
1759336340500920000,9.159920166015626,-5.2386794090271,-1.4001636505126953,-2.1224920749664307
1759336340510921000,9.1699208984375,-5.190127849578857,-2.0163869857788086,-1.5129899978637695
1759336340520921000,9.179921142578126,-3.891753673553467,-2.7367935180664062,-1.1099462509155273
1759336340530921000,9.1899208984375,-1.9419488906860352,-3.115126609802246,-0.977074384689331
1759336340540921000,9.199921142578125,0.4110456705093384,-3.3787479400634766,-0.999269962310791
1759336340550921000,9.2099208984375,2.722999334335327,-3.1311721801757812,-0.07085204124450684
1759336340560921000,9.219921142578125,3.402057647705078,-2.871983528137207,1.123772144317627
1759336340570921000,9.2299208984375,2.3586184978485107,-2.6244192123413086,1.3532981872558594
1759336340580921000,9.239921142578124,3.016021251678467,-2.507826805114746,1.2064368724822998
1759336340590921000,9.2499208984375,1.9945722818374634,-1.6648731231689453,1.2425700426101685
1759336340600921000,9.259921142578126,1.378129005432129,-0.9590978622436523,1.2973577976226807
1759336340610920200,9.269920166015625,1.0587210655212402,-0.5789527893066406,1.0265321731567383
1759336340620920000,9.279920166015625,1.175220012664795,-0.46904659271240234,0.5126886367797852
1759336340630920200,9.289920166015625,1.2299017906188965,-0.35008907318115234,-0.3387913703918457
1759336340640920000,9.299920166015625,1.1410949230194092,-0.0794830322265625,-1.204860806465149
1759336340650920200,9.309920166015624,1.465501308441162,0.3852577209472656,-2.0060527324676514
1759336340660920000,9.319920166015624,1.9846971035003662,1.2081871032714844,-2.4306421279907227
1759336340670920200,9.329920166015626,2.0706355571746826,1.3696975708007812,-2.6990249156951904
1759336340680920000,9.339920166015625,2.267957925796509,1.312917709350586,-2.5146679878234863
1759336340690920200,9.349920166015625,1.994297981262207,1.3606610298156738,-1.929852843284607
1759336340700920000,9.359920166015625,1.6462888717651367,1.8628506660461426,-1.572122573852539
1759336340710921000,9.3699208984375,2.6118099689483643,1.6863441467285156,-0.9216295480728149
1759336340720921000,9.379921142578125,2.313953161239624,1.489598274230957,-0.7013901472091675
1759336340730921000,9.3899208984375,2.8710763454437256,2.34525203704834,-0.9212511777877808
1759336340740921000,9.399921142578124,4.333434104919434,2.1626815795898438,-0.5341235399246216
1759336340760921000,9.419921142578126,2.027056932449341,1.349654197692871,0.27945423126220703
1759336340770920700,9.429920654296875,1.289102554321289,2.179342269897461,0.5915430188179016
1759336340780920600,9.439920654296875,0.9118757247924805,2.7235474586486816,0.5573073029518127
1759336340790920700,9.449920654296875,0.9283370971679688,2.987701416015625,-0.0929480791091919
1759336340800920600,9.459920654296875,1.2275524139404297,3.129866600036621,-0.8339872360229492
1759336340810920000,9.469919921875,1.5484557151794434,3.0223021507263184,-1.4307935237884521
1759336340820919800,9.479919921875,1.8416829109191895,2.8594765663146973,-1.6795761585235596
1759336340830920000,9.489919921875,2.1694135665893555,2.728189468383789,-1.7178654670715332
1759336340840919800,9.499919921875,2.2738170623779297,2.697329044342041,-1.7071151733398438
1759336340850920000,9.509919921875,2.2055201530456543,2.816850185394287,-1.6990954875946045
1759336340860919800,9.519919921875,2.1407251358032227,2.9491472244262695,-1.5933990478515625
1759336340870920000,9.529919921875,2.0380091667175293,3.0523366928100586,-1.6584899425506592
1759336340880919800,9.539919921875,2.0979270935058594,2.998440742492676,-1.7050855159759521
1759336340890920000,9.549919921875,1.9596614837646484,2.880181312561035,-1.8433756828308105
1759336340900919800,9.559919921875,1.7612314224243164,2.6323299407958984,-1.6148779392242432
1759336340910920700,9.569920654296874,1.5677399635314941,2.493774890899658,-1.2362029552459717
1759336340920920800,9.5799208984375,1.4892020225524902,2.350005626678467,-0.9227936267852783
1759336340930920700,9.589920654296876,1.4025936126708984,2.0942153930664062,-0.7401580810546875
1759336340940920600,9.599920654296875,1.1731457710266113,1.6188945770263672,-0.47562724351882935
1759336340950920700,9.609920654296875,1.1465067863464355,1.6465997695922852,-0.495309978723526
1759336340960920600,9.619920654296875,0.07027673721313477,0.5058584213256836,0.6974630355834961
1759336340970920700,9.629920654296875,-1.199976921081543,0.3382711410522461,1.5297784805297852
1759336340980920600,9.639920654296875,-2.9701786041259766,0.12571144104003906,2.4934287071228027
1759336340990920700,9.649920654296874,-4.380975246429443,0.02382802963256836,3.214454412460327
1759336341000920600,9.659920654296876,-5.507501602172852,0.47666454315185547,3.3679332733154297
1759336341010919700,9.669919677734375,-4.563897609710693,1.431516170501709,0.970821738243103
1759336341020919800,9.679919921875,0.344419002532959,1.3253965377807617,-2.336183547973633
1759336341030919700,9.689919677734375,5.333880424499512,0.837134838104248,-4.811207294464111
1759336341040919800,9.699919921875,6.505492687225342,-1.2496085166931152,-4.565242290496826
1759336341050919700,9.709919677734375,-2.8373470306396484,-4.98888635635376,-1.503021001815796
1759336341060919800,9.719919921875,-11.618106842041016,-7.817629337310791,0.6011025905609131
1759336341070920200,9.729920166015624,3.4583137035369873,-9.031704902648926,-0.7323492765426636
1759336341080920000,9.739920166015626,5.504062652587891,-8.068990707397461,-2.2827365398406982
1759336341090920200,9.749920166015626,0.1995539665222168,-5.40311336517334,-1.281374216079712
1759336341100920000,9.759920166015625,1.1938533782958984,-1.8628082275390625,0.0793149471282959
1759336341110921000,9.7699208984375,1.6734592914581299,0.31427478790283203,0.33900970220565796
1759336341120920800,9.7799208984375,-0.651066780090332,1.937819480895996,-0.17747995257377625
1759336341130921000,9.7899208984375,-1.0378437042236328,2.8527235984802246,-1.3284680843353271
1759336341140920800,9.7999208984375,0.8826777935028076,2.9132227897644043,-2.4751527309417725
1759336341150921000,9.8099208984375,2.1989800930023193,2.0113673210144043,-3.26029634475708
1759336341160920800,9.8199208984375,2.059678792953491,2.0790390968322754,-3.2110776901245117
1759336341170921000,9.8299208984375,0.9162356853485107,-0.17261981964111328,-3.61439847946167
1759336341180920800,9.8399208984375,0.47046971321105957,-0.9479856491088867,-3.5275540351867676
1759336341190921000,9.8499208984375,0.9749743938446045,-1.3764352798461914,-3.4029510021209717
1759336341200920800,9.8599208984375,1.5597574710845947,-1.3687047958374023,-3.1654696464538574
1759336341210920200,9.869920166015625,2.2030324935913086,-1.085134506225586,-2.7190234661102295
1759336341220920000,9.879920166015625,2.3605055809020996,-0.8861408233642578,-1.9588403701782227
1759336341230920200,9.889920166015624,2.1850485801696777,-0.6340198516845703,-1.2706600427627563
1759336341240920000,9.899920166015624,1.8561400175094604,-0.3204793930053711,-0.5343327522277832
1759336341250920200,9.909920166015626,1.7177988290786743,-0.08639335632324219,0.19027316570281982
1759336341260920000,9.919920166015626,1.8393635749816895,0.14059734344482422,0.9245098829269409
1759336341270920200,9.929920166015625,1.760697364807129,0.2920846939086914,1.6149404048919678
1759336341280920000,9.939920166015625,1.1918359994888306,0.3235616683959961,2.0361416339874268
1759336341290920200,9.949920166015625,0.5367904901504517,0.45152854919433594,2.4865245819091797
1759336341300920000,9.959920166015625,0.4005523920059204,0.2486858367919922,2.8387880325317383
1759336341310921000,9.9699208984375,0.710797905921936,0.10247421264648438,3.04941463470459
1759336341320921000,9.979921142578124,1.2595171928405762,0.02441692352294922,3.1255860328674316
1759336341330921000,9.9899208984375,1.6640701293945312,0.026432037353515625,3.3649072647094727
1759336341340921000,9.999921142578126,1.6735814809799194,-0.036876678466796875,3.654458522796631
1759336341350921000,10.0099208984375,0.7086352109909058,0.18242740631103516,3.6076133251190186
1759336341360921000,10.019921142578125,0.06152796745300293,0.08001136779785156,3.038722515106201
1759336341370921000,10.0299208984375,0.010027408599853516,0.17292213439941406,2.450507640838623
1759336341380921000,10.039921142578125,0.4768301248550415,0.4559297561645508,2.136121988296509
1759336341390921000,10.0499208984375,0.3338584899902344,0.9169025421142578,1.536832332611084
1759336341400921000,10.059921142578125,0.29196518659591675,1.1949386596679688,1.012824535369873
1759336341410920200,10.069920166015624,0.29981476068496704,1.4115753173828125,0.06031513214111328
1759336341420920000,10.079920166015626,0.61304771900177,1.1446266174316406,-0.08119320869445801
1759336341430920200,10.089920166015625,0.4141121208667755,0.44361114501953125,-0.17947173118591309
1759336341440920000,10.099920166015625,0.07871228456497192,0.17940044403076172,0.24785232543945312
1759336341450920200,10.109920166015625,-0.5172914266586304,0.1746234893798828,0.4782761335372925
1759336341460920000,10.119920166015625,-0.4480856657028198,0.36071205139160156,0.8583762645721436
1759336341470920200,10.129920166015625,-0.6635445356369019,0.44949913024902344,0.9003273248672485
1759336341480920000,10.139920166015624,-0.5250070095062256,0.4814577102661133,0.9767367839813232
1759336341490920200,10.149920166015624,-0.5143336653709412,0.604217529296875,0.9426541328430176
1759336341500920000,10.159920166015626,-0.854738712310791,0.6049337387084961,0.6775588989257812
1759336341510921000,10.1699208984375,-1.0190221071243286,0.665125846862793,0.330116868019104
1759336341520921000,10.179921142578126,-0.8991069197654724,0.7097024917602539,-0.030946731567382812
1759336341530921000,10.1899208984375,-0.4540630280971527,0.5872640609741211,-0.10786199569702148
1759336341540921000,10.199921142578125,-0.2409469336271286,0.5828485488891602,-0.16869854927062988
1759336341550921000,10.2099208984375,-0.24013271927833557,0.6585588455200195,-0.04714083671569824
1759336341560921000,10.219921142578125,-0.41269466280937195,0.7376565933227539,0.2289363145828247
1759336341570921000,10.2299208984375,-0.5503746867179871,0.6860198974609375,0.602501630783081
1759336341580921000,10.239921142578124,-0.6798738241195679,0.5322341918945312,0.9205076694488525
1759336341590921000,10.2499208984375,-0.7565817832946777,0.16201210021972656,0.9360513687133789
1759336341600921000,10.259921142578126,-0.8054922223091125,-0.5179538726806641,0.8017991781234741
1759336341610920200,10.269920166015625,-0.776949405670166,-1.2921371459960938,0.6469320058822632
1759336341620920000,10.279920166015625,-0.8341226577758789,-1.9328126907348633,0.47736406326293945
1759336341630920200,10.289920166015625,-0.8732178211212158,-2.6170654296875,0.23282241821289062
1759336341640920000,10.299920166015625,-0.723926305770874,-3.319561004638672,-0.26479625701904297
1759336341650920200,10.309920166015624,-0.7750327587127686,-3.925591468811035,-0.8642358779907227
1759336341660920000,10.319920166015624,-1.4568769931793213,-4.413239479064941,-1.4101474285125732
1759336341670920200,10.329920166015626,-2.3184659481048584,-5.243013381958008,-1.8085756301879883
1759336341680920000,10.339920166015625,-2.9316420555114746,-6.364487648010254,-1.7165019512176514
1759336341690920200,10.349920166015625,-2.828559398651123,-7.367802619934082,-1.206162691116333
1759336341700920000,10.359920166015625,-1.8705852031707764,-7.536288261413574,-0.34287452697753906
1759336341710921000,10.3699208984375,-1.8880765438079834,-7.545845985412598,-0.3108785152435303
1759336341720920800,10.3799208984375,-0.2461181879043579,-5.187203407287598,0.24953699111938477
1759336341740920800,10.3999208984375,0.10849602520465851,-2.9464969635009766,-0.9839503765106201
1759336341750921000,10.4099208984375,-0.47107380628585815,-1.0462303161621094,-1.6967065334320068
1759336341760920800,10.4199208984375,-1.0445078611373901,0.6007595062255859,-2.0463671684265137
1759336341770921000,10.4299208984375,-1.620462417602539,1.348942756652832,-2.153182029724121
1759336341780920800,10.4399208984375,-2.2098276615142822,1.3699922561645508,-2.2395570278167725
1759336341790921000,10.4499208984375,-2.476698875427246,0.7083930969238281,-2.219780921936035
1759336341800920800,10.4599208984375,-2.8840065002441406,-0.42903995513916016,-2.117720127105713
1759336341810920200,10.469920166015624,-3.4360430240631104,-1.6594219207763672,-1.8412494659423828
1759336341820920000,10.479920166015624,-4.264189720153809,-2.562687873840332,-1.2741577625274658
1759336341830920200,10.489920166015626,-4.735023498535156,-2.912466049194336,-0.5829687118530273
1759336341840920000,10.499920166015626,-3.1869707107543945,-2.681825637817383,0.2549571990966797
1759336341850920200,10.509920166015625,-0.5132815837860107,-2.1359949111938477,0.5556256771087646
1759336341860920000,10.519920166015625,3.315950632095337,-1.2102079391479492,0.7892899513244629
1759336341870920200,10.529920166015625,6.011823654174805,-0.4989461898803711,1.3122197389602661
1759336341880920000,10.539920166015625,4.883388519287109,-0.5121002197265625,2.134877920150757
1759336341890920200,10.549920166015625,1.5231640338897705,-0.8776350021362305,2.5458433628082275
1759336341900920000,10.559920166015624,0.38948965072631836,-0.9011554718017578,2.412954568862915
1759336341910921000,10.5699208984375,0.14463543891906738,-0.7539167404174805,1.4767069816589355
1759336341920921000,10.579921142578126,0.12418985366821289,-0.6523523330688477,0.5335204601287842
1759336341930921000,10.5899208984375,0.3935096263885498,0.37145519256591797,-0.7606645822525024
1759336341940921000,10.599921142578125,0.5400071144104004,0.7968454360961914,-1.5448276996612549
1759336341950921000,10.6099208984375,1.0322024822235107,0.8694791793823242,-1.990850806236267
1759336341960921000,10.619921142578125,1.255690336227417,0.9867205619812012,-2.3512864112854004
1759336341970921000,10.6299208984375,1.5027287006378174,1.258873462677002,-2.316091537475586
1759336341980921000,10.639921142578125,2.396256923675537,1.2680420875549316,-1.714149832725525
1759336341990921000,10.6499208984375,2.509622573852539,2.0005412101745605,-1.3250423669815063
1759336342000921000,10.659921142578124,2.668196678161621,1.92964506149292,-1.358221411705017
1759336342010920200,10.669920166015626,2.9872241020202637,0.18641185760498047,0.8152915835380554
1759336342020920000,10.679920166015625,1.1882586479187012,-0.7177743911743164,1.271423101425171
1759336342030920200,10.689920166015625,1.376591682434082,-0.7703742980957031,1.7710598707199097
1759336342040920000,10.699920166015625,1.9227638244628906,0.061527252197265625,1.6085935831069946
1759336342050920200,10.709920166015625,1.355682134628296,-0.09731674194335938,1.83255934715271
1759336342060920000,10.719920166015624,1.3384838104248047,0.0377044677734375,1.480983018875122
1759336342070920200,10.729920166015624,1.225039005279541,0.5040807723999023,0.910628616809845
1759336342080920000,10.739920166015626,1.6823570728302002,0.9433236122131348,0.32177627086639404
1759336342090920200,10.749920166015626,1.7630283832550049,1.3446645736694336,-0.4061051607131958
1759336342100920000,10.759920166015625,1.2509446144104004,1.672194004058838,-1.2969422340393066
1759336342110921000,10.7699208984375,1.437636375427246,2.022554874420166,-1.8499577045440674
1759336342120921000,10.779921142578125,1.5629119873046875,2.4166259765625,-2.3688387870788574
1759336342130921000,10.7899208984375,1.832974910736084,2.7491068840026855,-2.615931987762451
1759336342140921000,10.799921142578125,2.2848613262176514,3.0174741744995117,-2.3711085319519043
1759336342150921000,10.8099208984375,2.7037787437438965,3.2395081520080566,-1.9726325273513794
1759336342160921000,10.819921142578124,3.076387643814087,3.1503071784973145,-1.5491200685501099
1759336342170921000,10.8299208984375,3.033360242843628,2.9253149032592773,-1.1521888971328735
1759336342180921000,10.839921142578126,2.52842378616333,2.7208805084228516,-0.8156561851501465
1759336342190921000,10.8499208984375,2.0880374908447266,2.6624794006347656,-0.7049964666366577
1759336342200921000,10.859921142578125,1.7620482444763184,2.692394733428955,-0.9514353275299072
1759336342210920200,10.869920166015625,1.7992711067199707,2.6630215644836426,-0.9803465604782104
1759336342220920000,10.879920166015625,1.4625473022460938,2.6404757499694824,-1.4279369115829468
1759336342230920200,10.889920166015624,1.4491643905639648,2.3635854721069336,-1.2626729011535645
1759336342240920000,10.899920166015624,1.3749403953552246,1.9955182075500488,-0.8628203272819519
1759336342250920200,10.909920166015626,1.4428725242614746,1.7649574279785156,-0.4942736029624939
1759336342260920000,10.919920166015626,1.3967852592468262,1.6260333061218262,-0.32296741008758545
1759336342270920200,10.929920166015625,1.085641860961914,1.4446115493774414,-0.2419103980064392
1759336342280920000,10.939920166015625,0.6208438873291016,1.3099026679992676,-0.16785013675689697
1759336342290920200,10.949920166015625,-0.0955958366394043,1.2334346771240234,0.050701141357421875
1759336342300920000,10.959920166015625,-1.1963129043579102,1.4290084838867188,0.2528187036514282
1759336342310921000,10.9699208984375,-2.412436008453369,1.442357063293457,0.7697028517723083
1759336342320921000,10.979921142578124,-4.177364349365234,1.373051643371582,1.0743969678878784
1759336342330921000,10.9899208984375,-7.030189037322998,0.8417491912841797,0.7964056730270386
1759336342340921000,10.999921142578126,-5.620486736297607,0.02529001235961914,-0.6869707107543945
1759336342350921000,11.0099208984375,-1.9482288360595703,-0.6619501113891602,-2.8585691452026367
1759336342360921000,11.019921142578125,0.7063560485839844,-2.0106701850891113,-4.294443607330322
1759336342370921000,11.0299208984375,1.1555843353271484,-3.6471118927001953,-4.263622760772705
1759336342380921000,11.039921142578125,-1.7837824821472168,-5.323142051696777,-2.3975727558135986
1759336342390921000,11.0499208984375,-3.3741817474365234,-6.00983190536499,-0.7515137791633606
1759336342400921000,11.059921142578125,-0.12521076202392578,-5.286794662475586,-1.926052451133728
1759336342410920200,11.069920166015624,2.5172371864318848,-4.39417839050293,-2.961519718170166
1759336342420920300,11.07992041015625,0.574711799621582,-3.163018226623535,-1.9390910863876343
1759336342430920200,11.089920166015625,0.4799790382385254,-1.5878705978393555,-0.4595381021499634
1759336342440920300,11.09992041015625,2.013497829437256,-0.20443248748779297,0.5199583768844604
1759336342450920200,11.109920166015625,0.8220648765563965,0.772552490234375,0.7659013867378235
1759336342460920300,11.11992041015625,-0.17914867401123047,1.5383801460266113,0.6315047144889832
1759336342470920200,11.129920166015625,1.2536425590515137,1.8314752578735352,0.03846180438995361
1759336342480920000,11.139920166015624,2.540421962738037,1.4867191314697266,-0.2885453701019287
1759336342490920200,11.149920166015624,2.5200729370117188,0.9223089218139648,-0.6098641157150269
1759336342500920000,11.159920166015626,1.3435392379760742,-0.596226692199707,-1.0299831628799438
1759336342530921000,11.1899208984375,2.4336061477661133,-1.6043787002563477,-1.297132968902588
1759336342540921000,11.199921142578125,3.073395252227783,-1.8660507202148438,-1.179734230041504
1759336342550921000,11.2099208984375,2.8439385890960693,-1.936807632446289,-0.8114850521087646
1759336342560921000,11.219921142578125,1.7872165441513062,-1.5153827667236328,-0.2610652446746826
1759336342570921000,11.2299208984375,1.022481918334961,-0.8648853302001953,0.2872062921524048
1759336342580921000,11.239921142578124,1.088226079940796,0.0872812271118164,0.867816150188446
1759336342590921000,11.2499208984375,1.0084739923477173,0.7515716552734375,1.3943394422531128
1759336342600921000,11.259921142578126,0.9632337093353271,0.879277229309082,1.5895885229110718
1759336342610920200,11.269920166015625,1.0893833637237549,0.9793825149536133,1.640984058380127
1759336342620920000,11.279920166015625,1.274766206741333,0.5546388626098633,1.6296190023422241
1759336342630920200,11.289920166015625,0.6939305067062378,0.17659854888916016,1.4798331260681152
1759336342640920000,11.299920166015625,-0.028990983963012695,-0.03052520751953125,1.2144038677215576
1759336342650920200,11.309920166015624,0.004338502883911133,-0.07745933532714844,1.0619487762451172
1759336342660920000,11.319920166015624,0.3769429922103882,-0.0035829544067382812,1.1660348176956177
1759336342670920200,11.329920166015626,0.9587526917457581,0.5191755294799805,1.213370442390442
1759336342680920000,11.339920166015625,1.1598387956619263,0.7054166793823242,1.152113676071167
1759336342690920200,11.349920166015625,1.7679578065872192,0.7771978378295898,1.1933594942092896
1759336342700920000,11.359920166015625,1.5646247863769531,0.6872148513793945,1.1747491359710693
1759336342710921000,11.3699208984375,0.4348188638687134,0.629267692565918,1.0825417041778564
1759336342720920800,11.3799208984375,-0.39229607582092285,0.7447357177734375,0.9352196455001831
1759336342730921000,11.3899208984375,-0.18412959575653076,0.6097745895385742,0.9009363651275635
1759336342740920800,11.3999208984375,0.1622486710548401,0.48723888397216797,1.085655689239502
1759336342750921000,11.4099208984375,0.6290437579154968,0.3560638427734375,1.323185682296753
1759336342760920800,11.4199208984375,0.6477882266044617,0.20060157775878906,1.4847068786621094
1759336342770921000,11.4299208984375,0.07853519916534424,0.23784923553466797,1.2627551555633545
1759336342780921000,11.439921142578125,-0.1703203320503235,0.053450584411621094,0.9484848976135254
1759336342810920200,11.469920166015624,-0.6813228130340576,0.7155952453613281,0.828616738319397
1759336342820920000,11.479920166015624,-0.6883195638656616,0.8836860656738281,0.8571996688842773
1759336342830920200,11.489920166015626,-0.6837894916534424,0.9098119735717773,0.7124396562576294
1759336342840920000,11.499920166015626,-0.6683896780014038,0.984980583190918,0.5387148857116699
1759336342850920200,11.509920166015625,-0.6837515234947205,1.0153179168701172,0.3224904537200928
1759336342860920000,11.519920166015625,-0.6152607202529907,1.0440044403076172,0.0664602518081665
1759336342870920200,11.529920166015625,-0.29205694794654846,0.8747692108154297,-0.05909574031829834
1759336342880920000,11.539920166015625,-0.2285410612821579,0.6983585357666016,-0.016345739364624023
1759336342890920200,11.549920166015625,-0.2455623298883438,0.4606609344482422,0.07572627067565918
1759336342900920000,11.559920166015624,-0.11483225226402283,0.2314443588256836,0.09850001335144043
1759336342910921000,11.5699208984375,-0.104026198387146,0.1832723617553711,0.05832815170288086
1759336342920921000,11.579921142578126,-0.33556291460990906,0.15570449829101562,-0.09266018867492676
1759336342930921000,11.5899208984375,-0.6781412363052368,-0.09325790405273438,-0.3897590637207031
1759336342940921000,11.599921142578125,-0.8442997932434082,-0.5950231552124023,-0.4799952507019043
1759336342950921000,11.6099208984375,-1.0511351823806763,-1.385746955871582,-0.3961808681488037
1759336342960921000,11.619921142578125,-1.5246663093566895,-2.314960479736328,-0.1153109073638916
1759336342970921000,11.6299208984375,-2.135019302368164,-3.0975942611694336,0.04037952423095703
1759336342980921000,11.639921142578125,-2.447091579437256,-3.807560920715332,0.09547877311706543
1759336342990921000,11.6499208984375,-2.193424701690674,-4.85390567779541,0.3547980785369873
1759336343000921000,11.659921142578124,-2.4484364986419678,-5.6587934494018555,0.7957960367202759
1759336343010920200,11.669920166015626,-2.6836750507354736,-6.167336463928223,1.2248398065567017
1759336343030920200,11.689920166015625,-1.6629273891448975,-6.238947868347168,0.4338815212249756
1759336343040920300,11.69992041015625,-0.6500415205955505,-5.885594367980957,-0.21402215957641602
1759336343050920200,11.709920166015625,0.24130114912986755,-5.369743347167969,-1.0139057636260986
1759336343060920300,11.71992041015625,0.26545068621635437,-4.399900436401367,-1.739366054534912
1759336343070920200,11.729920166015624,-0.21540391445159912,-3.008199691772461,-2.526358127593994
1759336343080920000,11.739920166015626,-0.8197364807128906,-1.4875402450561523,-2.946547269821167
1759336343090920200,11.749920166015626,-1.4133394956588745,-0.5640163421630859,-3.207710027694702
1759336343100920000,11.759920166015625,-2.5022881031036377,-0.033555030822753906,-3.3540077209472656
1759336343110921000,11.7699208984375,-3.5265252590179443,0.00012302398681640625,-3.435659646987915
1759336343120921000,11.779921142578125,-4.199139595031738,-0.3282957077026367,-3.35498046875
1759336343130921000,11.7899208984375,-4.8437933921813965,-1.1077375411987305,-3.100796699523926
1759336343140921000,11.799921142578125,-5.118183612823486,-1.8898706436157227,-2.7470788955688477
1759336343150921000,11.8099208984375,-4.822356224060059,-2.1511659622192383,-2.2565221786499023
1759336343160921000,11.819921142578124,-3.357895851135254,-2.1477975845336914,-1.47194242477417
1759336343170921000,11.8299208984375,-0.9379127025604248,-1.8025035858154297,-0.6496102809906006
1759336343180921000,11.839921142578126,1.9471815824508667,-1.1433782577514648,-0.2476940155029297
1759336343190921000,11.8499208984375,3.7326951026916504,-0.7289466857910156,0.30106163024902344
1759336343200921000,11.859921142578125,3.948322057723999,-1.2494621276855469,1.2533842325210571
1759336343210920200,11.869920166015625,2.998786687850952,-1.2188310623168945,2.348849058151245
1759336343220920300,11.87992041015625,1.6431400775909424,-1.1208009719848633,2.984466314315796
1759336343230920200,11.889920166015624,0.5348341464996338,-0.7940635681152344,2.447625160217285
1759336343240920300,11.89992041015625,0.9604524374008179,-0.8003759384155273,2.2301583290100098
1759336343250920200,11.909920166015626,1.7337288856506348,-0.8779335021972656,1.767029881477356
1759336343260920300,11.91992041015625,1.3938124179840088,-0.8946590423583984,0.923456609249115
1759336343270920200,11.929920166015625,0.7354152202606201,-0.7854890823364258,-0.12036311626434326
1759336343280920000,11.939920166015625,0.8451297283172607,0.1269674301147461,-0.9808850288391113
1759336343290920200,11.949920166015625,1.9233582019805908,1.067399501800537,-1.4754905700683594
1759336343300920000,11.959920166015625,3.3832345008850098,1.7859511375427246,-1.8146897554397583
1759336343310921000,11.9699208984375,3.989335536956787,2.1322145462036133,-2.061614990234375
1759336343320921000,11.979921142578124,2.8232829570770264,2.5963783264160156,-2.360509157180786
1759336343330921000,11.9899208984375,2.1498398780822754,1.8995399475097656,-2.1249828338623047
1759336343340921000,11.999921142578126,1.9726834297180176,0.8389711380004883,-2.139097213745117
1759336343350921000,12.0099208984375,2.4111387729644775,0.6630668640136719,-2.4294703006744385
1759336343360921000,12.019921142578125,3.0460095405578613,1.402587890625,-2.8995633125305176
1759336343370921000,12.0299208984375,3.3284361362457275,1.8615522384643555,-2.803642988204956
1759336343380921000,12.039921142578125,1.9486217498779297,1.2302803993225098,-1.931522250175476
1759336343390921000,12.0499208984375,-0.22591638565063477,0.2788386344909668,-0.7746245861053467
1759336343400921000,12.059921142578125,0.12891149520874023,1.0982589721679688,-0.12798583507537842
1759336343410920200,12.069920166015624,0.4044818878173828,2.20065975189209,0.036908864974975586
1759336343420920300,12.07992041015625,0.7801666259765625,3.0829124450683594,-0.4165533781051636
1759336343430920200,12.089920166015625,1.1222634315490723,3.6453394889831543,-0.8457092046737671
1759336343440920300,12.09992041015625,1.3946199417114258,3.6412124633789062,-1.1891928911209106
1759336343450920200,12.109920166015625,1.654031753540039,3.2382116317749023,-1.4969205856323242
1759336343460920300,12.11992041015625,1.9083595275878906,2.976335048675537,-1.8023309707641602
1759336343490920200,12.149920166015624,2.064422130584717,2.1603684425354004,-1.6121606826782227
1759336343500920000,12.159920166015626,2.271451473236084,2.400113582611084,-1.3252837657928467
1759336343510921000,12.1699208984375,2.0453038215637207,3.333933115005493,-0.5513978004455566
1759336343560921000,12.219921142578125,2.2504820823669434,2.892441749572754,-0.27451092004776
1759336343570921000,12.2299208984375,2.197944164276123,2.5806612968444824,0.08630058169364929
1759336343580921000,12.239921142578124,1.8342738151550293,2.470559597015381,0.31275761127471924
1759336343590921000,12.2499208984375,-0.18320512771606445,2.0803003311157227,1.0580482482910156
1759336343600921000,12.259921142578126,-2.840033531188965,2.5356831550598145,1.773440957069397
1759336343610920200,12.269920166015625,-6.992459774017334,2.589137077331543,1.9174964427947998
1759336343620920000,12.279920166015625,-10.131217956542969,0.3563265800476074,0.8097736835479736
1759336343630920200,12.289920166015625,-4.505625247955322,-0.5769443511962891,-2.604618787765503
1759336343640920000,12.299920166015625,4.011498928070068,-1.03764009475708,-5.035833358764648
1759336343650920200,12.309920166015624,9.515263557434082,-2.518514633178711,-5.332568645477295
1759336343660920000,12.319920166015624,2.3862552642822266,-3.781412124633789,-3.524266242980957
1759336343670920200,12.329920166015626,-7.653300762176514,-5.083585739135742,-0.7387322187423706
1759336343680920000,12.339920166015625,-3.0233492851257324,-5.910538673400879,-1.3250367641448975
1759336343690920200,12.349920166015625,3.8074116706848145,-4.851004600524902,-2.3605785369873047
1759336343700920000,12.359920166015625,-0.010398387908935547,-3.0602822303771973,-1.7599276304244995
1759336343710921000,12.3699208984375,-1.3166847229003906,-1.862330436706543,-0.6969373226165771
1759336343720921000,12.379921142578125,-0.7780575752258301,-1.5956459045410156,-0.3798789978027344
1759336343730921000,12.3899208984375,0.1140146255493164,-0.8018865585327148,-0.8724449276924133
1759336343740921000,12.399921142578124,0.5251126289367676,-0.20819950103759766,-1.4095772504806519
1759336343750921000,12.4099208984375,1.6476917266845703,-0.12055015563964844,-1.35926353931427
1759336343760921000,12.419921142578126,2.0289316177368164,-0.8061752319335938,-1.48746657371521
1759336343770921000,12.4299208984375,1.0628573894500732,-1.2319936752319336,-0.825623095035553
1759336343780921000,12.439921142578125,0.6807513236999512,-1.4805898666381836,-0.707855761051178
1759336343790921000,12.4499208984375,1.3440303802490234,-1.3054485321044922,-0.6786218881607056
1759336343800921000,12.459921142578125,1.7836971282958984,-1.4739255905151367,-1.2367311716079712
1759336343810920200,12.469920166015624,1.6725239753723145,-2.0723743438720703,-1.6504888534545898
1759336343820920000,12.479920166015624,1.2893540859222412,-1.4775991439819336,-0.8062857389450073
1759336343830920200,12.489920166015626,1.2546358108520508,-1.0914850234985352,-1.0967633724212646
1759336343840920000,12.499920166015626,1.3822848796844482,-1.2030153274536133,-1.3848810195922852
1759336343850920200,12.509920166015625,1.840590000152588,-1.090010643005371,-0.8043608665466309
1759336343860920000,12.519920166015625,1.6961283683776855,-0.6221160888671875,-0.333396852016449
1759336343870920200,12.529920166015625,0.9549813270568848,-0.0668649673461914,-0.4485131502151489
1759336343880920000,12.539920166015625,0.7130529880523682,-0.45590686798095703,-0.8243844509124756
1759336343890920200,12.549920166015625,0.08019757270812988,-0.183807373046875,-0.6883647441864014
1759336343900920000,12.559920166015624,0.09294366836547852,0.11505126953125,-0.4964759349822998
1759336343910921000,12.5699208984375,1.0828046798706055,-0.10283946990966797,-0.4595738649368286
1759336343920921000,12.579921142578126,1.9148674011230469,-0.6734495162963867,-0.5066564083099365
1759336343930921000,12.5899208984375,2.370896100997925,-1.5001964569091797,0.19053888320922852
1759336343940921000,12.599921142578125,1.7955836057662964,-1.879281997680664,0.6549509167671204
1759336343950921000,12.6099208984375,0.9608873128890991,-2.606888771057129,0.8170995116233826
1759336343960921000,12.619921142578125,0.8071521520614624,-2.583186149597168,0.891660749912262
1759336343970921000,12.6299208984375,-0.2653998136520386,-1.2703437805175781,2.3875327110290527
1759336343980921000,12.639921142578125,-0.0008317232131958008,0.6476984024047852,3.0386085510253906
1759336343990921000,12.6499208984375,0.8833101987838745,1.4105615615844727,3.1326100826263428
1759336344000921000,12.659921142578124,1.2982330322265625,1.3522663116455078,2.9413323402404785
1759336344010920200,12.669920166015626,0.9879080653190613,1.105804443359375,2.329342842102051
1759336344020920000,12.679920166015625,0.3089630603790283,1.0348920822143555,1.6680850982666016
1759336344030920200,12.689920166015625,-0.007622718811035156,1.0958890914916992,1.3239250183105469
1759336344040920000,12.699920166015625,-0.2517588138580322,0.9203557968139648,0.8361223936080933
1759336344050920200,12.709920166015625,0.09499239921569824,1.101984977722168,0.39497387409210205
1759336344060920000,12.719920166015624,0.33308517932891846,1.047532081604004,-0.08307433128356934
1759336344070920200,12.729920166015624,0.2597702741622925,1.0536813735961914,-0.07390463352203369
1759336344080920000,12.739920166015626,0.5952408313751221,0.4165201187133789,0.16372346878051758
1759336344090920200,12.749920166015626,0.07841479778289795,0.5064821243286133,0.7052398920059204
1759336344100920000,12.759920166015625,-0.2196100950241089,0.8657102584838867,1.1485049724578857
1759336344110921000,12.7699208984375,-0.38093113899230957,1.221623420715332,1.7720502614974976
1759336344120920800,12.7799208984375,-0.15886014699935913,1.3673582077026367,2.1843507289886475
1759336344130921000,12.7899208984375,0.15626084804534912,1.4438514709472656,2.2541472911834717
1759336344140920800,12.7999208984375,0.07930263876914978,1.0110664367675781,1.7418962717056274
1759336344150921000,12.8099208984375,-0.05357670783996582,1.7558751106262207,1.8682304620742798
1759336344160920800,12.8199208984375,-0.33023032546043396,2.3930716514587402,1.579835295677185
1759336344170921000,12.8299208984375,-0.8128613233566284,2.4638266563415527,0.5126123428344727
1759336344180921000,12.839921142578126,-0.3605307638645172,2.0058913230895996,-0.1200023889541626
1759336344190921000,12.8499208984375,0.2534288167953491,1.9095978736877441,-0.24142920970916748
1759336344200921000,12.859921142578125,0.2341746687889099,1.9130167961120605,-0.256561279296875
1759336344210920200,12.869920166015625,1.0590314865112305,1.0196561813354492,-0.2525753974914551
1759336344220920000,12.879920166015625,0.6718798875808716,1.1084585189819336,-0.12314271926879883
1759336344230920200,12.889920166015624,0.28485971689224243,1.3206987380981445,0.1369396448135376
