time,seconds_elapsed,z,y,x
1759336331528646700,0.187646728515625,-0.15882496535778046,-0.30543261766433716,0.26450464129447937
1759336331538646500,0.197646484375,-0.10812314599752426,-0.313373863697052,0.25045475363731384
1759336331548646700,0.207646728515625,-0.0403171069920063,-0.303600013256073,0.20586158335208893
1759336331558646500,0.217646484375,0.01771509274840355,-0.2981022298336029,0.14477506279945374
1759336331568646700,0.227646728515625,0.04948008432984352,-0.29565876722335815,0.08674286305904388
1759336331578646500,0.237646484375,0.04764748737215996,-0.30482175946235657,0.03726277872920036
1759336331588646700,0.247646728515625,0.04581489413976669,-0.31031954288482666,0.00427605677396059
1759336331598646500,0.257646484375,0.06658431142568588,-0.2718350291252136,-0.021380282938480377
1759336331608642800,0.267642822265625,0.07147123664617538,-0.2070833146572113,-0.03848451003432274
1759336331618643000,0.277642822265625,0.0659734457731247,-0.13011430203914642,-0.04459316283464432
1759336331628642800,0.287642822265625,0.06352998316287994,-0.08124507963657379,-0.060475658625364304
1759336331638643000,0.297642822265625,0.06658431142568588,-0.09529497474431992,-0.07635815441608429
1759336331648642800,0.307642822265625,0.06536258012056351,-0.15454891324043274,-0.08552113175392151
1759336331658643000,0.317642822265625,0.09040805697441101,-0.3341432809829712,-0.09834930300712585
1759336331668642800,0.327642822265625,0.07330382615327835,-0.48319441080093384,-0.033597588539123535
1759336331678643000,0.337642822265625,0.01771509274840355,-0.5827654600143433,0.06108652427792549
1759336331688642800,0.347642822265625,0.018936822190880775,-0.7183775305747986,0.06414084881544113
1759336331698643000,0.357642822265625,0.021380282938480377,-0.7299839854240417,0.007941247895359993
1759336331708642800,0.367642822265625,0.14477506279945374,-0.42638394236564636,-0.1716531366109848
1759336331718643000,0.377642822265625,0.28649580478668213,-0.07819075137376785,-0.2736676335334778
1759336331728642800,0.387642822265625,0.34208452701568604,0.3640756905078888,-0.3530801236629486
1759336331738643000,0.397642822265625,0.2730567753314972,0.7623597979545593,-0.3903428912162781
1759336331748642800,0.407642822265625,0.08185594528913498,0.9737191796302795,-0.37690386176109314
1759336331758643000,0.417642822265625,-0.028099801391363144,0.8381071090698242,-0.34513887763023376
1759336331768642800,0.427642822265625,0.001832595793530345,0.5186246037483215,-0.2932153046131134
1759336331778643000,0.437642822265625,0.04764748737215996,0.19914206862449646,-0.2168571650981903
1759336331788642800,0.447642822265625,0.07391469180583954,-0.12339477986097336,-0.13377949595451355
1759336331798643000,0.457642822265625,0.10445795953273773,-0.40194934606552124,-0.06780604273080826
1759336331808642000,0.46764208984375,0.14049901068210602,-0.5656611919403076,-0.019547687843441963
1759336331818642000,0.477641845703125,0.17409659922122955,-0.627358615398407,0.02015855349600315
1759336331828642000,0.48764208984375,0.18875735998153687,-0.5442809462547302,0.08246681094169617
1759336331838642000,0.497641845703125,0.13927727937698364,-0.475253164768219,0.09407325088977814
1759336331848642000,0.50764208984375,0.051312681287527084,-0.45631635189056396,0.07696902006864548
1759336331858642000,0.517641845703125,-0.051312681287527084,-0.47342056035995483,0.021380282938480377
1759336331868642000,0.52764208984375,-0.13255776464939117,-0.43737950921058655,-0.07269296050071716
1759336331878642000,0.537641845703125,-0.12400564551353455,-0.31520646810531616,-0.1765400618314743
1759336331888642000,0.54764208984375,-0.07880161702632904,-0.12522737681865692,-0.2571742534637451
1759336331898642000,0.557641845703125,-0.01710422709584236,-0.05925392732024193,-0.342695415019989
1759336331908642800,0.567642822265625,0.06841690838336945,-0.06902777403593063,-0.3830125033855438
1759336331918643000,0.577642822265625,0.1569923609495163,-0.11239920556545258,-0.3628539443016052
1759336331928642800,0.587642822265625,0.27122417092323303,-0.15393804013729095,-0.29077184200286865
1759336331938643000,0.597642822265625,0.34697145223617554,-0.14477506279945374,-0.05803219974040985
1759336331948642800,0.607642822265625,0.3500257730484009,-0.2730567753314972,0.051312681287527084
1759336331958643000,0.617642822265625,0.3341432809829712,-0.4196644127368927,0.10690141469240189
1759336331968642800,0.627642822265625,0.3219259977340698,-0.588263213634491,0.14294247329235077
1759336331978643000,0.637642822265625,0.33719760179519653,-0.789237916469574,0.13561208546161652
1759336331988642800,0.647642822265625,0.39767327904701233,-1.0005972385406494,0.12767083942890167
1759336331998643000,0.657642822265625,0.5094616413116455,-1.2095131874084473,0.12522737681865692
1759336332008642000,0.66764208984375,0.6298020482063293,-1.4001030921936035,0.10567969083786011
1759336332018642000,0.677641845703125,0.7360926270484924,-1.4660766124725342,0.02626720629632473
1759336332028642000,0.68764208984375,0.949895441532135,-1.4379768371582031,-0.05803219974040985
1759336332038642000,0.697641845703125,1.1691961288452148,-1.3408491611480713,-0.13500121235847473
1759336332048642000,0.70764208984375,1.2376129627227783,-1.1252137422561646,-0.21930062770843506
1759336332058642000,0.717641845703125,1.2614367008209229,-0.9828822016716003,-0.22113321721553802
1759336332068642000,0.72764208984375,1.3487904071807861,-1.1282681226730347,-0.13561208546161652
1759336332078642000,0.737641845703125,1.3976596593856812,-1.2247848510742188,-0.056810468435287476
1759336332088642000,0.74764208984375,1.482569932937622,-1.3842206001281738,0.03237585723400116
1759336332098642000,0.757641845703125,1.6004669666290283,-1.550986886024475,0.18631389737129211
1759336332108642800,0.767642822265625,1.785559058189392,-1.86497163772583,0.3292563557624817
1759336332118642700,0.777642578125,2.0109684467315674,-2.207667112350464,0.4294382631778717
1759336332128642800,0.787642822265625,2.2003366947174072,-2.484389066696167,0.48869219422340393
1759336332138642700,0.797642578125,2.347555160522461,-2.626720666885376,0.5002986192703247
1759336332148642800,0.807642822265625,2.4862215518951416,-2.744617462158203,0.485027015209198
1759336332158642700,0.817642578125,2.715906858444214,-2.902831554412842,0.4178318381309509
1759336332168642000,0.82764208984375,2.990185260772705,-3.1306843757629395,0.4202753007411957
1759336332178642000,0.837641845703125,3.3396003246307373,-3.4574973583221436,0.5839871764183044
1759336332188642000,0.84764208984375,3.43978214263916,-3.433062791824341,0.684779942035675
1759336332198642000,0.857641845703125,3.478877544403076,-3.3707544803619385,0.7458664774894714
1759336332208641000,0.86764111328125,3.536909818649292,-3.3102786540985107,0.7800748944282532
1759336332218641200,0.87764111328125,3.6059374809265137,-3.258355140686035,0.797789990901947
1759336332228641000,0.88764111328125,3.7024543285369873,-3.230255365371704,0.8020660877227783
1759336332238641200,0.89764111328125,3.793473243713379,-3.221092462539673,0.8497135639190674
1759336332248641000,0.90764111328125,3.925420045852661,-3.352428436279297,0.9126327037811279
1759336332258641200,0.91764111328125,4.055534362792969,-3.570507287979126,0.9999864101409912
1759336332268641000,0.92764111328125,4.1245622634887695,-3.597996234893799,1.06657075881958
1759336332278641200,0.93764111328125,4.104403495788574,-3.3597588539123535,1.0299187898635864
1759336332288641000,0.94764111328125,3.9241983890533447,-2.7391197681427,0.8130616545677185
1759336332308642000,0.96764208984375,3.5662312507629395,-1.9425514936447144,0.5204572081565857
1759336332318642000,0.977641845703125,3.45566463470459,-1.8350391387939453,0.5100724697113037
1759336332328642000,0.98764208984375,3.414736747741699,-1.9449949264526367,0.5925393104553223
1759336332338642000,0.997641845703125,3.3072245121002197,-2.210721254348755,0.7562511563301086
1759336332348641500,1.0076416015625,3.1563408374786377,-2.406198263168335,0.9364564418792725
1759336332358641700,1.0176416015625,3.0182852745056152,-2.328618288040161,1.0415252447128296
1759336332368640800,1.027640869140625,3.0017917156219482,-2.250427484512329,1.026253581047058
1759336332378640600,1.037640625,2.9883527755737305,-1.9645426273345947,1.0024298429489136
1759336332388640800,1.047640869140625,2.7061331272125244,-1.4538593292236328,0.9920451641082764
1759336332398640600,1.057640625,2.03540301322937,-0.7281513810157776,0.8998045325279236
1759336332408639700,1.0676396484375,1.6493362188339233,-0.5180137157440186,0.7776314616203308
1759336332418640000,1.077639892578125,1.4404202699661255,-0.6200281977653503,0.607810914516449
1759336332428639700,1.0876396484375,1.3445143699645996,-0.8301658630371094,0.42577308416366577
1759336332438639900,1.097639892578125,1.2192870378494263,-0.9529497623443604,0.2785545587539673
1759336332448640000,1.107639892578125,1.1062769889831543,-0.9450085163116455,0.17898350954055786
1759336332458640000,1.117639892578125,1.0415252447128296,-0.8772025108337402,0.15760323405265808
1759336332468640800,1.127640869140625,1.1056660413742065,-0.8845328688621521,0.2064724564552307
1759336332478640600,1.137640625,1.2357803583145142,-1.034194827079773,0.30054569244384766
1759336332488640800,1.147640869140625,1.2608258724212646,-1.1985175609588623,0.45326200127601624
1759336332498640600,1.157640625,1.0897835493087769,-1.2034045457839966,0.636521577835083
1759336332508641500,1.1676416015625,0.6414085030555725,-1.0708467960357666,0.8020660877227783
1759336332518641700,1.1776416015625,-0.513126790523529,-0.7904596328735352,0.9046914577484131
1759336332528641500,1.1876416015625,-1.0390818119049072,-0.6572909951210022,0.7312057018280029
1759336332538641700,1.1976416015625,-1.2510520219802856,-0.4337143301963806,0.4550946056842804
1759336332548641500,1.2076416015625,-1.3634512424468994,-0.07330382615327835,0.13988813757896423
1759336332558641700,1.2176416015625,-1.3768903017044067,0.35674530267715454,-0.1966986060142517
1759336332568641500,1.2276416015625,-1.2608258724212646,0.6890559792518616,-0.5094616413116455
1759336332578641400,1.237641357421875,-1.1050552129745483,0.7660250067710876,-0.7617489695549011
1759336332588641500,1.2476416015625,-0.9975429177284241,0.5442809462547302,-0.9132435321807861
1759336332598641400,1.257641357421875,-0.9669997096061707,0.06841690838336945,-0.9126327037811279
1759336332608607200,1.267607177734375,-0.9138544201850891,-0.5424483418464661,-0.788016140460968
1759336332618574000,1.277573974609375,-0.6988298296928406,-1.1459832191467285,-0.5919284224510193
1759336332628540700,1.287540771484375,-0.39767327904701233,-1.5357152223587036,-0.4398229718208313
1759336332638507300,1.29750732421875,-0.12095131725072861,-1.6450600624084473,-0.3677408695220947
1759336332648474400,1.307474365234375,0.1014036312699318,-1.4398094415664673,-0.3286454975605011
1759336332658441000,1.31744091796875,0.24862214922904968,-0.5723807215690613,-0.2730567753314972
1759336332668408600,1.32740869140625,0.3090978264808655,-0.06719517707824707,-0.2919935882091522
1759336332678375200,1.337375244140625,0.32620203495025635,0.33108896017074585,-0.3335324227809906
1759336332688342000,1.347342041015625,0.26083946228027344,0.6823364496231079,-0.303600013256073
1759336332698308600,1.35730859375,0.1508837193250656,0.9553932547569275,-0.1313360333442688
1759336332708276200,1.367276123046875,0.0659734457731247,0.9370672702789307,0
1759336332718242800,1.377242919921875,-0.04581489413976669,0.6328563690185547,0.07269296050071716
1759336332728209400,1.38720947265625,-0.03176499158143997,0.19792033731937408,0.17043140530586243
1759336332738176000,1.397176025390625,0.27611109614372253,-0.4105014503002167,0.16371189057826996
1759336332748142800,1.407142822265625,0.5736024379730225,-0.940121591091156,0.1771509200334549
1759336332758109400,1.417109375,0.8472700715065002,-1.3976596593856812,0.27488934993743896
1759336332768076000,1.427075927734375,1.149037480354309,-1.711033582687378,0.5662720799446106
1759336332778043000,1.43704296875,1.0983357429504395,-1.5632041692733765,0.7134906053543091
1759336332788009200,1.44700927734375,0.8619308471679688,-1.186300277709961,0.7214318513870239
1759336332797975800,1.456975830078125,0.5687155723571777,-0.675006091594696,0.6194173693656921
1759336332807942000,1.46694189453125,0.2632829248905182,-0.08918632566928864,0.48808133602142334
1759336332817908500,1.476908447265625,0.00427605677396059,0.5076290369033813,0.3988949954509735
1759336332827875000,1.486875,-0.16920967400074005,0.9865473508834839,0.3323107063770294
1759336332837841700,1.496841552734375,-0.24862214922904968,1.226617455482483,0.242513507604599
1759336332847808500,1.50680859375,-0.2620611786842346,1.2974777221679688,0.11545353382825851
1759336332857775000,1.516775146484375,-0.29016098380088806,1.2357803583145142,-0.04398229718208313
1759336332867741700,1.52674169921875,-0.24495697021484375,1.1508700847625732,-0.2028072625398636
1759336332877708500,1.53670849609375,-0.15515977144241333,1.0134254693984985,-0.31031954288482666
1759336332887675100,1.546675048828125,-0.09346238523721695,0.6609562039375305,-0.3787364661693573
1759336332897642200,1.556642333984375,-0.10506882518529892,0.485027015209198,-0.33658674359321594
1759336332910921200,1.569921142578125,-0.16798794269561768,0.4856378734111786,-0.21380282938480377
1759336332920921300,1.57992138671875,-0.29016098380088806,0.7183775305747986,-0.04764748737215996
1759336332930921200,1.589921142578125,-0.4648684561252594,1.1380419731140137,0.07696902006864548
1759336332940921300,1.59992138671875,-0.6194173693656921,1.5619823932647705,0.1368338167667389
1759336332950921200,1.609921142578125,-0.7104362845420837,1.8368717432022095,0.11056660860776901
1759336332960921300,1.61992138671875,-0.740368664264679,1.9517145156860352,-0.009162978269159794
1759336332970921200,1.629921142578125,-0.7544185519218445,1.890017032623291,-0.20891591906547546
1759336332980921300,1.63992138671875,-0.7648032903671265,1.7330247163772583,-0.4294382631778717
1759336332990921200,1.649921142578125,-0.7195992469787598,1.5583171844482422,-0.5937610268592834
1759336333000921300,1.65992138671875,-0.6224716901779175,1.3634512424468994,-0.7715228199958801
1759336333010920400,1.66992041015625,-0.5766568183898926,1.3237450122833252,-0.8136724829673767
1759336333020920300,1.67992041015625,-0.5626068711280823,1.3139711618423462,-0.7947356700897217
1759336333030920400,1.68992041015625,-0.5571091175079346,1.2974777221679688,-0.7385360598564148
1759336333040920300,1.69992041015625,-0.5583308339118958,1.292590856552124,-0.6585127115249634
1759336333050920400,1.70992041015625,-0.5870414972305298,1.2767083644866943,-0.5632177591323853
1759336333060920300,1.71992041015625,-0.6401867866516113,1.1740829944610596,-0.44654250144958496
1759336333070920400,1.72992041015625,-0.6786713004112244,1.0109820365905762,-0.32498031854629517
1759336333080920300,1.73992041015625,-0.7006624341011047,0.8710938692092896,-0.2583959996700287
1759336333090920400,1.74992041015625,-0.769079327583313,0.7806857824325562,-0.27488934993743896
1759336333100920600,1.759920654296875,-0.8423831462860107,0.740368664264679,-0.34574973583221436
1759336333110921500,1.76992138671875,-0.8943067193031311,0.7165449261665344,-0.455705463886261
1759336333120921300,1.77992138671875,-0.8723155856132507,0.7812966704368591,-0.6010913848876953
1759336333130921500,1.78992138671875,-0.8582656979560852,0.8393288254737854,-0.6548475623130798
1759336333140921300,1.79992138671875,-0.827722430229187,0.8747590184211731,-0.6346889734268188
1759336333150921500,1.80992138671875,-0.6982190012931824,0.8570439219474792,-0.5821545720100403
1759336333160921300,1.81992138671875,-0.5577199459075928,0.8258898258209229,-0.48380526900291443
1759336333170921500,1.82992138671875,-0.44776421785354614,0.7538077235221863,-0.35124751925468445
1759336333190921500,1.84992138671875,-0.384845107793808,0.949895441532135,-0.12278391420841217
1759336333200921000,1.859921142578125,-0.42577308416366577,1.0714576244354248,-0.0910189226269722
1759336333210920200,1.869920166015625,-0.5455026626586914,1.1148290634155273,-0.1264491081237793
1759336333220920300,1.87992041015625,-0.7061602473258972,1.1355985403060913,-0.2119702398777008
1759336333230920200,1.889920166015625,-0.8051204085350037,1.215621829032898,-0.3995058834552765
1759336333240920300,1.89992041015625,-0.7580837607383728,1.2217304706573486,-0.50335294008255
1759336333250920200,1.909920166015625,-0.6835582256317139,1.1594222784042358,-0.5216789245605469
1759336333260920300,1.91992041015625,-0.5949827432632446,1.0708467960357666,-0.44715335965156555
1759336333270920200,1.929920166015625,-0.5112941861152649,0.9541715383529663,-0.32131510972976685
1759336333280920300,1.93992041015625,-0.42271876335144043,0.8381071090698242,-0.14782938361167908
1759336333290920200,1.949920166015625,-0.3396410644054413,0.7379252314567566,0.030543262138962746
1759336333300920300,1.95992041015625,-0.2620611786842346,0.6572909951210022,0.1918116807937622
1759336333310921000,1.9699208984375,-0.16493362188339233,0.5791002511978149,0.34208452701568604
1759336333320921000,1.979921142578125,-0.07330382615327835,0.4404338300228119,0.4911356568336487
1759336333330921000,1.9899208984375,-0.015271631069481373,0.20586158335208893,0.637132465839386
1759336333340921000,1.999921142578125,-0.006719517521560192,-0.03787364438176155,0.7733554244041443
1759336333350921000,2.0099208984375,-0.0555887371301651,-0.4153883755207062,0.9004153609275818
1759336333360921000,2.019921142578125,-0.09712757170200348,-0.6395758986473083,0.9376781582832336
1759336333370921000,2.0299208984375,-0.13500121235847473,-0.7904596328735352,0.9340129494667053
1759336333380921000,2.039921142578125,-0.15271630883216858,-0.8704829812049866,0.9046914577484131
1759336333390921000,2.0499208984375,-0.1514945775270462,-0.9028588533401489,0.8607091307640076
1759336333400921000,2.059921142578125,-0.1270599663257599,-0.817948579788208,0.7916813492774963
1759336333410920200,2.069920166015625,-0.09773843735456467,-0.5772676467895508,0.6725626587867737
1759336333420920300,2.07992041015625,-0.07330382615327835,-0.29565876722335815,0.5149593949317932
1759336333430920200,2.089920166015625,-0.06169738993048668,-0.07941248267889023,0.342695415019989
1759336333440920300,2.09992041015625,-0.02626720629632473,0.006719517521560192,0.21502456068992615
1759336333450920200,2.109920166015625,0.05497787147760391,-0.13805554807186127,0.20891591906547546
1759336333460920300,2.11992041015625,0.37262779474258423,-0.6914994716644287,0.5216789245605469
1759336333470920200,2.129920166015625,0.5644394755363464,-1.1643091440200806,0.8240572214126587
1759336333480920300,2.13992041015625,0.7299839854240417,-1.663996934890747,1.1331549882888794
1759336333490920200,2.149920166015625,0.8759807348251343,-2.094046115875244,1.4159855842590332
1759336333500920300,2.15992041015625,0.9920451641082764,-2.4520130157470703,1.660942554473877
1759336333510921000,2.1699208984375,1.0604621171951294,-2.7348437309265137,1.8411478996276855
1759336333520921000,2.179921142578125,1.0598511695861816,-2.8655688762664795,1.9614882469177246
1759336333530921000,2.1899208984375,1.0097602605819702,-2.822197437286377,2.004859685897827
1759336333540921000,2.199921142578125,0.8833111524581909,-2.6364943981170654,1.9272798299789429
1759336333550921000,2.2099208984375,0.7391469478607178,-2.4935519695281982,1.7519614696502686
1759336333560921000,2.219921142578125,0.7336491346359253,-2.4239132404327393,1.5338826179504395
1759336333570921000,2.2299208984375,0.8588765263557434,-2.6145031452178955,1.1301007270812988
1759336333580921000,2.239921142578125,0.799011766910553,-2.7293457984924316,0.8118399381637573
1759336333590921000,2.2499208984375,0.637132465839386,-2.783712863922119,0.45142942667007446
1759336333600921000,2.259921142578125,0.4612032473087311,-2.715906858444214,0.08307767659425735
1759336333610920200,2.269920166015625,0.38240164518356323,-2.3573288917541504,-0.18814650177955627
1759336333620920300,2.27992041015625,0.40256020426750183,-1.7751743793487549,-0.36102136969566345
1759336333630920200,2.289920166015625,0.42210787534713745,-1.0714576244354248,-0.4966334402561188
1759336333640920300,2.29992041015625,0.4642575979232788,-0.41172316670417786,-0.6041457056999207
1759336333650920200,2.309920166015625,0.6548475623130798,0.00855211354792118,-0.6298020482063293
1759336333660920300,2.31992041015625,0.9291260242462158,0.27000242471694946,-0.5076290369033813
1759336333670920200,2.329920166015625,1.1520918607711792,0.4178318381309509,-0.2767219543457031
1759336333680920300,2.33992041015625,1.2736539840698242,0.43676865100860596,-0.01771509274840355
1759336333690920200,2.349920166015625,1.1337659358978271,0.2028072625398636,0.19853121042251587
1759336333700920300,2.35992041015625,0.8362745046615601,-0.17348572611808777,0.1563815027475357
1759336333710921000,2.3699208984375,0.6188064813613892,-0.6505714654922485,0.1319468915462494
1759336333720921000,2.379921142578125,0.5937610268592834,-1.102611780166626,0.2278527319431305
1759336333730921000,2.3899208984375,0.7397578358650208,-1.405600905418396,0.3738495409488678
1759336333740921000,2.399921142578125,1.0018190145492554,-1.5680910348892212,0.4453207552433014
1759336333750921000,2.4099208984375,1.310916781425476,-1.613295078277588,0.4105014503002167
1759336333760921000,2.419921142578125,1.598023533821106,-1.6218472719192505,0.3072652220726013
1759336333770921000,2.4299208984375,1.7562376260757446,-1.662164330482483,0.2174680233001709
1759336333780921000,2.439921142578125,1.7464637756347656,-1.6890424489974976,0.2565633952617645
1759336333790921000,2.4499208984375,1.703092336654663,-1.598023533821106,0.3787364661693573
1759336333800921000,2.459921142578125,1.6352862119674683,-0.9443976879119873,0.28649580478668213
1759336333810920200,2.469920166015625,1.7531832456588745,-0.26145032048225403,0.04398229718208313
1759336333820920300,2.47992041015625,1.9028452634811401,-0.1014036312699318,0.1111774742603302
1759336333830920200,2.489920166015625,2.0164661407470703,-0.34574973583221436,0.42271876335144043
1759336333840920300,2.49992041015625,2.434908866882324,-0.23029619455337524,0.3390302062034607
1759336333850920200,2.509920166015625,2.5912904739379883,-0.2779437005519867,0.20891591906547546
1759336333860920300,2.51992041015625,2.4917192459106445,-0.5326744914054871,0.2773328125476837
1759336333870920200,2.529920166015625,2.515542984008789,-0.5870414972305298,0.3341432809829712
1759336333880920300,2.53992041015625,2.634661912918091,-0.030543262138962746,0.13316862285137177
1759336333890920200,2.549920166015625,2.758056640625,0.7257078886032104,-0.1313360333442688
1759336333900920300,2.55992041015625,2.719572067260742,0.8936958312988281,-0.17776179313659668
1759336333910921200,2.569921142578125,2.576018810272217,0.8387179970741272,-0.17104226350784302
1759336333920921000,2.579921142578125,2.5222625732421875,1.2852604389190674,-0.5186246037483215
1759336333930921200,2.589921142578125,2.436741352081299,1.4978415966033936,-0.636521577835083
1759336333940921000,2.599921142578125,2.2461514472961426,1.3964380025863647,-0.7666358947753906
1759336333950921200,2.609921142578125,1.9431623220443726,0.959669291973114,-0.8026769161224365
1759336333960921000,2.619921142578125,1.6884315013885498,0.4031710624694824,-0.7623597979545593
1759336333970921200,2.629921142578125,1.434922456741333,0.192422553896904,-0.6603453159332275
1759336333980921000,2.639921142578125,1.1673635244369507,0.22846360504627228,-0.45753806829452515
1759336333990921200,2.649921142578125,1.0317513942718506,0.1472185254096985,-0.23335053026676178
1759336334000921000,2.659921142578125,1.081842303276062,-0.02382374368607998,-0.16737708449363708
1759336334010920200,2.669920166015625,1.2119566202163696,-0.054367005825042725,-0.16249015927314758
1759336334020920300,2.67992041015625,1.510058879852295,-0.13439035415649414,-0.12767083942890167
1759336334030920200,2.689920166015625,2.1704041957855225,-0.19120082259178162,-0.05619960278272629
1759336334040920300,2.69992041015625,2.6737570762634277,-0.07880161702632904,-0.02015855349600315
1759336334050920200,2.709920166015625,3.1386256217956543,0.006108652334660292,-0.030543262138962746
1759336334060920300,2.71992041015625,3.5271358489990234,-0.0555887371301651,-0.08307767659425735
1759336334070920200,2.729920166015625,3.927863597869873,-0.22296582162380219,-0.11301007121801376
1759336334080920300,2.73992041015625,4.420220851898193,-0.09346238523721695,-0.1007927656173706
1759336334090920200,2.749920166015625,4.843550682067871,0.1313360333442688,-0.08796459436416626
1759336334100920300,2.75992041015625,4.840496063232422,-0.2840523421764374,-0.11301007121801376
1759336334110921000,2.7699208984375,4.547280788421631,-0.6633996367454529,-0.16432274878025055
1759336334120921000,2.779921142578125,4.1135663986206055,-0.43615779280662537,-0.2528982162475586
1759336334130921000,2.7899208984375,3.576616048812866,0.2834414839744568,-0.3597996234893799
1759336334140921000,2.799921142578125,2.568077564239502,0.7409795522689819,-0.49235737323760986
1759336334150921000,2.8099208984375,0.6102544069290161,0.4105014503002167,-0.6126978397369385
1759336334160921000,2.819921142578125,-0.12217304855585098,0.18570303916931152,-0.6414085030555725
1759336334170921000,2.8299208984375,-0.375071257352829,0.1472185254096985,-0.5693264007568359
1759336334180921000,2.839921142578125,-0.30054569244384766,0.2119702398777008,-0.43615779280662537
1759336334190921000,2.8499208984375,-0.022602014243602753,0.05253441259264946,-0.48380526900291443
1759336334200921000,2.859921142578125,0.2687807083129883,0.17898350954055786,-0.6145304441452026
1759336334210920200,2.869920166015625,0.5375614166259766,0.44287729263305664,-0.4544837474822998
1759336334220920300,2.87992041015625,0.7360926270484924,0.3903428912162781,-0.039095375686883926
1759336334230920200,2.889920166015625,0.7568620443344116,0.04703662544488907,0.06902777403593063
1759336334240920300,2.89992041015625,0.4813618063926697,-0.07941248267889023,-0.14233160018920898
1759336334250920200,2.909920166015625,0.33292156457901,-0.02626720629632473,-0.02932153269648552
1759336334260920300,2.91992041015625,0.5821545720100403,-0.1966986060142517,0.1771509200334549
1759336334270920200,2.929920166015625,0.8203920125961304,-0.34208452701568604,0.12095131725072861
1759336334280920300,2.93992041015625,1.0366383790969849,-0.33475416898727417,-0.2669481039047241
1759336334290920200,2.949920166015625,1.49906325340271,-0.02871066704392433,-0.06291911751031876
1759336334300920300,2.95992041015625,1.945605754852295,0.3433062732219696,0.0006108652451075613
1759336334310921200,2.969921142578125,2.6004533767700195,0.2021963894367218,0.10445795953273773
1759336334320921000,2.979921142578125,3.8906006813049316,-0.5283984541893005,0.28527405858039856
1759336334330921200,2.989921142578125,5.140430927276611,-1.4941763877868652,0.33475416898727417
1759336334340921000,2.999921142578125,4.461148738861084,-2.7757716178894043,-0.182648703455925
1759336334350921200,3.009921142578125,2.1306979656219482,-3.80263614654541,-0.9230173826217651
1759336334360921000,3.019921142578125,0.059864792972803116,-3.617543935775757,-1.1624765396118164
1759336334370921200,3.029921142578125,-0.5705481171607971,-2.9297096729278564,-0.8759807348251343
1759336334380921000,3.039921142578125,-0.30604347586631775,-1.9834794998168945,-0.027488935738801956
1759336334390921200,3.049921142578125,-0.1160643994808197,-1.29381263256073,0.47769662737846375
1759336334400921000,3.059921142578125,-0.06352998316287994,-0.5699372887611389,0.7483099102973938
1759336334410920200,3.069920166015625,-0.07635815441608429,-0.04703662544488907,0.6957755088806152
1759336334420920300,3.07992041015625,-0.04948008432984352,0.2565633952617645,0.42638394236564636
1759336334430920200,3.089920166015625,0.02321287989616394,0.41233405470848083,0.12461651116609573
1759336334440920300,3.09992041015625,0.06475171446800232,0.46670106053352356,-0.13377949595451355
1759336334450920200,3.109920166015625,0.04214970022439957,0.4691445231437683,-0.2938261926174164
1759336334460920300,3.11992041015625,-0.01771509274840355,0.4489859640598297,-0.3121521472930908
1759336334470920200,3.129920166015625,-0.10567969083786011,0.4612032473087311,-0.2431243658065796
1759336334480920300,3.13992041015625,-0.10995574295520782,0.48747047781944275,-0.14294247329235077
1759336334490920200,3.149920166015625,-0.0861319974064827,0.33536502718925476,-0.10506882518529892
1759336334500920300,3.15992041015625,-0.07819075137376785,0.20891591906547546,-0.14049901068210602
1759336334510921000,3.1699208984375,-0.048258353024721146,0.14477506279945374,-0.13255776464939117
1759336334520921000,3.179921142578125,-0.04337143152952194,0.14416420459747314,-0.09040805697441101
1759336334530921000,3.1899208984375,-0.019547687843441963,0.1869247704744339,-0.056810468435287476
1759336334540921000,3.199921142578125,-0.019547687843441963,0.23945917189121246,-0.03176499158143997
1759336334550921000,3.2099208984375,-0.03787364438176155,0.2828305959701538,-0.02321287989616394
1759336334560921000,3.219921142578125,-0.045204028487205505,0.3323107063770294,-0.03848451003432274
1759336334570921000,3.2299208984375,-0.042760565876960754,0.39584067463874817,-0.05253441259264946
1759336334580921000,3.239921142578125,-0.04337143152952194,0.4502076804637909,-0.09040805697441101
1759336334590921000,3.2499208984375,-0.03420845419168472,0.48380526900291443,-0.12950342893600464
1759336334600921000,3.259921142578125,-0.013439035043120384,0.48380526900291443,-0.14844025671482086
1759336334610920200,3.269920166015625,0.015271631069481373,0.37751471996307373,-0.17531833052635193
1759336334620920000,3.279920166015625,0.03787364438176155,0.24617868661880493,-0.19547687470912933
1759336334630920200,3.289920166015625,0.06230825558304787,0.08246681094169617,-0.21868975460529327
1759336334640920000,3.299920166015625,0.07635815441608429,-0.06169738993048668,-0.22479841113090515
1759336334650920200,3.309920166015625,0.07696902006864548,-0.17348572611808777,-0.2028072625398636
1759336334660920000,3.319920166015625,0.0757472887635231,-0.2474004179239273,-0.16004669666290283
1759336334670920200,3.329920166015625,0.07330382615327835,-0.28099802136421204,-0.1007927656173706
1759336334680920000,3.339920166015625,0.06780604273080826,-0.29626965522766113,-0.04581489413976669
1759336334690920200,3.349920166015625,0.07880161702632904,-0.3237585723400116,-0.012828170321881771
1759336334700920000,3.359920166015625,0.10018189996480942,-0.3481931984424591,0.00366519158706069
1759336334710921000,3.3699208984375,0.0708603709936142,-0.2926044464111328,0.039706241339445114
1759336334720921000,3.379921142578125,0.056810468435287476,-0.027488935738801956,0.13866640627384186
1759336334730921000,3.3899208984375,0.07147123664617538,0.0959058403968811,0.16554448008537292
1759336334740921000,3.399921142578125,0.06536258012056351,0.08857546001672745,0.1563815027475357
1759336334750921000,3.4099208984375,0.042760565876960754,-0.06658431142568588,0.15760323405265808
1759336334760921000,3.419921142578125,-0.015271631069481373,-0.29993483424186707,0.1814269721508026
1759336334770921000,3.4299208984375,-0.07391469180583954,-0.37079519033432007,0.2021963894367218
1759336334780921000,3.439921142578125,-0.11789698898792267,-0.2669481039047241,0.22052235901355743
1759336334790921000,3.4499208984375,-0.1563815027475357,-0.1466076523065567,0.2076941877603531
1759336334800921000,3.459921142578125,-0.19975294172763824,-0.10751228034496307,0.17043140530586243
1759336334810920200,3.469920166015625,-0.23090706765651703,-0.17287486791610718,0.16982053220272064
1759336334820920300,3.47992041015625,-0.25106561183929443,-0.28649580478668213,0.20341812074184418
1759336334830920200,3.489920166015625,-0.26572638750076294,-0.40744712948799133,0.23029619455337524
1759336334840920300,3.49992041015625,-0.2773328125476837,-0.5907067060470581,0.22479841113090515
1759336334850920200,3.509920166015625,-0.2871066629886627,-0.6762278079986572,0.20525072515010834
1759336334860920300,3.51992041015625,-0.2871066629886627,-0.6664539575576782,0.18814650177955627
1759336334870920200,3.529920166015625,-0.3017674386501312,-0.5632177591323853,0.18875735998153687
1759336334880920300,3.53992041015625,-0.32620203495025635,-0.4489859640598297,0.17837265133857727
1759336334890920200,3.549920166015625,-0.35185837745666504,-0.323147714138031,0.1466076523065567
1759336334900920300,3.55992041015625,-0.37568211555480957,-0.15943582355976105,0.1007927656173706
1759336334910921000,3.5699208984375,-0.39645153284072876,0.03420845419168472,0.07635815441608429
1759336334920921000,3.579921142578125,-0.4178318381309509,0.1618792861700058,0.05864306539297104
1759336334930921000,3.5899208984375,-0.4349360466003418,0.22479841113090515,0.04642575979232788
1759336334940921000,3.599921142578125,-0.45692721009254456,0.2938261926174164,0.031154127791523933
1759336334950921000,3.6099208984375,-0.4495968222618103,0.2974913716316223,-0.01710422709584236
1759336334960921000,3.619921142578125,-0.42271876335144043,0.23457226157188416,-0.039095375686883926
1759336334970921000,3.6299208984375,-0.3854559659957886,0.17837265133857727,-0.039706241339445114
1759336334980921000,3.639921142578125,-0.342695415019989,0.12828169763088226,-0.03420845419168472
1759336334990921000,3.6499208984375,-0.30543261766433716,0.07391469180583954,-0.01466076634824276
1759336335000921000,3.659921142578125,-0.2583959996700287,0.00427605677396059,0.021991148591041565
1759336335010920200,3.669920166015625,-0.19058994948863983,-0.010995574295520782,0.06963863968849182
1759336335020920300,3.67992041015625,-0.1160643994808197,0.009162978269159794,0.11301007121801376
1759336335030920200,3.689920166015625,-0.02932153269648552,0.02626720629632473,0.13072516024112701
1759336335040920300,3.69992041015625,0.0403171069920063,0.025656340643763542,0.13500121235847473
1759336335050920200,3.709920166015625,0.0910189226269722,0.028099801391363144,0.14233160018920898
1759336335060920300,3.71992041015625,0.12278391420841217,0.013439035043120384,0.16004669666290283
1759336335070920200,3.729920166015625,0.16859880089759827,0.0354301854968071,0.16432274878025055
1759336335080920000,3.739920166015625,0.2028072625398636,0.05375614017248154,0.14416420459747314
1759336335090920200,3.749920166015625,0.24190263450145721,0.04886921867728233,0.13316862285137177
1759336335100920000,3.759920166015625,0.28466320037841797,0.08979719132184982,0.13744467496871948
1759336335110921000,3.7699208984375,0.3090978264808655,0.152105450630188,0.1466076523065567
1759336335120921000,3.779921142578125,0.3335324227809906,0.19120082259178162,0.15760323405265808
1759336335130921000,3.7899208984375,0.36529740691185,0.2015855312347412,0.16859880089759827
1759336335140921000,3.799921142578125,0.39584067463874817,0.18509216606616974,0.17043140530586243
1759336335150921000,3.8099208984375,0.423329621553421,0.15577064454555511,0.16737708449363708
1759336335160921000,3.819921142578125,0.44654250144958496,0.11728613078594208,0.16554448008537292
1759336335170921000,3.8299208984375,0.46853363513946533,0.0659734457731247,0.15882496535778046
1759336335180921000,3.839921142578125,0.48258355259895325,-0.006108652334660292,0.1459967941045761
1759336335190921000,3.8499208984375,0.48319441080093384,-0.048258353024721146,0.12889257073402405
1759336335200921000,3.859921142578125,0.4758640229701996,-0.05864306539297104,0.11911872029304504
1759336335210920200,3.869920166015625,0.4508185386657715,-0.001832595793530345,0.1160643994808197
1759336335220920300,3.87992041015625,0.3842342495918274,0.05803219974040985,0.1062905490398407
1759336335230920200,3.889920166015625,0.2669481039047241,0.0024434609804302454,0.08368854224681854
1759336335240920300,3.89992041015625,0.14905111491680145,-0.19425514340400696,0.06780604273080826
1759336335250920200,3.909920166015625,0.09162978827953339,-0.39095374941825867,0.051312681287527084
1759336335260920300,3.91992041015625,0.09896016865968704,-0.4398229718208313,0.003054326167330146
1759336335270920200,3.929920166015625,0.15027284622192383,-0.403781920671463,-0.09468411654233932
1759336335280920300,3.93992041015625,0.1875356286764145,-0.4331034719944,-0.19547687470912933
1759336335290920200,3.949920166015625,0.22602014243602753,-0.5198463201522827,-0.25473082065582275
1759336335300920300,3.95992041015625,0.23457226157188416,-0.6230825781822205,-0.3640756905078888
1759336335310921200,3.969921142578125,0.19058994948863983,-0.6603453159332275,-0.5009095072746277
1759336335320921000,3.979921142578125,0.09957103431224823,-0.6817256212234497,-0.7055493593215942
1759336335330921200,3.989921142578125,-0.01771509274840355,-0.656680166721344,-0.969443142414093
1759336335340921000,3.999921142578125,-0.13316862285137177,-0.5491678714752197,-1.2486085891723633
1759336335350921200,4.009921142578125,-0.1814269721508026,-0.3640756905078888,-1.492343783378601
1759336335360921000,4.019921142578125,-0.16798794269561768,-0.09896016865968704,-1.6847662925720215
1759336335370921200,4.029921142578125,-0.14233160018920898,0.2626720666885376,-1.8319848775863647
1759336335380921000,4.039921142578125,-0.12339477986097336,0.59803706407547,-1.9590448141098022
1759336335390921200,4.049921142578125,-0.20525072515010834,0.8008443117141724,-2.0971004962921143
1759336335400921000,4.059921142578125,-0.29077184200286865,0.9162978529930115,-2.183232307434082
1759336335410920200,4.069920166015625,-0.3744603991508484,0.9908234477043152,-2.152689218521118
1759336335420920300,4.07992041015625,-0.4697553813457489,1.0458012819290161,-2.032959461212158
1759336335430920200,4.089920166015625,-0.5900958180427551,0.9761626720428467,-1.9413297176361084
1759336335440920300,4.09992041015625,-0.684779942035675,0.9297369122505188,-1.9242255687713623
1759336335450920200,4.109920166015625,-0.7177666425704956,0.788016140460968,-1.9034560918807983
1759336335460920300,4.11992041015625,-0.7153232097625732,0.5595525503158569,-1.9040669202804565
1759336335470920200,4.129920166015625,-0.7079927921295166,0.5106833577156067,-1.9028452634811401
1759336335480920300,4.13992041015625,-0.7177666425704956,0.4905247986316681,-1.853365182876587
1759336335490920200,4.149920166015625,-0.8649851679801941,0.28955012559890747,-1.7146987915039062
1759336335500920300,4.15992041015625,-1.0586295127868652,0.13255776464939117,-1.6212363243103027
1759336335510921000,4.1699208984375,-1.1936306953430176,0.018936822190880775,-1.6584991216659546
1759336335520921000,4.179921142578125,-1.2699888944625854,-0.11362093687057495,-1.7513506412506104
1759336335530921000,4.1899208984375,-1.3280210494995117,-0.252287358045578,-1.8368717432022095
1759336335540921000,4.199921142578125,-1.3921618461608887,-0.3127630054950714,-1.8796323537826538
1759336335550921000,4.2099208984375,-1.4312572479248047,-0.3549126982688904,-1.9602665901184082
1759336335560921000,4.219921142578125,-1.3701707124710083,-0.5283984541893005,-2.090991735458374
1759336335570921000,4.2299208984375,-1.253495454788208,-0.7776314616203308,-2.1813998222351074
1759336335590921000,4.2499208984375,-1.1154398918151855,-1.330464482307434,-2.034792184829712
1759336335600921000,4.259921142578125,-1.0867292881011963,-1.5063936710357666,-1.93766450881958
1759336335610920200,4.269920166015625,-1.0476338863372803,-1.5601497888565063,-1.8753563165664673
1759336335620920000,4.279920166015625,-1.0390818119049072,-1.5546520948410034,-1.816102385520935
1759336335630920200,4.289920166015625,-1.0659598112106323,-1.445918083190918,-1.803274154663086
1759336335640920000,4.299920166015625,-1.2345587015151978,-1.455691933631897,-1.8216001987457275
1759336335650920200,4.309920166015625,-1.3573426008224487,-1.4581353664398193,-1.8429805040359497
1759336335660920000,4.319920166015625,-1.4098769426345825,-1.4410310983657837,-1.7544050216674805
1759336335670920200,4.329920166015625,-1.3634512424468994,-1.5106697082519531,-1.5723671913146973
1759336335680920000,4.339920166015625,-1.3561208248138428,-1.4581353664398193,-1.4086552858352661
1759336335690920200,4.349920166015625,-1.359786033630371,-1.3768903017044067,-1.3640620708465576
1759336335700920000,4.359920166015625,-1.3616186380386353,-1.3622294664382935,-1.3341296911239624
1759336335710921000,4.3699208984375,-1.3182471990585327,-1.289536476135254,-1.253495454788208
1759336335720921000,4.379921142578125,-1.1985175609588623,-1.1136072874069214,-1.1301007270812988
1759336335730921000,4.3899208984375,-1.0708467960357666,-0.9468411207199097,-1.006095051765442
1759336335740920800,4.3999208984375,-0.9773843884468079,-0.8136724829673767,-0.9071348905563354
1759336335750921000,4.4099208984375,-0.8759807348251343,-0.6835582256317139,-0.8411614298820496
1759336335760920800,4.4199208984375,-0.7037167549133301,-0.5723807215690613,-0.7641924023628235
1759336335770921000,4.4299208984375,-0.5907067060470581,-0.5283984541893005,-0.7006624341011047
1759336335780921000,4.439921142578125,-0.5015203952789307,-0.4648684561252594,-0.6236934065818787
1759336335790921000,4.4499208984375,-0.4178318381309509,-0.3836233615875244,-0.5455026626586914
1759336335800921000,4.459921142578125,-0.35246923565864563,-0.26511552929878235,-0.4294382631778717
1759336335810920400,4.46992041015625,-0.2919935882091522,-0.15515977144241333,-0.27611109614372253
1759336335820920300,4.47992041015625,-0.24007004499435425,-0.05925392732024193,-0.10201449692249298
1759336335830920400,4.48992041015625,-0.22479841113090515,0.021991148591041565,0.07330382615327835
1759336335840920300,4.49992041015625,-0.19425514340400696,0.02076941914856434,0.20341812074184418
1759336335850920400,4.50992041015625,-0.16920967400074005,0.021380282938480377,0.30604347586631775
1759336335860920300,4.51992041015625,-0.14294247329235077,0.05803219974040985,0.3842342495918274
1759336335870920400,4.52992041015625,-0.07452555745840073,0.025045474991202354,0.41599923372268677
1759336335880920300,4.53992041015625,-0.028099801391363144,0.03237585723400116,0.4648684561252594
1759336335890920400,4.54992041015625,0.00366519158706069,0.05864306539297104,0.5583308339118958
1759336335900920300,4.55992041015625,0.02015855349600315,0.09834930300712585,0.6841690540313721
1759336335910921200,4.569921142578125,0.006719517521560192,0.19853121042251587,0.8472700715065002
1759336335920921300,4.57992138671875,-0.01771509274840355,0.3634648323059082,1.0115928649902344
1759336335930921200,4.589921142578125,-0.02626720629632473,0.5943718552589417,1.1905763149261475
1759336335940921300,4.59992138671875,0.02871066704392433,0.8527678847312927,1.3939944505691528
1759336335950921200,4.609921142578125,0.18631389737129211,1.0696250200271606,1.5833626985549927
1759336335960921300,4.61992138671875,0.43249258399009705,1.238223910331726,1.7275269031524658
1759336335970921200,4.629921142578125,0.6866125464439392,1.3365731239318848,1.8222110271453857
1759336335980921300,4.63992138671875,0.8246681094169617,1.436144232749939,1.580308437347412
1759336335990921200,4.649921142578125,0.8985827565193176,1.4563027620315552,1.1313223838806152
1759336336000921300,4.65992138671875,0.9944885969161987,1.2620476484298706,1.1099421977996826
1759336336010920400,4.66992041015625,0.8442157506942749,0.8234463334083557,1.742187738418579
1759336336020920600,4.679920654296875,0.5381723046302795,0.3634648323059082,2.277916431427002
1759336336030920400,4.68992041015625,0.4282165467739105,0.4764748811721802,1.9578231573104858
1759336336040920600,4.699920654296875,0.4966334402561188,0.8093964457511902,1.225395679473877
1759336336050920400,4.70992041015625,0.5864306092262268,0.4764748811721802,1.1258246898651123
1759336336060920600,4.719920654296875,0.5949827432632446,-0.16310101747512817,1.5039502382278442
1759336336070920400,4.72992041015625,0.5442809462547302,-0.3292563557624817,1.7354681491851807
1759336336080920600,4.739920654296875,0.5253441333770752,-0.0403171069920063,1.7214182615280151
1759336336090920400,4.74992041015625,0.5424483418464661,0.3695734739303589,1.5442672967910767
1759336336100920600,4.759920654296875,0.6517932415008545,0.6298020482063293,1.236391305923462
1759336336110921200,4.769921142578125,0.7941248416900635,0.4080579876899719,1.186300277709961
1759336336120921000,4.779921142578125,0.9004153609275818,0.12522737681865692,1.1789699792861938
1759336336130921200,4.789921142578125,0.9724974632263184,0.0006108652451075613,1.111163854598999
1759336336140921000,4.799921142578125,1.0213667154312134,0.045204028487205505,0.9975429177284241
1759336336150921200,4.809921142578125,1.0476338863372803,0.12400564551353455,0.9010262489318848
1759336336160921000,4.819921142578125,1.0561859607696533,0.17898350954055786,0.8649851679801941
1759336336170921200,4.829921142578125,1.0531316995620728,0.23457226157188416,0.8796459436416626
1759336336180921000,4.839921142578125,1.018923282623291,0.29504790902137756,0.9370672702789307
1759336336190921200,4.849921142578125,0.9560040831565857,0.41233405470848083,1.0115928649902344
1759336336200921000,4.859921142578125,0.911410927772522,0.5968153476715088,1.081842303276062
1759336336210920200,4.869920166015625,0.8918632864952087,0.7354817390441895,1.150259256362915
1759336336220920300,4.87992041015625,0.9053022861480713,0.7580837607383728,1.2205088138580322
1759336336230920200,4.889920166015625,0.8888089060783386,0.6505714654922485,1.2754865884780884
1759336336240920300,4.89992041015625,0.8784242272377014,0.5259549617767334,1.3292428255081177
1759336336250920200,4.909920166015625,0.9468411207199097,0.4239404797554016,1.3750576972961426
1759336336260920300,4.91992041015625,1.016479730606079,0.38117989897727966,1.3823879957199097
1759336336270920400,4.92992041015625,1.0103710889816284,0.2791654169559479,1.3561208248138428
1759336336290920400,4.94992041015625,0.950506329536438,0.03481931984424591,1.2663236856460571
1759336336300920300,4.95992041015625,1.0005972385406494,-0.13805554807186127,1.2113457918167114
1759336336310921200,4.969921142578125,1.053742527961731,-0.3439171314239502,1.1447614431381226
1759336336320921000,4.979921142578125,1.0671815872192383,-0.5387831330299377,1.0659598112106323
1759336336340921000,4.999921142578125,0.6505714654922485,-0.7947356700897217,0.950506329536438
1759336336350921200,5.009921142578125,0.4508185386657715,-0.7629706859588623,0.9138544201850891
1759336336360921000,5.019921142578125,0.25106561183929443,-0.7043276429176331,0.8912523984909058
1759336336370921200,5.029921142578125,0.09285151958465576,-0.6047565937042236,0.8576548099517822
1759336336380921000,5.039921142578125,0.003054326167330146,-0.47342056035995483,0.8338310718536377
1759336336390921200,5.049921142578125,-0.05742133408784866,-0.31154128909111023,0.7904596328735352
1759336336400921000,5.059921142578125,-0.12828169763088226,-0.17959438264369965,0.770301103591919
1759336336410920200,5.069920166015625,-0.16004669666290283,-0.14844025671482086,0.7910705208778381
1759336336420920300,5.07992041015625,-0.15393804013729095,-0.08002334833145142,0.7635815739631653
1759336336430920200,5.089920166015625,-0.1417207419872284,-0.04398229718208313,0.7092145681381226
1759336336440920300,5.09992041015625,-0.11484266817569733,-0.04703662544488907,0.5858197808265686
1759336336450920200,5.109920166015625,-0.09346238523721695,-0.0959058403968811,0.5027421116828918
1759336336460920300,5.11992041015625,-0.054367005825042725,-0.08857546001672745,0.43188172578811646
1759336336470920200,5.129920166015625,-0.00855211354792118,0.0006108652451075613,0.3878994286060333
1759336336480920300,5.13992041015625,0.01160643994808197,0.13439035415649414,0.3732386529445648
1759336336490920200,5.149920166015625,0.02382374368607998,0.20402899384498596,0.3891211748123169
1759336336500920300,5.15992041015625,0.06169738993048668,0.16798794269561768,0.41599923372268677
1759336336510921000,5.1699208984375,0.1014036312699318,0.054367005825042725,0.40683624148368835
1759336336520921000,5.179921142578125,0.1319468915462494,-0.0555887371301651,0.3530801236629486
1759336336530921000,5.1899208984375,0.1563815027475357,-0.11911872029304504,0.28038713335990906
1759336336540921000,5.199921142578125,0.19058994948863983,-0.1215621829032898,0.2382374405860901
1759336336550921000,5.2099208984375,0.21319197118282318,-0.09040805697441101,0.23884831368923187
1759336336560921000,5.219921142578125,0.23945917189121246,0.009162978269159794,0.29504790902137756
1759336336570921000,5.2299208984375,0.23396138846874237,0.0757472887635231,0.35185837745666504
1759336336590921000,5.2499208984375,0.25595253705978394,0.02076941914856434,0.3878994286060333
1759336336600921000,5.259921142578125,0.2871066629886627,-0.07696902006864548,0.34758231043815613
1759336336610920400,5.26992041015625,0.32559117674827576,-0.17104226350784302,0.2974913716316223
1759336336620920300,5.27992041015625,0.3628539443016052,-0.2834414839744568,0.23090706765651703
1759336336630920200,5.289920166015625,0.403781920671463,-0.34758231043815613,0.10323622822761536
1759336336640920300,5.29992041015625,0.39767327904701233,-0.3280346393585205,-0.11056660860776901
1759336336650920400,5.30992041015625,0.3176499307155609,-0.22846360504627228,-0.39645153284072876
1759336336660920300,5.31992041015625,0.19853121042251587,-0.08246681094169617,-0.7177666425704956
1759336336670920200,5.329920166015625,0.07819075137376785,0.15027284622192383,-1.1355985403060913
1759336336680920300,5.33992041015625,0.03787364438176155,0.25595253705978394,-1.2846496105194092
1759336336690920400,5.34992041015625,0.018936822190880775,0.25045475363731384,-1.3078625202178955
1759336336700920300,5.35992041015625,-0.028099801391363144,0.11239920556545258,-1.2736539840698242
1759336336710921200,5.369921142578125,-0.07880161702632904,-0.08185594528913498,-1.2455542087554932
1759336336720921000,5.379921142578125,-0.08979719132184982,-0.20097467303276062,-1.2589932680130005
1759336336730921200,5.389921142578125,-0.0959058403968811,-0.13316862285137177,-1.338405728340149
1759336336740921000,5.399921142578125,-0.10690141469240189,0.13988813757896423,-1.4654656648635864
1759336336750921200,5.409921142578125,-0.12950342893600464,0.5357288122177124,-1.662164330482483
1759336336760921000,5.419921142578125,-0.21380282938480377,0.9902125597000122,-1.9034560918807983
1759336336770921200,5.429921142578125,-0.35674530267715454,1.4648548364639282,-2.087937355041504
1759336336780921000,5.439921142578125,-0.5051855444908142,1.7678439617156982,-2.1398608684539795
1759336336790921200,5.449921142578125,-0.6597344875335693,1.4972307682037354,-2.1142046451568604
1759336336800921000,5.459921142578125,-0.7623597979545593,1.103833556175232,-2.1227567195892334
1759336336810920400,5.46992041015625,-0.9126327037811279,1.1246029138565063,-2.0983221530914307
1759336336820920300,5.47992041015625,-0.9810495972633362,1.3646728992462158,-2.043955087661743
1759336336830920400,5.48992041015625,-0.9480628371238708,1.356731653213501,-1.9828685522079468
1759336336840920300,5.49992041015625,-0.9272934198379517,1.1288789510726929,-1.8820757865905762
1759336336850920400,5.50992041015625,-0.9529497623443604,0.7605272531509399,-1.7611244916915894
1759336336860920300,5.51992041015625,-1.0806206464767456,0.31642818450927734,-1.6285667419433594
1759336336870920400,5.52992041015625,-1.224173903465271,-0.09834930300712585,-1.5460999011993408
1759336336880920300,5.53992041015625,-1.2791517972946167,-0.40622538328170776,-1.5522085428237915
1759336336890920400,5.54992041015625,-1.235169529914856,-0.5564982295036316,-1.6493362188339233
1759336336900920300,5.55992041015625,-1.1142182350158691,-0.7269296646118164,-1.8014415502548218
1759336336910921200,5.569921142578125,-0.9902125597000122,-0.8704829812049866,-1.768454909324646
1759336336920921000,5.579921142578125,-0.8796459436416626,-1.1246029138565063,-1.623068928718567
1759336336930921200,5.589921142578125,-0.8765916228294373,-1.4721852540969849,-1.4275920391082764
1759336336940921000,5.599921142578125,-0.8961393237113953,-1.5864170789718628,-1.3390166759490967
1759336336950921200,5.609921142578125,-0.9187413454055786,-1.3738359212875366,-1.4013248682022095
1759336336960921000,5.619921142578125,-0.9853256344795227,-1.1606439352035522,-1.531439185142517
1759336336970921200,5.629921142578125,-1.0891727209091187,-1.216843605041504,-1.6389514207839966
1759336336980921000,5.639921142578125,-1.1368201971054077,-1.5460999011993408,-1.7049249410629272
1759336336990921200,5.649921142578125,-1.207680583000183,-1.76723313331604,-1.7037031650543213
1759336337000921000,5.659921142578125,-1.2663236856460571,-1.683544635772705,-1.6377297639846802
1759336337010920200,5.669920166015625,-1.2889256477355957,-1.4764612913131714,-1.5326608419418335
1759336337020920300,5.67992041015625,-1.2003501653671265,-1.1911872625350952,-1.3909401893615723
1759336337030920200,5.689920166015625,-1.0946705341339111,-0.9724974632263184,-1.3439035415649414
1759336337040920300,5.69992041015625,-0.9669997096061707,-0.7874053120613098,-1.3103059530258179
1759336337050920200,5.709920166015625,-0.8344419002532959,-0.7086036801338196,-1.2638801336288452
1759336337060920300,5.71992041015625,-0.6792821288108826,-0.6835582256317139,-1.2229522466659546
1759336337070920200,5.729920166015625,-0.5259549617767334,-0.6291912198066711,-1.1673635244369507
1759336337080920300,5.73992041015625,-0.3634648323059082,-0.5100724697113037,-1.0885618925094604
1759336337090920200,5.749920166015625,-0.22479841113090515,-0.35185837745666504,-0.9804387092590332
1759336337100920300,5.75992041015625,-0.11423180252313614,-0.18325957655906677,-0.8649851679801941
1759336337110921000,5.7699208984375,-0.03848451003432274,-0.01466076634824276,-0.7397578358650208
1759336337120921000,5.779921142578125,0.009773843921720982,0.11728613078594208,-0.598647952079773
1759336337130921000,5.7899208984375,0.06169738993048668,0.21868975460529327,-0.3878994286060333
1759336337140921000,5.799921142578125,0.0708603709936142,0.242513507604599,-0.22296582162380219
1759336337150921000,5.8099208984375,0.05864306539297104,0.2877175211906433,-0.031154127791523933
1759336337160921000,5.819921142578125,0.04153883829712868,0.3237585723400116,0.1716531366109848
1759336337180921000,5.839921142578125,0.012828170321881771,0.4031710624694824,0.5583308339118958
1759336337190921200,5.849921142578125,-0.006108652334660292,0.48747047781944275,0.7360926270484924
1759336337200921000,5.859921142578125,-0.019547687843441963,0.5626068711280823,0.8924741148948669
1759336337210920200,5.869920166015625,-0.03176499158143997,0.6328563690185547,1.016479730606079
1759336337220920300,5.87992041015625,-0.05009094998240471,0.7654141783714294,1.1136072874069214
1759336337230920200,5.889920166015625,-0.07208210229873657,0.9938777685165405,1.188132882118225
1759336337240920300,5.89992041015625,-0.1319468915462494,1.3164145946502686,1.2748757600784302
1759336337250920200,5.909920166015625,-0.1472185254096985,1.6713273525238037,1.131933331489563
1759336337260920300,5.91992041015625,0.09407325088977814,1.2577714920043945,1.004873275756836
1759336337270920400,5.92992041015625,0.5015203952789307,0.485027015209198,1.1020009517669678
1759336337280920300,5.93992041015625,0.7660250067710876,-0.27550023794174194,1.5540411472320557
1759336337290920400,5.94992041015625,0.6780604124069214,0.07880161702632904,1.8869627714157104
1759336337300920300,5.95992041015625,0.4996877610683441,1.2113457918167114,1.673770785331726
1759336337310921200,5.969921142578125,0.7104362845420837,1.3744467496871948,1.4098769426345825
1759336337320921000,5.979921142578125,1.0085384845733643,0.5894849896430969,1.4636331796646118
1759336337330921200,5.989921142578125,1.0891727209091187,0.03787364438176155,1.5106697082519531
1759336337340921000,5.999921142578125,0.9810495972633362,-0.07452555745840073,1.4379768371582031
1759336337350921200,6.009921142578125,0.8509352803230286,0.045204028487205505,1.3365731239318848
1759336337360921000,6.019921142578125,0.8436049222946167,0.3988949954509735,1.091616153717041
1759336337370921200,6.029921142578125,0.941343367099762,0.3988949954509735,1.024420976638794
1759336337380921000,6.039921142578125,1.0140362977981567,0.18448130786418915,1.1270463466644287
1759336337390921200,6.049921142578125,1.0299187898635864,0.015882495790719986,1.2137892246246338
1759336337400921000,6.059921142578125,1.0054842233657837,-0.02321287989616394,1.2009611129760742
1759336337410920400,6.06992041015625,0.9773843884468079,0.018936822190880775,1.1246029138565063
1759336337420920300,6.07992041015625,0.9486737251281738,0.11362093687057495,1.1001683473587036
1759336337430920400,6.08992041015625,0.9279043078422546,0.1820378452539444,1.1380419731140137
1759336337440920300,6.09992041015625,0.9150761365890503,0.2816088795661926,1.197295904159546
1759336337450920400,6.10992041015625,0.8888089060783386,0.3781255781650543,1.2626584768295288
1759336337460920300,6.11992041015625,0.8570439219474792,0.4508185386657715,1.359786033630371
1759336337470920200,6.129920166015625,0.8301658630371094,0.53328537940979,1.4972307682037354
1759336337480920000,6.139920166015625,0.7715228199958801,0.6737843751907349,1.6890424489974976
1759336337490920200,6.149920166015625,0.6963863968849182,0.7342600226402283,1.7568484544754028
1759336337500920000,6.159920166015625,0.6609562039375305,0.7941248416900635,1.807550311088562
1759336337510921000,6.1699208984375,0.6695083379745483,0.8442157506942749,1.8112154006958008
1759336337520921000,6.179921142578125,0.7232644557952881,0.816726803779602,1.7818939685821533
1759336337530921000,6.1899208984375,0.7819074988365173,0.7819074988365173,1.7336355447769165
1759336337540921000,6.199921142578125,0.7861835956573486,0.6835582256317139,1.680490255355835
1759336337550921000,6.2099208984375,0.7281513810157776,0.475253164768219,1.6169602870941162
1759336337560921000,6.219921142578125,0.6298020482063293,0.24923302233219147,1.5357152223587036
1759336337570921000,6.2299208984375,0.6157521605491638,0.08307767659425735,1.4233160018920898
1759336337580921000,6.239921142578125,0.6450737118721008,-0.08429940044879913,1.3017538785934448
1759336337590921000,6.2499208984375,0.7305948138237,-0.2382374405860901,1.062294602394104
1759336337600921000,6.259921142578125,0.788627028465271,-0.30482175946235657,0.8918632864952087
1759336337610920200,6.269920166015625,0.7354817390441895,-0.5442809462547302,0.7721336483955383
1759336337620920000,6.279920166015625,0.646906316280365,-0.9071348905563354,0.7770205736160278
1759336337630920200,6.289920166015625,0.523511528968811,-1.189354658126831,0.8417723178863525
1759336337640920000,6.299920166015625,0.33475416898727417,-1.274264931678772,0.9138544201850891
1759336337650920200,6.309920166015625,0.12339477986097336,-1.2864822149276733,0.941343367099762
1759336337660920000,6.319920166015625,0.048258353024721146,-1.1258246898651123,0.9224064946174622
1759336337670920200,6.329920166015625,0.06414084881544113,-0.9560040831565857,0.8808676600456238
1759336337680920000,6.339920166015625,0.042760565876960754,-0.797789990901947,0.7916813492774963
1759336337690920200,6.349920166015625,-0.021991148591041565,-0.66584312915802,0.7293730974197388
1759336337700920000,6.359920166015625,-0.09957103431224823,-0.5546656250953674,0.7086036801338196
1759336337710921000,6.3699208984375,-0.15515977144241333,-0.5833762884140015,0.7257078886032104
1759336337720921000,6.379921142578125,-0.12034045159816742,-0.7678576111793518,0.7348709106445312
1759336337730921000,6.3899208984375,-0.04459316283464432,-0.949895441532135,0.7061602473258972
1759336337740921000,6.399921142578125,0.08674286305904388,-0.9841039180755615,0.5955936312675476
1759336337750921000,6.4099208984375,0.21563543379306793,-0.8026769161224365,0.4550946056842804
1759336337760921000,6.419921142578125,0.26022860407829285,-0.5308418869972229,0.3488040566444397
1759336337770920700,6.429920654296875,0.24373523890972137,-0.34636059403419495,0.27611109614372253
1759336337780920600,6.439920654296875,0.24190263450145721,-0.30482175946235657,0.2528982162475586
1759336337790920700,6.449920654296875,0.27488934993743896,-0.3530801236629486,0.2669481039047241
1759336337800920600,6.459920654296875,0.3029891550540924,-0.45326200127601624,0.3023782968521118
1759336337810920000,6.469919921875,0.2981022298336029,-0.5864306092262268,0.3439171314239502
1759336337820919800,6.479919921875,0.29077184200286865,-0.7043276429176331,0.40072759985923767
1759336337830920000,6.489919921875,0.3066543638706207,-0.645684540271759,0.4306600093841553
1759336337840919800,6.499919921875,0.3292563557624817,-0.4709770977497101,0.43737950921058655
1759336337850920000,6.509919921875,0.3549126982688904,-0.2321287989616394,0.384845107793808
1759336337860919800,6.519919921875,0.4092797040939331,0.02687807008624077,0.2785545587539673
1759336337870920000,6.529919921875,0.4642575979232788,0.20341812074184418,0.17776179313659668
1759336337880919800,6.539919921875,0.5064072608947754,0.2565633952617645,0.1362229436635971
1759336337890920000,6.549919921875,0.5455026626586914,0.23884831368923187,0.0910189226269722
1759336337900919800,6.559919921875,0.5729916095733643,0.22968533635139465,-0.05314527451992035
1759336337910920700,6.569920654296875,0.5839871764183044,0.22602014243602753,-0.31154128909111023
1759336337920920600,6.579920654296875,0.5699372887611389,0.18936823308467865,-0.6420193910598755
1759336337930920700,6.589920654296875,0.5302310585975647,0.1466076523065567,-0.969443142414093
1759336337940920600,6.599920654296875,0.44593164324760437,0.18387043476104736,-1.3310753107070923
1759336337950920700,6.609920654296875,0.4331034719944,0.34147366881370544,-1.4465289115905762
1759336337960920600,6.619920654296875,0.46547931432724,0.5216789245605469,-1.4831807613372803
1759336337970920700,6.629920654296875,0.494189977645874,0.598647952079773,-1.5173892974853516
1759336337980920600,6.639920654296875,0.4740314185619354,0.5198463201522827,-1.5949691534042358
1759336337990920700,6.649920654296875,0.41233405470848083,0.4098905920982361,-1.700037956237793
1759336338000920600,6.659920654296875,0.33047810196876526,0.4453207552433014,-1.8594738245010376
1759336338010920000,6.669919921875,0.2064724564552307,0.7635815739631653,-2.0390682220458984
1759336338020919800,6.679919921875,-0.018325956538319588,1.299310326576233,-2.1642956733703613
1759336338030920000,6.689919921875,-0.24495697021484375,1.7959438562393188,-2.1264219284057617
1759336338040919800,6.699919921875,-0.4196644127368927,2.141082763671875,-1.9517145156860352
1759336338050920000,6.709919921875,-0.6487388610839844,1.9895881414413452,-1.6939293146133423
1759336338060919800,6.719919921875,-0.7965682744979858,1.4355332851409912,-1.7623462677001953
1759336338070920200,6.729920166015625,-1.0085384845733643,0.8863654732704163,-1.9022343158721924
1759336338080920300,6.73992041015625,-1.1930198669433594,0.7635815739631653,-1.8887953758239746
1759336338090920200,6.749920166015625,-1.2400563955307007,0.7305948138237,-1.8851301670074463
1759336338100920300,6.75992041015625,-1.2095131874084473,0.8118399381637573,-1.8680258989334106
1759336338110921000,6.7699208984375,-1.2040153741836548,0.749531626701355,-1.7806721925735474
1759336338120921000,6.779921142578125,-1.1905763149261475,0.494189977645874,-1.6768250465393066
1759336338130921000,6.7899208984375,-1.1917980909347534,0.1612684279680252,-1.5680910348892212
1759336338140921000,6.799921142578125,-1.1930198669433594,-0.22907446324825287,-1.513113260269165
1759336338150921000,6.8099208984375,-1.1838568449020386,-0.5283984541893005,-1.483791708946228
1759336338160921000,6.819921142578125,-1.1178834438323975,-0.7043276429176331,-1.4850133657455444
1759336338170921000,6.8299208984375,-0.9340129494667053,-0.8124507665634155,-1.5503759384155273
1759336338180921000,6.839921142578125,-0.8460483551025391,-1.0213667154312134,-1.643227458000183
1759336338190921000,6.8499208984375,-0.8069530129432678,-1.281595230102539,-1.7592918872833252
1759336338200921000,6.859921142578125,-0.8283332586288452,-1.415374755859375,-1.8515325784683228
1759336338210920200,6.869920166015625,-0.9560040831565857,-1.4410310983657837,-1.9327776432037354
1759336338220920300,6.87992041015625,-1.0965031385421753,-1.5436564683914185,-2.065335512161255
1759336338230920200,6.889920166015625,-1.0922271013259888,-1.6371188163757324,-2.1728477478027344
1759336338240920300,6.89992041015625,-1.0525208711624146,-1.7037031650543213,-2.1288654804229736
1759336338250920200,6.909920166015625,-1.1612548828125,-1.431868076324463,-1.9785925149917603
1759336338260920300,6.91992041015625,-1.176526427268982,-1.035416603088379,-1.8313740491867065
1759336338270920200,6.929920166015625,-1.1398745775222778,-0.8356636762619019,-1.6676621437072754
1759336338280920300,6.93992041015625,-1.0739010572433472,-0.7104362845420837,-1.4495831727981567
1759336338290920200,6.949920166015625,-1.0201449394226074,-0.5760459303855896,-1.376279354095459
1759336338300920300,6.95992041015625,-0.940121591091156,-0.48258355259895325,-1.33168625831604
1759336338310921200,6.969921142578125,-0.8289441466331482,-0.4153883755207062,-1.2779301404953003
1759336338320921000,6.979921142578125,-0.7067710757255554,-0.29565876722335815,-1.1850786209106445
1759336338330921200,6.989921142578125,-0.5748242139816284,-0.18936823308467865,-1.0873401165008545
1759336338340921000,6.999921142578125,-0.45692721009254456,-0.10323622822761536,-0.988990843296051
1759336338350921200,7.009921142578125,-0.3597996234893799,-0.03176499158143997,-0.8692612648010254
1759336338360921000,7.019921142578125,-0.2987131178379059,0.0757472887635231,-0.7360926270484924
1759336338370921200,7.029921142578125,-0.25595253705978394,0.20036379992961884,-0.5827654600143433
1759336338380921000,7.039921142578125,-0.2119702398777008,0.2938261926174164,-0.38667771220207214
1759336338390921200,7.049921142578125,-0.16798794269561768,0.33597588539123535,-0.07269296050071716
1759336338400921000,7.059921142578125,-0.13805554807186127,0.3591887652873993,0.1111774742603302
1759336338410920200,7.069920166015625,-0.1459967941045761,0.4050036668777466,0.27977627515792847
1759336338420920300,7.07992041015625,-0.1661553531885147,0.4801400899887085,0.4392121136188507
1759336338430920200,7.089920166015625,-0.16554448008537292,0.5577199459075928,0.5833762884140015
1759336338440920300,7.09992041015625,-0.1514945775270462,0.6279694437980652,0.7043276429176331
1759336338450920200,7.109920166015625,-0.1466076523065567,0.6768386960029602,0.8063421249389648
1759336338460920300,7.11992041015625,-0.12889257073402405,0.7024950385093689,0.9089674949645996
1759336338470920200,7.129920166015625,-0.08002334833145142,0.759305477142334,1.0103710889816284
1759336338480920300,7.13992041015625,0.04214970022439957,0.8539896011352539,1.120937705039978
1759336338490920200,7.149920166015625,0.23945917189121246,1.0103710889816284,1.2492194175720215
1759336338500920300,7.15992041015625,0.4245513379573822,1.1679743528366089,1.338405728340149
1759336338510921000,7.1699208984375,0.5125159621238708,1.378722906112671,1.129489779472351
1759336338520921000,7.179921142578125,0.53328537940979,1.3255776166915894,1.2278391122817993
1759336338530921000,7.1899208984375,0.5106833577156067,1.3744467496871948,1.4648548364639282
1759336338540921000,7.199921142578125,0.42577308416366577,1.3066407442092896,1.7360789775848389
1759336338550921000,7.2099208984375,0.42088615894317627,1.1808024644851685,1.6884315013885498
1759336338560921000,7.219921142578125,0.5687155723571777,0.9676105380058289,1.4080443382263184
1759336338570921000,7.2299208984375,0.7861835956573486,0.24617868661880493,1.397048830986023
1759336338580921000,7.239921142578125,0.8588765263557434,-0.2675589919090271,1.4660766124725342
1759336338590921000,7.2499208984375,0.8484918475151062,-0.25961771607398987,1.5308283567428589
1759336338600921000,7.259921142578125,0.8295549750328064,-0.01038470957428217,1.6352862119674683
1759336338610920200,7.269920166015625,0.8405506014823914,0.35124751925468445,1.6975945234298706
1759336338620920000,7.279920166015625,0.8723155856132507,0.8063421249389648,1.598023533821106
1759336338630920200,7.289920166015625,0.8845328688621521,0.7037167549133301,1.550986886024475
1759336338640920000,7.299920166015625,0.8943067193031311,0.3781255781650543,1.4819591045379639
1759336338650920200,7.309920166015625,0.8619308471679688,0.18997909128665924,1.321912407875061
1759336338660920000,7.319920166015625,0.8637634515762329,0.13377949595451355,1.1612548828125
1759336338670920200,7.329920166015625,0.9028588533401489,0.14416420459747314,1.0659598112106323
1759336338680920000,7.339920166015625,0.950506329536438,0.17592918872833252,1.0561859607696533
1759336338690920200,7.349920166015625,0.9761626720428467,0.22907446324825287,1.086118459701538
1759336338700920000,7.359920166015625,0.9724974632263184,0.3286454975605011,1.1239920854568481
1759336338710921000,7.3699208984375,0.9456194043159485,0.44776421785354614,1.1673635244369507
1759336338720921000,7.379921142578125,0.9352346658706665,0.5357288122177124,1.2095131874084473
1759336338730921000,7.3899208984375,0.9297369122505188,0.6065891981124878,1.2620476484298706
1759336338740921000,7.399921142578125,0.9468411207199097,0.6218608021736145,1.3182471990585327
1759336338750921000,7.4099208984375,0.9877691268920898,0.5754350423812866,1.3426817655563354
1759336338760921000,7.419921142578125,1.1166616678237915,0.5296201705932617,1.3713924884796143
1759336338770921000,7.4299208984375,1.2046263217926025,0.49357911944389343,1.4086552858352661
1759336338780921000,7.439921142578125,1.2205088138580322,0.4245513379573822,1.4257594347000122
1759336338790921000,7.4499208984375,1.1673635244369507,0.29504790902137756,1.4312572479248047
1759336338800921000,7.459921142578125,1.0751228332519531,0.182648703455925,1.423926830291748
1759336338810920200,7.469920166015625,0.9541715383529663,0.08429940044879913,1.3994922637939453
1759336338820920300,7.47992041015625,0.79840087890625,0.02626720629632473,1.3524556159973145
1759336338830920200,7.489920166015625,0.6450737118721008,0.07024950534105301,1.2638801336288452
1759336338840920300,7.49992041015625,0.6047565937042236,0.13805554807186127,1.166752576828003
1759336338850920200,7.509920166015625,0.5992587804794312,-0.09040805697441101,1.0891727209091187
1759336338860920300,7.51992041015625,0.5583308339118958,-0.3396410644054413,1.045190453529358
1759336338870920200,7.529920166015625,0.49357911944389343,-0.44287729263305664,0.9950994849205017
1759336338880920300,7.53992041015625,0.3549126982688904,-0.5766568183898926,0.911410927772522
1759336338890920200,7.549920166015625,0.251676470041275,-0.7605272531509399,0.8576548099517822
1759336338900920300,7.55992041015625,0.2376265823841095,-0.9419541954994202,0.8338310718536377
1759336338910921200,7.569921142578125,0.30482175946235657,-1.0604621171951294,0.8130616545677185
1759336338920921000,7.579921142578125,0.2834414839744568,-1.1441506147384644,0.7507534027099609
1759336338930921200,7.589921142578125,0.21502456068992615,-1.1447614431381226,0.6921103000640869
1759336338940921000,7.599921142578125,0.1368338167667389,-1.064738154411316,0.6878342628479004
1759336338950921200,7.609921142578125,0.04886921867728233,-0.9193521738052368,0.7055493593215942
1759336338960921000,7.619921142578125,-0.021991148591041565,-0.6829473376274109,0.6988298296928406
1759336338970921200,7.629921142578125,-0.09040805697441101,-0.35124751925468445,0.6798930168151855
1759336338980921000,7.639921142578125,-0.10506882518529892,-0.20952677726745605,0.6682865619659424
1759336338990921200,7.649921142578125,-0.12095131725072861,-0.10323622822761536,0.6609562039375305
1759336339000921000,7.659921142578125,-0.11423180252313614,-0.025045474991202354,0.6511823534965515
1759336339010920200,7.669920166015625,-0.059864792972803116,0.02626720629632473,0.6194173693656921
1759336339020920300,7.67992041015625,0.009162978269159794,0.03787364438176155,0.5571091175079346
1759336339030920200,7.689920166015625,0.059864792972803116,0.015882495790719986,0.4807509481906891
1759336339040920300,7.69992041015625,0.11178833991289139,-0.02076941914856434,0.42149701714515686
1759336339050920200,7.709920166015625,0.18081611394882202,-0.11911872029304504,0.35124751925468445
1759336339060920300,7.71992041015625,0.21135938167572021,-0.1771509200334549,0.2791654169559479
1759336339070920200,7.729920166015625,0.21074850857257843,-0.1215621829032898,0.2480112910270691
1759336339080920300,7.73992041015625,0.182648703455925,0.01710422709584236,0.31154128909111023
1759336339090920200,7.749920166015625,0.1820378452539444,0.06902777403593063,0.40744712948799133
1759336339100920000,7.759920166015625,0.2431243658065796,0.12278391420841217,0.4917465150356293
1759336339110921000,7.7699208984375,0.33597588539123535,0.12950342893600464,0.5277875661849976
1759336339120921000,7.779921142578125,0.43127086758613586,0.0959058403968811,0.5320636034011841
1759336339130921000,7.7899208984375,0.5241223573684692,0.06291911751031876,0.49724429845809937
1759336339140921000,7.799921142578125,0.5913175344467163,0.025045474991202354,0.39706242084503174
1759336339150921000,7.8099208984375,0.6334672570228577,-0.03787364438176155,0.2632829248905182
1759336339160921000,7.819921142578125,0.645684540271759,-0.14844025671482086,0.11789698898792267
1759336339170921000,7.8299208984375,0.6230825781822205,-0.33108896017074585,-0.10567969083786011
1759336339180921000,7.839921142578125,0.6017022728919983,-0.4966334402561188,-0.3836233615875244
1759336339190921000,7.8499208984375,0.6096435189247131,-0.5894849896430969,-0.6542366743087769
1759336339200921000,7.859921142578125,0.6609562039375305,-0.6682865619659424,-1.0073168277740479
1759336339210920200,7.869920166015625,0.6963863968849182,-0.6762278079986572,-1.19912850856781
1759336339220920300,7.87992041015625,0.7586946487426758,-0.607810914516449,-1.3475687503814697
1759336339230920200,7.889920166015625,0.8332201838493347,-0.46364670991897583,-1.4697418212890625
1759336339240920300,7.89992041015625,0.8881980776786804,-0.2926044464111328,-1.5699236392974854
1759336339250920200,7.909920166015625,0.8863654732704163,-0.15943582355976105,-1.6676621437072754
1759336339260920300,7.91992041015625,0.7898487448692322,-0.08674286305904388,-1.750128984451294
1759336339270920200,7.929920166015625,0.5845980644226074,0.009773843921720982,-1.8295414447784424
1759336339280920300,7.93992041015625,0.2785545587539673,0.22113321721553802,-1.9297232627868652
1759336339290920200,7.949920166015625,-0.07941248267889023,0.6145304441452026,-2.0280725955963135
1759336339300920300,7.95992041015625,-0.35735616087913513,1.043968677520752,-2.051896333694458
1759336339310921200,7.969921142578125,-0.35674530267715454,1.4501941204071045,-2.004859685897827
1759336339320921000,7.979921142578125,-0.3341432809829712,1.5961909294128418,-2.0647244453430176
1759336339330921200,7.989921142578125,-0.46547931432724,1.6029103994369507,-2.186286687850952
1759336339340921000,7.999921142578125,-0.7617489695549011,1.5161675214767456,-2.1478021144866943
1759336339350921200,8.009921142578126,-1.007927656173706,1.4795156717300415,-1.9816468954086304
1759336339380921000,8.039921142578125,-0.7898487448692322,1.2455542087554932,-2.0537290573120117
1759336339390921200,8.049921142578125,-0.9071348905563354,0.8668177723884583,-2.0005836486816406
1759336339400921000,8.059921142578125,-1.0207557678222656,0.4612032473087311,-1.9272798299789429
1759336339410920200,8.069920166015624,-1.074512004852295,0.1918116807937622,-1.8643606901168823
1759336339420920300,8.07992041015625,-1.0903944969177246,0.09285151958465576,-1.7727309465408325
1759336339430920200,8.089920166015625,-0.9590584635734558,-0.10995574295520782,-1.7452419996261597
1759336339440920300,8.09992041015625,-0.8387179970741272,-0.16493362188339233,-1.7989981174468994
1759336339450920200,8.109920166015625,-0.7672467231750488,-0.313373863697052,-1.935831904411316
1759336339460920300,8.11992041015625,-0.7709119319915771,-0.6359107494354248,-2.1343631744384766
1759336339470920200,8.129920166015625,-0.7263187766075134,-0.96883225440979,-2.2620339393615723
1759336339480920300,8.13992041015625,-0.6676757335662842,-1.2669345140457153,-2.2846360206604004
1759336339490920200,8.149920166015624,-0.6627888083457947,-1.5986343622207642,-2.2968533039093018
1759336339500920300,8.15992041015625,-0.6548475623130798,-1.803274154663086,-2.37321138381958
1759336339510921000,8.1699208984375,-0.5894849896430969,-1.8600846529006958,-2.453845739364624
1759336339520921000,8.179921142578126,-0.7941248416900635,-1.588249683380127,-2.3683245182037354
1759336339530921000,8.1899208984375,-1.0641272068023682,-1.0268645286560059,-2.244929790496826
1759336339540921000,8.199921142578125,-1.1484266519546509,-0.7586946487426758,-2.073887586593628
1759336339550921000,8.2099208984375,-0.9944885969161987,-0.9126327037811279,-1.9022343158721924
1759336339560921000,8.219921142578125,-0.8423831462860107,-0.9657779335975647,-1.6957619190216064
1759336339570921000,8.2299208984375,-0.7257078886032104,-0.7806857824325562,-1.4960089921951294
1759336339580921000,8.239921142578124,-0.6255260109901428,-0.4795292317867279,-1.3231340646743774
1759336339590921000,8.2499208984375,-0.5283984541893005,-0.2577851414680481,-1.1917980909347534
1759336339600921000,8.259921142578126,-0.4282165467739105,-0.16554448008537292,-1.094059705734253
1759336339610920200,8.269920166015625,-0.31581732630729675,-0.12339477986097336,-0.998153805732727
1759336339620920000,8.279920166015625,-0.21441370248794556,-0.07452555745840073,-0.8979719281196594
1759336339630920200,8.289920166015625,-0.11239920556545258,-0.03726277872920036,-0.799011766910553
1759336339640920000,8.299920166015625,-0.006108652334660292,-0.036651913076639175,-0.7104362845420837
1759336339650920200,8.309920166015624,0.08918632566928864,-0.0507018156349659,-0.617584764957428
1759336339660920000,8.319920166015624,0.19608774781227112,-0.015271631069481373,-0.39217549562454224
1759336339670920200,8.329920166015626,0.2474004179239273,0.018325956538319588,-0.17043140530586243
1759336339680920000,8.339920166015625,0.27122417092323303,0.06291911751031876,0.05742133408784866
1759336339690920200,8.349920166015625,0.26083946228027344,0.14782938361167908,0.26022860407829285
1759336339700920000,8.359920166015625,0.23579397797584534,0.2370157092809677,0.45692721009254456
1759336339710921000,8.3699208984375,0.18448130786418915,0.3243694305419922,0.6792821288108826
1759336339720921000,8.379921142578125,0.10384709388017654,0.4031710624694824,0.8936958312988281
1759336339730921000,8.3899208984375,0.01160643994808197,0.5155702829360962,1.0910053253173828
1759336339740921000,8.399921142578124,-0.039706241339445114,0.7562511563301086,1.2040153741836548
1759336339750921000,8.4099208984375,-0.06475171446800232,1.1410962343215942,1.1606439352035522
1759336339760921000,8.419921142578126,-0.08674286305904388,1.5180001258850098,0.9902125597000122
1759336339770921000,8.4299208984375,-0.07147123664617538,1.4660766124725342,1.0543533563613892
1759336339780921000,8.439921142578125,0.17898350954055786,0.6963863968849182,1.5210545063018799
1759336339790921000,8.4499208984375,0.3787364661693573,0.08307767659425735,1.947438359260559
1759336339800921000,8.459921142578125,0.2119702398777008,0.1466076523065567,2.05433988571167
1759336339810920200,8.469920166015624,0.15393804013729095,0.7764097452163696,1.6365079879760742
1759336339820920000,8.479920166015624,0.48869219422340393,0.6414085030555725,1.370781660079956
1759336339830920200,8.489920166015626,0.7776314616203308,-0.19303341209888458,1.4636331796646118
1759336339840920000,8.499920166015626,0.7849618196487427,-0.2168571650981903,1.377501130104065
1759336339850920200,8.509920166015625,0.7476990818977356,0.18509216606616974,1.2345587015151978
1759336339860920000,8.519920166015625,0.7739662528038025,0.33108896017074585,1.29381263256073
1759336339870920200,8.529920166015625,0.8161159753799438,0.2993239760398865,1.4581353664398193
1759336339880920000,8.539920166015625,0.8637634515762329,0.29138273000717163,1.5540411472320557
1759336339890920200,8.549920166015625,0.8973610401153564,0.33169981837272644,1.5986343622207642
1759336339900920000,8.559920166015624,0.8692612648010254,0.36651915311813354,1.6468926668167114
1759336339910921000,8.5699208984375,0.8051204085350037,0.4306600093841553,1.6963727474212646
1759336339920921000,8.579921142578126,0.7342600226402283,0.49357911944389343,1.7470746040344238
1759336339930921000,8.5899208984375,0.6713408827781677,0.5564982295036316,1.7715091705322266
1759336339940921000,8.599921142578125,0.6188064813613892,0.6261368989944458,1.7727309465408325
1759336339950921000,8.6099208984375,0.5754350423812866,0.6835582256317139,1.7757853269577026
1759336339960921000,8.619921142578125,0.5351179838180542,0.7354817390441895,1.786780834197998
1759336339970921000,8.6299208984375,0.5528330206871033,0.7434229850769043,1.7898352146148682
1759336339980921000,8.639921142578125,0.6255260109901428,0.7531968355178833,1.7941112518310547
1759336339990921000,8.6499208984375,0.6884451508522034,0.8625417351722717,1.8124371767044067
1759336340000921000,8.659921142578124,0.750142514705658,0.8979719281196594,1.8857409954071045
1759336340010920200,8.669920166015626,0.8503243923187256,0.7409795522689819,1.9413297176361084
1759336340020920300,8.67992041015625,0.9083566069602966,0.513737678527832,1.9339994192123413
1759336340030920200,8.689920166015625,0.9028588533401489,0.2480112910270691,1.8301522731781006
1759336340090920200,8.749920166015626,0.46670106053352356,-1.1759155988693237,1.043968677520752
1759336340100920000,8.759920166015625,0.34147366881370544,-1.3628404140472412,0.9669997096061707
1759336340110921000,8.7699208984375,0.24434609711170197,-1.4379768371582031,0.9682214260101318
1759336340120921000,8.779921142578125,0.0757472887635231,-1.3298536539077759,0.9608910083770752
1759336340130921000,8.7899208984375,0.014049900695681572,-1.187522053718567,0.9456194043159485
1759336340140921000,8.799921142578125,0.06230825558304787,-0.9969320893287659,0.8949176073074341
1759336340150921000,8.8099208984375,0.15515977144241333,-0.8191702961921692,0.837496280670166
1759336340160921000,8.819921142578124,0.23884831368923187,-0.7764097452163696,0.8350527882575989
1759336340170921000,8.8299208984375,0.26145032048225403,-0.8393288254737854,0.8790351152420044
1759336340180921000,8.839921142578126,0.20891591906547546,-0.8674286603927612,0.9260717034339905
1759336340190921000,8.8499208984375,0.10262536257505417,-0.8326093554496765,0.9841039180755615
1759336340200921000,8.859921142578125,0.00733038317412138,-0.7660250067710876,1.0097602605819702
1759336340210920200,8.869920166015625,-0.05253441259264946,-0.7024950385093689,0.9517280459403992
1759336340220920000,8.879920166015625,-0.04948008432984352,-0.5791002511978149,0.8228355050086975
1759336340230920200,8.889920166015624,-0.029932396486401558,-0.48869219422340393,0.5925393104553223
1759336340240920000,8.899920166015624,-0.02382374368607998,-0.5143485069274902,0.4899139404296875
1759336340250920200,8.909920166015626,0.007941247895359993,-0.5259549617767334,0.4098905920982361
1759336340260920000,8.919920166015626,0.07330382615327835,-0.504574716091156,0.33719760179519653
1759336340270920200,8.929920166015625,0.1270599663257599,-0.5442809462547302,0.2938261926174164
1759336340280920000,8.939920166015625,0.17348572611808777,-0.6163630485534668,0.28588494658470154
1759336340290920200,8.949920166015625,0.2541199326515198,-0.6872233748435974,0.31154128909111023
1759336340300920000,8.959920166015625,0.3121521472930908,-0.7745771408081055,0.34636059403419495
1759336340310921000,8.9699208984375,0.3695734739303589,-0.817337691783905,0.37690386176109314
1759336340320921000,8.979921142578124,0.43249258399009705,-0.7861835956573486,0.4092797040939331
1759336340330921000,8.9899208984375,0.4917465150356293,-0.7257078886032104,0.43188172578811646
1759336340340921000,8.999921142578126,0.5271766781806946,-0.665232241153717,0.44226643443107605
1759336340350921000,9.0099208984375,0.5265658497810364,-0.6291912198066711,0.45265114307403564
1759336340360921000,9.019921142578125,0.49724429845809937,-0.5949827432632446,0.44837507605552673
1759336340370921000,9.0299208984375,0.4862487316131592,-0.5112941861152649,0.43188172578811646
1759336340380921000,9.039921142578125,0.49357911944389343,-0.4153883755207062,0.394008070230484
1759336340390921000,9.0499208984375,0.48869219422340393,-0.35063666105270386,0.31459560990333557
1759336340400921000,9.059921142578125,0.43676865100860596,-0.3121521472930908,0.1111774742603302
1759336340410920200,9.069920166015624,0.3549126982688904,-0.25534167885780334,-0.2480112910270691
1759336340420920000,9.079920166015626,0.2889392673969269,-0.1007927656173706,-0.6609562039375305
1759336340430920200,9.089920166015625,0.2535090744495392,0.12522737681865692,-1.0207557678222656
1759336340440920000,9.099920166015625,0.20952677726745605,0.304210901260376,-1.291369080543518
1759336340450920200,9.109920166015625,0.17043140530586243,0.394618958234787,-1.4471397399902344
1759336340460920000,9.119920166015625,0.19364428520202637,0.3854559659957886,-1.4947872161865234
1759336340470920200,9.129920166015625,0.20402899384498596,0.3188716471195221,-1.5320500135421753
1759336340480920000,9.139920166015624,0.17104226350784302,0.26450464129447937,-1.6187928915023804
1759336340490920200,9.149920166015624,0.11423180252313614,0.3591887652873993,-1.7336355447769165
1759336340500920000,9.159920166015626,0.02871066704392433,0.7073819637298584,-1.8869627714157104
1759336340510921000,9.1699208984375,-0.05497787147760391,1.214400053024292,-2.0555615425109863
1759336340520921000,9.179921142578126,-0.12400564551353455,1.7385225296020508,-2.1985039710998535
1759336340530921000,9.1899208984375,-0.1771509200334549,2.1624629497528076,-2.2382102012634277
1759336340540921000,9.199921142578125,-0.2321287989616394,2.349998712539673,-2.1795670986175537
1759336340550921000,9.2099208984375,-0.3072652220726013,2.1710150241851807,-2.1233675479888916
1759336340560921000,9.219921142578125,-0.4996877610683441,1.6181820631027222,-2.0732767581939697
1759336340570921000,9.2299208984375,-0.7641924023628235,1.0280861854553223,-1.9932533502578735
1759336340580921000,9.239921142578124,-0.8918632864952087,0.5913175344467163,-2.0580050945281982
1759336340590921000,9.2499208984375,-0.8588765263557434,0.3597996234893799,-2.1313087940216064
1759336340600921000,9.259921142578126,-0.8100073337554932,0.48869219422340393,-2.0928242206573486
1759336340610920200,9.269920166015625,-0.8283332586288452,0.6713408827781677,-2.0201313495635986
1759336340620920000,9.279920166015625,-0.921795666217804,0.749531626701355,-1.948660135269165
1759336340630920200,9.289920166015625,-1.0390818119049072,0.645684540271759,-1.8570303916931152
1759336340640920000,9.299920166015625,-1.1117748022079468,0.46364670991897583,-1.7146987915039062
1759336340650920200,9.309920166015624,-1.120937705039978,0.27061331272125244,-1.5546520948410034
1759336340660920000,9.319920166015624,-1.0995573997497559,-0.04153883829712868,-1.4587461948394775
1759336340670920200,9.329920166015626,-1.0115928649902344,-0.4605923891067505,-1.4581353664398193
1759336340680920000,9.339920166015625,-0.93095862865448,-0.7715228199958801,-1.5070046186447144
1759336340690920200,9.349920166015625,-0.8619308471679688,-1.0696250200271606,-1.6963727474212646
1759336340700920000,9.359920166015625,-0.7922922372817993,-1.007927656173706,-1.884519338607788
1759336340710921000,9.3699208984375,-0.7379252314567566,-0.9773843884468079,-2.1062633991241455
1759336340720921000,9.379921142578125,-0.7556403279304504,-1.1203268766403198,-2.2901337146759033
1759336340730921000,9.3899208984375,-0.7385360598564148,-1.062294602394104,-2.37321138381958
1759336340740921000,9.399921142578124,-0.6621779203414917,-1.1380419731140137,-2.359161615371704
1759336340760921000,9.419921142578126,-1.0610729455947876,-1.3139711618423462,-2.029905319213867
1759336340770920700,9.429920654296875,-1.254717230796814,-1.1679743528366089,-1.9022343158721924
1759336340780920600,9.439920654296875,-1.2760975360870361,-0.9382890462875366,-1.7409659624099731
1759336340790920700,9.449920654296875,-1.186300277709961,-0.675616979598999,-1.5961909294128418
1759336340800920600,9.459920654296875,-1.06351637840271,-0.4306600093841553,-1.5106697082519531
1759336340810920000,9.469919921875,-0.8930850028991699,-0.1472185254096985,-1.377501130104065
1759336340820919800,9.479919921875,-0.7819074988365173,-0.00366519158706069,-1.2889256477355957
1759336340830920000,9.489919921875,-0.6768386960029602,0.10506882518529892,-1.2150110006332397
1759336340840919800,9.499919921875,-0.5815436840057373,0.14782938361167908,-1.1527026891708374
1759336340850920000,9.509919921875,-0.49724429845809937,0.17776179313659668,-1.0769554376602173
1759336340860919800,9.519919921875,-0.42210787534713745,0.23579397797584534,-0.9529497623443604
1759336340870920000,9.529919921875,-0.37079519033432007,0.2993239760398865,-0.817337691783905
1759336340880919800,9.539919921875,-0.3139847218990326,0.3677408695220947,-0.6597344875335693
1759336340890920000,9.549919921875,-0.252287358045578,0.42210787534713745,-0.4801400899887085
1759336340900919800,9.559919921875,-0.1869247704744339,0.4612032473087311,-0.31093040108680725
1759336340910920700,9.569920654296874,-0.1270599663257599,0.494189977645874,-0.13927727937698364
1759336340920920800,9.5799208984375,-0.04581489413976669,0.49235737323760986,0.11423180252313614
1759336340930920700,9.589920654296876,0.006719517521560192,0.4349360466003418,0.27000242471694946
1759336340940920600,9.599920654296875,0.06536258012056351,0.34697145223617554,0.41111230850219727
1759336340950920700,9.609920654296875,0.1111774742603302,0.2070833146572113,0.5528330206871033
1759336340960920600,9.619920654296875,0.13805554807186127,0.04642575979232788,0.7134906053543091
1759336340970920700,9.629920654296875,0.13805554807186127,-0.01710422709584236,0.9028588533401489
1759336340980920600,9.639920654296875,0.11728613078594208,0.0806342139840126,1.0971139669418335
1759336340990920700,9.649920654296874,0.07880161702632904,0.34025195240974426,1.2950342893600464
1759336341000920600,9.659920654296876,0.0555887371301651,0.7373143434524536,1.4428637027740479
1759336341010919700,9.669919677734375,0.08735372871160507,1.1948524713516235,1.492343783378601
1759336341020919800,9.679919921875,0.23640485107898712,1.224173903465271,1.3866641521453857
1759336341030919700,9.689919677734375,0.5479460954666138,0.12828169763088226,1.7018705606460571
1759336341040919800,9.699919921875,0.6444628238677979,-0.484416127204895,2.2773056030273438
1759336341050919700,9.709919677734375,0.5540547966957092,-0.3176499307155609,2.7562239170074463
1759336341060919800,9.719919921875,0.20341812074184418,0.6163630485534668,2.534479856491089
1759336341070920200,9.729920166015624,0.17287486791610718,1.0134254693984985,2.1032090187072754
1759336341080920000,9.739920166015626,0.4080579876899719,-0.19120082259178162,2.2870795726776123
1759336341090920200,9.749920166015626,0.413555771112442,-0.646906316280365,2.0164661407470703
1759336341100920000,9.759920166015625,0.28527405858039856,-0.26022860407829285,1.3811663389205933
1759336341110921000,9.7699208984375,0.2632829248905182,-0.04703662544488907,1.1582005023956299
1759336341120920800,9.7799208984375,0.29138273000717163,0.005497787147760391,1.2870930433273315
1759336341130921000,9.7899208984375,0.36713001132011414,0.15882496535778046,1.4373658895492554
1759336341140920800,9.7999208984375,0.485027015209198,0.3292563557624817,1.5210545063018799
1759336341150921000,9.8099208984375,0.6633996367454529,0.4502076804637909,1.663996934890747
1759336341160920800,9.8199208984375,0.7617489695549011,0.588263213634491,1.7928894758224487
1759336341170921000,9.8299208984375,0.8600982427597046,0.7635815739631653,1.8637498617172241
1759336341180920800,9.8399208984375,0.9834930300712585,0.9517280459403992,1.8429805040359497
1759336341190921000,9.8499208984375,1.120937705039978,1.0629055500030518,1.7739527225494385
1759336341200920800,9.8599208984375,1.2431107759475708,1.094059705734253,1.7055357694625854
1759336341210920200,9.869920166015625,1.3585642576217651,1.0946705341339111,1.6725490093231201
1759336341220920000,9.879920166015625,1.4184291362762451,1.0458012819290161,1.6664403676986694
1759336341230920200,9.889920166015624,1.4092661142349243,0.9468411207199097,1.6786576509475708
1759336341240920000,9.899920166015624,1.367727279663086,0.8319984674453735,1.693318486213684
1759336341250920200,9.909920166015626,1.3396275043487549,0.7562511563301086,1.7311921119689941
1759336341260920000,9.919920166015626,1.299310326576233,0.6670648455619812,1.796554684638977
1759336341270920200,9.929920166015625,1.2333369255065918,0.5522221922874451,1.8026633262634277
1759336341280920000,9.939920166015625,1.1643091440200806,0.4642575979232788,1.7544050216674805
1759336341290920200,9.949920166015625,1.0781772136688232,0.4538728892803192,1.626123309135437
1759336341300920000,9.959920166015625,1.0122036933898926,0.45326200127601624,1.4477506875991821
1759336341310921000,9.9699208984375,0.9162978529930115,0.39767327904701233,1.3017538785934448
1759336341320921000,9.979921142578124,0.8038986921310425,0.24434609711170197,1.225395679473877
1759336341330921000,9.9899208984375,0.6927211880683899,-0.030543262138962746,1.1636983156204224
1759336341340921000,9.999921142578126,0.5595525503158569,-0.4086688458919525,1.1020009517669678
1759336341350921000,10.0099208984375,0.40133845806121826,-0.7586946487426758,1.0793988704681396
1759336341360921000,10.019921142578125,0.28588494658470154,-0.911410927772522,1.1001683473587036
1759336341370921000,10.0299208984375,0.15271630883216858,-0.9242390990257263,1.0592403411865234
1759336341380921000,10.039921142578125,-0.02382374368607998,-0.9468411207199097,0.9181304574012756
1759336341390921000,10.0499208984375,-0.07757988572120667,-1.0268645286560059,0.8423831462860107
1759336341400921000,10.059921142578125,-0.08857546001672745,-1.0696250200271606,0.7867944240570068
1759336341410920200,10.069920166015624,-0.05497787147760391,-1.0952813625335693,0.7391469478607178
1759336341420920000,10.079920166015626,0.01771509274840355,-1.160033106803894,0.6688974499702454
1759336341430920200,10.089920166015625,0.03848451003432274,-1.2950342893600464,0.6108652353286743
1759336341440920000,10.099920166015625,-0.02626720629632473,-1.359786033630371,0.5674937963485718
1759336341450920200,10.109920166015625,-0.1160643994808197,-1.29381263256073,0.5674937963485718
1759336341460920000,10.119920166015625,-0.17409659922122955,-1.1093312501907349,0.5638286471366882
1759336341470920200,10.129920166015625,-0.22357667982578278,-0.9761626720428467,0.5546656250953674
1759336341480920000,10.139920166015624,-0.23945917189121246,-0.8338310718536377,0.5271766781806946
1759336341490920200,10.149920166015624,-0.2687807083129883,-0.6988298296928406,0.4764748811721802
1759336341500920000,10.159920166015626,-0.2736676335334778,-0.5937610268592834,0.4404338300228119
1759336341510921000,10.1699208984375,-0.23640485107898712,-0.3854559659957886,0.3988949954509735
1759336341520921000,10.179921142578126,-0.16798794269561768,-0.15943582355976105,0.35674530267715454
1759336341530921000,10.1899208984375,-0.1014036312699318,-0.05742133408784866,0.30115658044815063
1759336341540921000,10.199921142578125,-0.0507018156349659,-0.1062905490398407,0.25595253705978394
1759336341550921000,10.2099208984375,0.009162978269159794,-0.22479841113090515,0.2376265823841095
1759336341560921000,10.219921142578125,0.0757472887635231,-0.38117989897727966,0.2119702398777008
1759336341570921000,10.2299208984375,0.1472185254096985,-0.4990769028663635,0.17348572611808777
1759336341580921000,10.239921142578124,0.19364428520202637,-0.5455026626586914,0.1368338167667389
1759336341590921000,10.2499208984375,0.2370157092809677,-0.5021312236785889,0.13561208546161652
1759336341600921000,10.259921142578126,0.28588494658470154,-0.3830125033855438,0.16737708449363708
1759336341610920200,10.269920166015625,0.3286454975605011,-0.2076941877603531,0.19914206862449646
1759336341620920000,10.279920166015625,0.3585779070854187,-0.15332718193531036,0.2070833146572113
1759336341630920200,10.289920166015625,0.3903428912162781,-0.15454891324043274,0.23151792585849762
1759336341640920000,10.299920166015625,0.42088615894317627,-0.2278527319431305,0.2938261926174164
1759336341650920200,10.309920166015624,0.4550946056842804,-0.4147774875164032,0.4050036668777466
1759336341660920000,10.319920166015624,0.50335294008255,-0.6676757335662842,0.543059229850769
1759336341670920200,10.329920166015626,0.5613851547241211,-0.8582656979560852,0.6493497490882874
1759336341680920000,10.339920166015625,0.5900958180427551,-0.9266825914382935,0.6487388610839844
1759336341690920200,10.349920166015625,0.5290092825889587,-0.8405506014823914,0.4386012554168701
1759336341700920000,10.359920166015625,0.3677408695220947,-0.6682865619659424,0.012217304669320583
1759336341710921000,10.3699208984375,0.1722639948129654,-0.4489859640598297,-0.4893030524253845
1759336341720920800,10.3799208984375,0.07757988572120667,0.009773843921720982,-0.9450085163116455
1759336341740920800,10.3999208984375,0,0.2571742534637451,-0.93095862865448
1759336341750921000,10.4099208984375,-0.0555887371301651,0.13316862285137177,-0.827722430229187
1759336341760920800,10.4199208984375,-0.04337143152952194,-0.01466076634824276,-0.7910705208778381
1759336341770921000,10.4299208984375,-0.004886921960860491,-0.09040805697441101,-0.8979719281196594
1759336341780920800,10.4399208984375,0.05497787147760391,-0.004886921960860491,-1.0696250200271606
1759336341790921000,10.4499208984375,0.1466076523065567,0.2217440903186798,-1.2693779468536377
1759336341800920800,10.4599208984375,0.20891591906547546,0.4905247986316681,-1.4880677461624146
1759336341810920200,10.469920166015624,0.19486601650714874,0.7837401032447815,-1.6811012029647827
1759336341820920000,10.479920166015624,0.10445795953273773,1.084285855293274,-1.8301522731781006
1759336341830920200,10.489920166015626,-0.0354301854968071,1.3939944505691528,-1.9535470008850098
1759336341840920000,10.499920166015626,-0.2541199326515198,1.8784105777740479,-2.1148154735565186
1759336341850920200,10.509920166015625,-0.3799581825733185,2.0610592365264893,-2.1734585762023926
1759336341860920000,10.519920166015625,-0.4489859640598297,1.968207836151123,-2.1587977409362793
1759336341870920200,10.529920166015625,-0.4703662395477295,1.4856243133544922,-2.0928242206573486
1759336341880920000,10.539920166015625,-0.5222898125648499,0.788016140460968,-2.051896333694458
1759336341890920200,10.549920166015625,-0.6603453159332275,0.7098253965377808,-2.0060815811157227
1759336341900920000,10.559920166015624,-0.8106181621551514,1.3738359212875366,-1.9254472255706787
1759336341910921000,10.5699208984375,-0.8619308471679688,2.0311269760131836,-1.807550311088562
1759336341920921000,10.579921142578126,-0.8216137290000916,2.3072381019592285,-1.7721201181411743
1759336341930921000,10.5899208984375,-0.8283332586288452,2.0873265266418457,-1.7983872890472412
1759336341940921000,10.599921142578125,-0.8448266386985779,1.5430456399917603,-1.7886134386062622
1759336341950921000,10.6099208984375,-0.9132435321807861,0.6511823534965515,-1.742187738418579
1759336341960921000,10.619921142578125,-0.9095783233642578,0.1160643994808197,-1.797776460647583
1759336341970921000,10.6299208984375,-0.8093964457511902,-0.18814650177955627,-1.8313740491867065
1759336341980921000,10.639921142578125,-0.7147123217582703,-0.3597996234893799,-1.8765780925750732
1759336341990921000,10.6499208984375,-0.6603453159332275,-0.5406157374382019,-1.9071213006973267
1759336342000921000,10.659921142578124,-0.5858197808265686,-0.7757988572120667,-1.9822577238082886
1759336342010920200,10.669920166015626,-0.5852088928222656,-1.197295904159546,-2.0445659160614014
1759336342020920000,10.679920166015625,-0.6908885836601257,-1.4465289115905762,-2.0256290435791016
1759336342030920200,10.689920166015625,-0.8332201838493347,-1.4092661142349243,-2.0390682220458984
1759336342040920000,10.699920166015625,-0.9621127843856812,-1.4001030921936035,-1.99447500705719
1759336342050920200,10.709920166015625,-1.006095051765442,-1.4477506875991821,-1.8668042421340942
1759336342060920000,10.719920166015624,-1.1099421977996826,-1.361007809638977,-1.6872098445892334
1759336342070920200,10.729920166015624,-1.2272282838821411,-1.1044443845748901,-1.455691933631897
1759336342080920000,10.739920166015626,-1.2528846263885498,-1.0592403411865234,-1.4123204946517944
1759336342090920200,10.749920166015626,-1.2376129627227783,-1.2150110006332397,-1.453248381614685
1759336342100920000,10.759920166015625,-1.1441506147384644,-1.3469579219818115,-1.5070046186447144
1759336342110921000,10.7699208984375,-1.0207557678222656,-1.3164145946502686,-1.5265522003173828
1759336342120921000,10.779921142578125,-0.93095862865448,-1.2223412990570068,-1.511891484260559
1759336342130921000,10.7899208984375,-0.8717046976089478,-1.0512990951538086,-1.4703526496887207
1759336342140921000,10.799921142578125,-0.8197811841964722,-0.8863654732704163,-1.405600905418396
1759336342150921000,10.8099208984375,-0.740368664264679,-0.7837401032447815,-1.3298536539077759
1759336342160921000,10.819921142578124,-0.6407976150512695,-0.6798930168151855,-1.2443325519561768
1759336342170921000,10.8299208984375,-0.5485569834709167,-0.5858197808265686,-1.1148290634155273
1759336342180921000,10.839921142578126,-0.46547931432724,-0.3927863538265228,-0.8655960559844971
1759336342190921000,10.8499208984375,-0.44654250144958496,-0.21135938167572021,-0.6731734871864319
1759336342200921000,10.859921142578125,-0.43127086758613586,-0.03848451003432274,-0.5094616413116455
1759336342210920200,10.869920166015625,-0.40072759985923767,0.06536258012056351,-0.39584067463874817
1759336342220920000,10.879920166015625,-0.3640756905078888,0.10751228034496307,-0.3225368559360504
1759336342230920200,10.889920166015624,-0.33169981837272644,0.10751228034496307,-0.2773328125476837
1759336342240920000,10.899920166015624,-0.3139847218990326,0.09407325088977814,-0.22540926933288574
1759336342250920200,10.909920166015626,-0.31642818450927734,0.06902777403593063,-0.1417207419872284
1759336342260920000,10.919920166015626,-0.33536502718925476,0.001832595793530345,-0.025656340643763542
1759336342270920200,10.929920166015625,-0.34086281061172485,-0.07941248267889023,0.13744467496871948
1759336342280920000,10.939920166015625,-0.33597588539123535,-0.16004669666290283,0.33169981837272644
1759336342290920200,10.949920166015625,-0.31031954288482666,-0.2119702398777008,0.5412266254425049
1759336342300920000,10.959920166015625,-0.19914206862449646,-0.1459967941045761,0.8478809595108032
1759336342310921000,10.9699208984375,-0.07024950534105301,0.056810468435287476,1.0005972385406494
1759336342320921000,10.979921142578124,0.03298672288656235,0.3799581825733185,1.1136072874069214
1759336342330921000,10.9899208984375,0.1313360333442688,0.8998045325279236,1.0903944969177246
1759336342340921000,10.999921142578126,0.24617868661880493,1.5222761631011963,0.9492846131324768
1759336342350921000,11.0099208984375,0.4453207552433014,1.6169602870941162,0.9767735004425049
1759336342360921000,11.019921142578125,0.6762278079986572,1.1276572942733765,1.2687671184539795
1759336342370921000,11.0299208984375,0.7953465580940247,0.5253441333770752,1.711033582687378
1759336342380921000,11.039921142578125,0.7446447610855103,0.15454891324043274,2.0470094680786133
1759336342390921000,11.0499208984375,0.5925393104553223,0.3439171314239502,2.084882974624634
1759336342400921000,11.059921142578125,0.5852088928222656,0.6951646208763123,1.9211711883544922
1759336342410920200,11.069920166015624,0.8704829812049866,0.15760323405265808,1.7654005289077759
1759336342420920300,11.07992041015625,0.8985827565193176,-0.18570303916931152,1.7232508659362793
1759336342430920200,11.089920166015625,0.8356636762619019,-0.05192354694008827,1.6297885179519653
1759336342440920300,11.09992041015625,0.8051204085350037,0.1667662113904953,1.642616629600525
1759336342450920200,11.109920166015625,0.8234463334083557,0.3072652220726013,1.742187738418579
1759336342460920300,11.11992041015625,0.8521569967269897,0.46181413531303406,1.7366899251937866
1759336342470920200,11.129920166015625,0.8387179970741272,0.5393940210342407,1.6371188163757324
1759336342480920000,11.139920166015624,0.770301103591919,0.4447098970413208,1.5888605117797852
1759336342490920200,11.149920166015624,0.6731734871864319,0.3323107063770294,1.6273449659347534
1759336342500920000,11.159920166015626,0.6047565937042236,0.3384193480014801,1.6939293146133423
1759336342530921000,11.1899208984375,0.6414085030555725,0.6682865619659424,1.72935950756073
1759336342540921000,11.199921142578125,0.6713408827781677,0.5760459303855896,1.7177530527114868
1759336342550921000,11.2099208984375,0.665232241153717,0.41172316670417786,1.6982053518295288
1759336342560921000,11.219921142578125,0.6389650702476501,0.32131510972976685,1.6890424489974976
1759336342570921000,11.2299208984375,0.6230825781822205,0.3842342495918274,1.7043139934539795
1759336342580921000,11.239921142578124,0.6432411074638367,0.48869219422340393,1.7055357694625854
1759336342590921000,11.2499208984375,0.7244861721992493,0.48685958981513977,1.6597208976745605
1759336342600921000,11.259921142578126,0.7721336483955383,0.44837507605552673,1.5766432285308838
1759336342610920200,11.269920166015625,0.769690215587616,0.3793473243713379,1.4813482761383057
1759336342620920000,11.279920166015625,0.7428121566772461,0.27122417092323303,1.4141530990600586
1759336342630920200,11.289920166015625,0.6511823534965515,0.12828169763088226,1.3732250928878784
1759336342640920000,11.299920166015625,0.5064072608947754,0.11423180252313614,1.3298536539077759
1759336342650920200,11.309920166015624,0.41111230850219727,0.22113321721553802,1.2626584768295288
1759336342660920000,11.319920166015624,0.2993239760398865,0.2565633952617645,1.160033106803894
1759336342670920200,11.329920166015626,0.21013765037059784,0.17104226350784302,1.0616837739944458
1759336342680920000,11.339920166015625,0.21135938167572021,0.00427605677396059,1.0213667154312134
1759336342690920200,11.349920166015625,0.2376265823841095,-0.2070833146572113,1.0445796251296997
1759336342700920000,11.359920166015625,0.2883284091949463,-0.5204572081565857,1.10139000415802
1759336342710921000,11.3699208984375,0.2938261926174164,-0.8509352803230286,1.120937705039978
1759336342720920800,11.3799208984375,0.2577851414680481,-1.0329731702804565,1.0726794004440308
1759336342730921000,11.3899208984375,0.2278527319431305,-1.06351637840271,0.9712757468223572
1759336342740920800,11.3999208984375,0.18997909128665924,-1.081842303276062,0.8570439219474792
1759336342750921000,11.4099208984375,0.13011430203914642,-1.1233811378479004,0.7715228199958801
1759336342760920800,11.4199208984375,0.03176499158143997,-1.2315043210983276,0.7336491346359253
1759336342770921000,11.4299208984375,-0.0403171069920063,-1.2198978662490845,0.7422012686729431
1759336342780921000,11.439921142578125,-0.11545353382825851,-1.103833556175232,0.7531968355178833
1759336342810920200,11.469920166015624,-0.3219259977340698,-0.7318165898323059,0.6725626587867737
1759336342820920000,11.479920166015624,-0.33108896017074585,-0.6310238242149353,0.6249151229858398
1759336342830920200,11.489920166015626,-0.3084869384765625,-0.5467243790626526,0.5791002511978149
1759336342840920000,11.499920166015626,-0.2535090744495392,-0.46303585171699524,0.5406157374382019
1759336342850920200,11.509920166015625,-0.19547687470912933,-0.3689626157283783,0.5070181488990784
1759336342860920000,11.519920166015625,-0.13439035415649414,-0.2926044464111328,0.4605923891067505
1759336342870920200,11.529920166015625,-0.028099801391363144,-0.3121521472930908,0.34208452701568604
1759336342880920000,11.539920166015625,0.03726277872920036,-0.4050036668777466,0.26511552929878235
1759336342890920200,11.549920166015625,0.09040805697441101,-0.4434881806373596,0.2174680233001709
1759336342900920000,11.559920166015624,0.13561208546161652,-0.4392121136188507,0.19914206862449646
1759336342910921000,11.5699208984375,0.18081611394882202,-0.47342056035995483,0.19975294172763824
1759336342920921000,11.579921142578126,0.2321287989616394,-0.5229006409645081,0.2272418737411499
1759336342930921000,11.5899208984375,0.2926044464111328,-0.5296201705932617,0.2669481039047241
1759336342940921000,11.599921142578125,0.3604104816913605,-0.5112941861152649,0.31093040108680725
1759336342950921000,11.6099208984375,0.4489859640598297,-0.5290092825889587,0.342695415019989
1759336342960921000,11.619921142578125,0.523511528968811,-0.5827654600143433,0.33536502718925476
1759336342970921000,11.6299208984375,0.5717698931694031,-0.6114761233329773,0.2981022298336029
1759336342980921000,11.639921142578125,0.6004805564880371,-0.5613851547241211,0.2791654169559479
1759336342990921000,11.6499208984375,0.5729916095733643,-0.4862487316131592,0.35674530267715454
1759336343000921000,11.659921142578124,0.47769662737846375,-0.53328537940979,0.41172316670417786
1759336343010920200,11.669920166015626,0.3549126982688904,-0.4917465150356293,0.3384193480014801
1759336343030920200,11.689920166015625,0.18570303916931152,-0.036651913076639175,-0.2541199326515198
1759336343040920300,11.69992041015625,0.1612684279680252,0.23518311977386475,-0.6438519954681396
1759336343050920200,11.709920166015625,0.13561208546161652,0.37262779474258423,-0.9810495972633362
1759336343060920300,11.71992041015625,0.07635815441608429,0.32009339332580566,-1.1728612184524536
1759336343070920200,11.729920166015624,0.033597588539123535,0.15271630883216858,-1.1771373748779297
1759336343080920000,11.739920166015626,0.02076941914856434,-0.06108652427792549,-1.094059705734253
1759336343090920200,11.749920166015626,0.09346238523721695,-0.23884831368923187,-1.017701506614685
1759336343100920000,11.759920166015625,0.19120082259178162,-0.29504790902137756,-1.0848966836929321
1759336343110921000,11.7699208984375,0.23945917189121246,-0.10934487730264664,-1.2608258724212646
1759336343120921000,11.779921142578125,0.26633724570274353,0.242513507604599,-1.4660766124725342
1759336343130921000,11.7899208984375,0.23945917189121246,0.7202101349830627,-1.6291775703430176
1759336343140921000,11.799921142578125,0.12339477986097336,1.2773191928863525,-1.7617353200912476
1759336343150921000,11.8099208984375,-0.025656340643763542,1.7757853269577026,-1.8832975625991821
1759336343160921000,11.819921142578124,-0.11911872029304504,2.138639211654663,-1.9523253440856934
1759336343170921000,11.8299208984375,-0.19608774781227112,2.375654935836792,-1.910786509513855
1759336343180921000,11.839921142578126,-0.26572638750076294,2.4685065746307373,-1.7708983421325684
1759336343190921000,11.8499208984375,-0.28588494658470154,2.272418737411499,-1.6462818384170532
1759336343200921000,11.859921142578125,-0.3286454975605011,1.8949040174484253,-1.616349458694458
1759336343210920200,11.869920166015625,-0.5283984541893005,1.5680910348892212,-1.6481144428253174
1759336343220920300,11.87992041015625,-0.959669291973114,1.557706356048584,-1.6285667419433594
1759336343230920200,11.889920166015624,-1.0781772136688232,1.8197675943374634,-1.5650367736816406
1759336343240920300,11.89992041015625,-1.0659598112106323,1.966986060142517,-1.5546520948410034
1759336343250920200,11.909920166015626,-1.1313223838806152,1.6475036144256592,-1.5876387357711792
1759336343260920300,11.91992041015625,-1.2626584768295288,1.0183123350143433,-1.6297885179519653
1759336343270920200,11.929920166015625,-1.3341296911239624,0.4709770977497101,-1.711033582687378
1759336343280920000,11.939920166015625,-1.301142930984497,0.1722639948129654,-1.7495180368423462
1759336343290920200,11.949920166015625,-1.2125675678253174,-0.005497787147760391,-1.750128984451294
1759336343300920000,11.959920166015625,-1.120937705039978,-0.3384193480014801,-1.788002610206604
1759336343310921000,11.9699208984375,-1.0030407905578613,-0.8778133392333984,-1.8570303916931152
1759336343320921000,11.979921142578124,-0.8381071090698242,-1.4569135904312134,-1.9895881414413452
1759336343330921000,11.9899208984375,-0.5705481171607971,-1.7201964855194092,-2.3939809799194336
1759336343340921000,11.999921142578126,-0.5577199459075928,-1.6884315013885498,-2.7342329025268555
1759336343350921000,12.0099208984375,-0.6438519954681396,-1.5937473773956299,-2.9095511436462402
1759336343360921000,12.019921142578125,-0.7287622094154358,-1.6175711154937744,-2.899777412414551
1759336343370921000,12.0299208984375,-0.7263187766075134,-1.8118263483047485,-2.7965409755706787
1759336343380921000,12.039921142578125,-0.6933320760726929,-1.8955148458480835,-2.6334400177001953
1759336343390921000,12.0499208984375,-0.8155050873756409,-1.557706356048584,-2.37626576423645
1759336343400921000,12.059921142578125,-1.017701506614685,-0.8894197940826416,-2.13008713722229
1759336343410920200,12.069920166015624,-1.0787880420684814,-0.5119050741195679,-1.880243182182312
1759336343420920300,12.07992041015625,-0.99876469373703,-0.3488040566444397,-1.595579981803894
1759336343430920200,12.089920166015625,-0.8765916228294373,-0.2480112910270691,-1.3683381080627441
1759336343440920300,12.09992041015625,-0.7568620443344116,-0.08735372871160507,-1.1917980909347534
1759336343450920200,12.109920166015625,-0.6029239892959595,0.10445795953273773,-1.1117748022079468
1759336343460920300,12.11992041015625,-0.5259549617767334,0.27550023794174194,-1.0433578491210938
1759336343490920200,12.149920166015624,-0.2620611786842346,0.18936823308467865,-0.8863654732704163
1759336343500920000,12.159920166015626,-0.20952677726745605,0.15943582355976105,-0.799011766910553
1759336343510921000,12.1699208984375,-0.17470745742321014,0.17104226350784302,-0.656069278717041
1759336343560921000,12.219921142578125,0.07024950534105301,0.1514945775270462,0.3579670190811157
1759336343570921000,12.2299208984375,0.11545353382825851,0.06230825558304787,0.513126790523529
1759336343580921000,12.239921142578124,0.14538592100143433,-0.036651913076639175,0.7006624341011047
1759336343590921000,12.2499208984375,0.1869247704744339,-0.15332718193531036,0.8881980776786804
1759336343600921000,12.259921142578126,0.1814269721508026,0.009162978269159794,1.0152580738067627
1759336343610920200,12.269920166015625,0.1264491081237793,0.45692721009254456,0.9920451641082764
1759336343620920000,12.279920166015625,0.07208210229873657,1.3280210494995117,0.6896668672561646
1759336343630920200,12.289920166015625,0.08979719132184982,2.0146336555480957,0.4605923891067505
1759336343640920000,12.299920166015625,0.313373863697052,1.5241087675094604,0.66584312915802
1759336343650920200,12.309920166015624,0.5424483418464661,0.46242499351501465,1.3066407442092896
1759336343660920000,12.319920166015624,0.5338962078094482,-0.38179078698158264,2.0775527954101562
1759336343670920200,12.329920166015626,0.375071257352829,0.3897320330142975,2.026240110397339
1759336343680920000,12.339920166015625,0.6035348773002625,0.8918632864952087,1.5601497888565063
1759336343690920200,12.349920166015625,0.8723155856132507,0.19853121042251587,1.6725490093231201
1759336343700920000,12.359920166015625,0.7678576111793518,0.024434609338641167,1.8576412200927734
1759336343710921000,12.3699208984375,0.5644394755363464,0.5876523852348328,1.6762142181396484
1759336343720921000,12.379921142578125,0.5094616413116455,0.8894197940826416,1.6291775703430176
1759336343730921000,12.3899208984375,0.5534439086914062,0.8808676600456238,1.785559058189392
1759336343740921000,12.399921142578124,0.6224716901779175,0.7324274182319641,1.9211711883544922
1759336343750921000,12.4099208984375,0.6951646208763123,0.6768386960029602,1.9449949264526367
1759336343760921000,12.419921142578126,0.7544185519218445,0.6695083379745483,1.9468275308609009
1759336343770921000,12.4299208984375,0.8827002644538879,0.7110471725463867,1.9352210760116577
1759336343780921000,12.439921142578125,0.9242390990257263,0.826500654220581,1.8570303916931152
1759336343790921000,12.4499208984375,0.9053022861480713,0.969443142414093,1.6756033897399902
1759336343800921000,12.459921142578125,0.8423831462860107,0.8704829812049866,1.5778648853302002
1759336343810920200,12.469920166015624,0.901637077331543,0.7617489695549011,1.5552629232406616
1759336343820920000,12.479920166015624,0.9364564418792725,0.6921103000640869,1.5564846992492676
1759336343830920200,12.489920166015626,0.7348709106445312,0.6389650702476501,1.521665334701538
1759336343840920000,12.499920166015626,0.7666358947753906,0.6359107494354248,1.5125023126602173
1759336343850920200,12.509920166015625,0.8448266386985779,0.5949827432632446,1.5454890727996826
1759336343860920000,12.519920166015625,0.8405506014823914,0.4807509481906891,1.578475832939148
1759336343870920200,12.529920166015625,0.685390830039978,0.4550946056842804,1.577254056930542
1759336343880920000,12.539920166015625,0.6731734871864319,0.5461135506629944,1.5149458646774292
1759336343890920200,12.549920166015625,0.817948579788208,0.6017022728919983,1.431868076324463
1759336343900920000,12.559920166015624,0.7867944240570068,0.9358455538749695,1.3494013547897339
1759336343910921000,12.5699208984375,0.7483099102973938,1.1258246898651123,1.3701707124710083
1759336343920921000,12.579921142578126,0.8124507665634155,0.9615018963813782,1.4666874408721924
1759336343930921000,12.5899208984375,0.9004153609275818,0.5528330206871033,1.5968017578125
1759336343940921000,12.599921142578125,0.8833111524581909,0.19425514340400696,1.6560556888580322
1759336343950921000,12.6099208984375,0.7812966704368591,-0.05742133408784866,1.6194037199020386
1759336343960921000,12.619921142578125,0.7422012686729431,-0.1667662113904953,1.4489723443984985
1759336343970921000,12.6299208984375,0.7177666425704956,-0.06291911751031876,1.2748757600784302
1759336343980921000,12.639921142578125,0.5962044596672058,0.14477506279945374,1.1649199724197388
1759336343990921000,12.6499208984375,0.5155702829360962,0.294437050819397,1.1172724962234497
1759336344000921000,12.659921142578124,0.41661009192466736,0.1966986060142517,1.092837929725647
1759336344010920200,12.669920166015626,0.27550023794174194,-0.08796459436416626,1.086118459701538
1759336344020920000,12.679920166015625,0.13744467496871948,-0.4544837474822998,1.0335839986801147
1759336344030920200,12.689920166015625,0.11056660860776901,-0.5546656250953674,0.9590584635734558
1759336344040920000,12.699920166015625,0.0910189226269722,-0.5656611919403076,0.8625417351722717
1759336344050920200,12.709920166015625,0.0507018156349659,-0.5381723046302795,0.7507534027099609
1759336344060920000,12.719920166015624,0.05864306539297104,-0.5326744914054871,0.6762278079986572
1759336344070920200,12.729920166015624,0.09407325088977814,-0.5577199459075928,0.626747727394104
1759336344080920000,12.739920166015626,0.08979719132184982,-0.6218608021736145,0.5864306092262268
1759336344090920200,12.749920166015626,0.01038470957428217,-0.7202101349830627,0.5821545720100403
1759336344100920000,12.759920166015625,-0.07757988572120667,-0.6896668672561646,0.6114761233329773
1759336344110921000,12.7699208984375,-0.13011430203914642,-0.6114761233329773,0.6212499737739563
1759336344120920800,12.7799208984375,-0.182648703455925,-0.53328537940979,0.5858197808265686
1759336344130921000,12.7899208984375,-0.2528982162475586,-0.47280970215797424,0.5424483418464661
1759336344140920800,12.7999208984375,-0.25534167885780334,-0.44226643443107605,0.53328537940979
1759336344150921000,12.8099208984375,-0.15332718193531036,-0.33292156457901,0.5308418869972229
1759336344160920800,12.8199208984375,-0.10384709388017654,-0.20402899384498596,0.48197266459465027
1759336344170921000,12.8299208984375,-0.16004669666290283,-0.07757988572120667,0.3689626157283783
1759336344180921000,12.839921142578126,-0.1875356286764145,0.1966986060142517,0.2840523421764374
1759336344190921000,12.8499208984375,-0.14966198801994324,0.31093040108680725,0.2669481039047241
1759336344200921000,12.859921142578125,-0.07941248267889023,0.19914206862449646,0.2565633952617645
1759336344210920200,12.869920166015625,0.02321287989616394,-0.036651913076639175,0.2681698501110077
1759336344220920000,12.879920166015625,0.08124507963657379,-0.2785545587539673,0.29626965522766113
